Folder: EIS/txt (part 34)

File: 17486_R279_UA653_SOC00_C01.mpt
EC-Lab ASCII FILE
Nb header lines : 63

Potentio Electrochemical Impedance Spectroscopy

Run on channel : 1 (SN 66354)
User :
CE vs. WE compliance from -10 V to 10 V
Electrode connection : standard
Potential control : Ewe
Ewe ctrl range : min = -10.00 V, max = 10.00 V
Safety Limits :
	Do not start on E overload
Acquisition started on : 09/15/2025 10:08:03.148
Loaded Setting File :  C:\Users\Celltest\OneDrive - store-dot.com\Documents\EC-Lab\Data\Gyutae\EIS_SOC0_C01.mpr
Saved on :
	File : 17486_C01.mpr
	Directory : C:\Users\Celltest\OneDrive - store-dot.com\Documents\EC-Lab\Data\Charmaine\R279\
	Host : 169.254.61.224
Device : VMP-3e (SN .003165)
Address : USB
EC-LAB for windows v11.62 (software)
Internet server v27.00 (firmware)
Command interpretor v12.03 (firmware)
Electrode material :
Initial state :
Electrolyte :
Comments :
Electrode surface area : 0.001 cm²
Characteristic mass : 0.001 g
Equivalent Weight : 0.000 g/eq.
Density : 0.000 g/cm3
Volume (V) : 0.001 cm³
Cycle Definition : Charge/Discharge alternance
Mode                Single sine
E (V)               0.0000
vs.                 Eoc
tE (h:m:s)          0:00:0.0000
record              0
dI                  0.000
unit dI             mA
dt (s)              0.000
fi                  100.000
unit fi             kHz
ff                  10.000
unit ff             mHz
Nd                  6
Points              per decade
spacing             Logarithmic
Va (mV)             5.0
pw                  0.10
Na                  2
corr                0
E range min (V)     -10.000
E range max (V)     10.000
I Range             Auto
Bandwidth           5
nc cycles           0
goto Ns'            0
nr cycles           0
inc. cycle          0

freq/Hz	Re(Z)/Ohm	-Im(Z)/Ohm	|Z|/Ohm	Phase(Z)/deg	time/s	<Ewe>/V	<I>/mA	Cs/µF	Cp/µF	cycle number	I Range	|Ewe|/V	|I|/A	Ns	(Q-Qo)/mA.h	Re(Y)/Ohm-1	Im(Y)/Ohm-1	|Y|/Ohm-1	Phase(Y)/deg	Re(C)/nF	Im(C)/nF	|C|/nF	Phase(C)/deg	Re(M)	Im(M)	|M|	Phase(M)/deg	Re(Permittivity)	Im(Permittivity)	|Permittivity|	Phase(Permittivity)/deg	Re(Resistivity)/Ohm.cm	Im(Resistivity)/Ohm.cm	|Resistivity|/Ohm.cm	Phase(Resistivity)/deg	Re(Conductivity)/mS/cm	Im(Conductivity)/mS/cm	|Conductivity|/mS/cm	Phase(Conductivity)/deg	Tan(Delta)	Loss Angle(Delta)/deg	dq/mA.h	Pwe/W	Rwe/Ohm
100004	1.11163	0.249481	1.13928	-12.6491	2.06749	0.254312	0.0730326	6.37921	0.305898	1	9	0.00470592	0.00413059	0	3.8929e-06	0.85644	0.192208	0.877744	12.6491	305.898	1363.02	1396.92	-77.3509	0.0000000E+000	0.0000000E+000	0.0000000E+000	77.3509	0.0000000E+000	0.0000000E+000	0.0000000E+000	-77.3509	0.0000000E+000	0.0000000E+000	0.0000000E+000	-12.6491	0.0000000E+000	0.0000000E+000	0.0000000E+000	12.6491	4.45579	77.3509	3.8929e-06	1.8573e-05	3482.16
46420.4	1.23582	0.287411	1.2688	-13.0924	3.2245	0.254307	0.0729208	11.9291	0.612107	1	9	0.0050492	0.0039795	0	4.15606e-05	0.767659	0.178532	0.788145	13.0924	612.107	2631.96	2702.2	-76.9076	0.0000000E+000	0.0000000E+000	0.0000000E+000	76.9076	0.0000000E+000	0.0000000E+000	0.0000000E+000	-76.9076	0.0000000E+000	0.0000000E+000	0.0000000E+000	-13.0924	0.0000000E+000	0.0000000E+000	0.0000000E+000	13.0924	4.29984	76.9076	1.8163e-05	1.85443e-05	3487.44
21544.7	1.37659	0.350529	1.42052	-14.2859	4.24049	0.254314	0.0690464	21.0744	1.28325	1	9	0.00532762	0.00375047	0	6.30556e-05	0.682198	0.173712	0.703968	14.2859	1283.25	5039.54	5200.35	-75.7141	0.0000000E+000	0.0000000E+000	0.0000000E+000	75.7141	0.0000000E+000	0.0000000E+000	0.0000000E+000	-75.7141	0.0000000E+000	0.0000000E+000	0.0000000E+000	-14.2859	0.0000000E+000	0.0000000E+000	0.0000000E+000	14.2859	3.92718	75.7141	1.62095e-05	1.75595e-05	3683.23
10002.2	1.53919	0.433635	1.59911	-15.7341	5.11548	0.254308	0.0753423	36.6943	2.69831	1	9	0.0049281	0.00308178	0	8.25156e-05	0.601917	0.169578	0.625349	15.7341	2698.31	9577.68	9950.52	-74.2659	0.0000000E+000	0.0000000E+000	0.0000000E+000	74.2659	0.0000000E+000	0.0000000E+000	0.0000000E+000	-74.2659	0.0000000E+000	0.0000000E+000	0.0000000E+000	-15.7341	0.0000000E+000	0.0000000E+000	0.0000000E+000	15.7341	3.54951	74.2659	7.73165e-06	1.91602e-05	3375.37
4641.49	1.73648	0.568648	1.82722	-18.1322	6.18771	0.254287	0.092647	60.3003	5.84017	1	9	0.00499446	0.00273337	0	8.85427e-05	0.520103	0.170319	0.54728	18.1322	5840.18	17834.1	18766	-71.8678	0.0000000E+000	0.0000000E+000	0.0000000E+000	71.8678	0.0000000E+000	0.0000000E+000	0.0000000E+000	-71.8678	0.0000000E+000	0.0000000E+000	0.0000000E+000	-18.1322	0.0000000E+000	0.0000000E+000	0.0000000E+000	18.1322	3.0537	71.8678	1.36283e-05	2.35589e-05	2744.69
2155.69	1.96946	0.788167	2.12131	-21.811	7.12167	0.254289	0.0973969	93.6733	12.9313	1	9	0.00490208	0.00231087	0	0.000110377	0.43766	0.175149	0.471406	21.811	12931.3	32312.5	34804	-68.189	0.0000000E+000	0.0000000E+000	0.0000000E+000	68.189	0.0000000E+000	0.0000000E+000	0.0000000E+000	-68.189	0.0000000E+000	0.0000000E+000	0.0000000E+000	-21.811	0.0000000E+000	0.0000000E+000	0.0000000E+000	21.811	2.49878	68.189	9.31327e-06	2.4767e-05	2610.85
1000.32	2.28333	1.17308	2.56705	-27.1922	8.0577	0.254286	0.0926097	135.629	28.3231	1	9	0.00483616	0.00188394	0	0.000132573	0.346499	0.178016	0.389552	27.1922	28323.1	55129.3	61979.4	-62.8078	0.0000000E+000	0.0000000E+000	0.0000000E+000	62.8078	0.0000000E+000	0.0000000E+000	0.0000000E+000	-62.8078	0.0000000E+000	0.0000000E+000	0.0000000E+000	-27.1922	0.0000000E+000	0.0000000E+000	0.0000000E+000	27.1922	1.94644	62.8078	1.25063e-05	2.35493e-05	2745.78
463.961	2.81845	1.85567	3.37449	-33.361	9.24622	0.254271	-0.0197308	184.858	55.9017	1	10	0.00488139	0.00144656	0	0.000146459	0.247511	0.162962	0.296341	33.361	55901.7	84905	101656	-56.639	0.0000000E+000	0.0000000E+000	0.0000000E+000	56.639	0.0000000E+000	0.0000000E+000	0.0000000E+000	-56.639	0.0000000E+000	0.0000000E+000	0.0000000E+000	-33.361	0.0000000E+000	0.0000000E+000	0.0000000E+000	33.361	1.51883	56.639	1.26982e-06	-5.01698e-06	12887
215.345	3.83992	2.88961	4.80571	-36.9621	10.1804	0.254267	-0.0207055	255.768	92.4722	1	10	0.00483452	0.001006	0	0.000143224	0.166268	0.125119	0.208086	36.9621	92472.2	122884	153790	-53.0379	0.0000000E+000	0.0000000E+000	0.0000000E+000	53.0379	0.0000000E+000	0.0000000E+000	0.0000000E+000	-53.0379	0.0000000E+000	0.0000000E+000	0.0000000E+000	-36.9621	0.0000000E+000	0.0000000E+000	0.0000000E+000	36.9621	1.32887	53.0379	-1.59466e-06	-5.26471e-06	12280.2
100.032	5.72863	3.94462	6.95538	-34.5505	11.1117	0.254268	-0.020562	403.344	129.731	1	10	0.00480161	0.000690345	0	0.000137071	0.118416	0.0815388	0.143774	34.5505	129731	188404	228750	-55.4495	0.0000000E+000	0.0000000E+000	0.0000000E+000	55.4495	0.0000000E+000	0.0000000E+000	0.0000000E+000	-55.4495	0.0000000E+000	0.0000000E+000	0.0000000E+000	-34.5505	0.0000000E+000	0.0000000E+000	0.0000000E+000	34.5505	1.45226	55.4495	-3.13144e-06	-5.22825e-06	12365.9
46.4415	8.45021	4.1983	9.43566	-26.4195	12.0455	0.254268	-0.023441	816.282	161.6	1	10	0.00481057	0.000509829	0	0.000131517	0.0949124	0.0471551	0.105981	26.4195	161600	325264	363196	-63.5805	0.0000000E+000	0.0000000E+000	0.0000000E+000	63.5805	0.0000000E+000	0.0000000E+000	0.0000000E+000	-63.5805	0.0000000E+000	0.0000000E+000	0.0000000E+000	-26.4195	0.0000000E+000	0.0000000E+000	0.0000000E+000	26.4195	2.01277	63.5805	-3.01016e-06	-5.96031e-06	10847.1
[...]
1.00006	13.4007	0.846327	13.4274	-3.61374	20.3291	0.254317	-0.00722409	188042	747.047	1	11	0.00481375	0.000358503	0	9.502e-05	0.0743266	0.00469413	0.0744747	3.61374	747047	1.18287e+07	1.18523e+07	-86.3863	0.0000000E+000	0.0000000E+000	0.0000000E+000	86.3863	0.0000000E+000	0.0000000E+000	0.0000000E+000	-86.3863	0.0000000E+000	0.0000000E+000	0.0000000E+000	-3.61374	0.0000000E+000	0.0000000E+000	0.0000000E+000	3.61374	15.8339	86.3863	-9.35579e-06	-1.83721e-06	35204
0.464091	13.7223	0.846059	13.7484	-3.52815	28.0139	0.254314	-0.00745831	405337	1535.03	1	11	0.00481513	0.000350233	0	0.000106221	0.0725981	0.00447609	0.0727359	3.52815	1.53503e+06	2.48967e+07	2.4944e+07	-86.4718	0.0000000E+000	0.0000000E+000	0.0000000E+000	86.4718	0.0000000E+000	0.0000000E+000	0.0000000E+000	-86.4718	0.0000000E+000	0.0000000E+000	0.0000000E+000	-3.52815	0.0000000E+000	0.0000000E+000	0.0000000E+000	3.52815	16.2191	86.4718	1.19999e-05	-1.89675e-06	34098.1
0.215268	14.051	0.974903	14.0847	-3.96902	44.4939	0.254316	-0.00343368	758367	3633.33	1	11	0.00481549	0.000341894	0	0.000136705	0.0708286	0.00491433	0.0709989	3.96902	3.63333e+06	5.2366e+07	5.24919e+07	-86.031	0.0000000E+000	0.0000000E+000	0.0000000E+000	86.031	0.0000000E+000	0.0000000E+000	0.0000000E+000	-86.031	0.0000000E+000	0.0000000E+000	0.0000000E+000	-3.96902	0.0000000E+000	0.0000000E+000	0.0000000E+000	3.96902	14.4127	86.031	1.15405e-05	-8.7324e-07	74065
0.0999041	14.3799	1.43435	14.4513	-5.69622	79.901	0.254311	0.000418576	1.11066e+06	10941.6	1	11	0.00481507	0.000333194	0	5.24424e-05	0.0688565	0.0068682	0.0691982	5.69622	1.09416e+07	1.09694e+08	1.10238e+08	-84.3038	0.0000000E+000	0.0000000E+000	0.0000000E+000	84.3038	0.0000000E+000	0.0000000E+000	0.0000000E+000	-84.3038	0.0000000E+000	0.0000000E+000	0.0000000E+000	-5.69622	0.0000000E+000	0.0000000E+000	0.0000000E+000	5.69622	10.0254	84.3038	-6.78289e-05	1.06449e-07	607563
0.0464052	14.8549	2.37754	15.044	-9.0931	156.137	0.254316	-0.00153232	1.44253e+06	36029.3	1	11	0.00481515	0.000320071	0	-0.000253651	0.0656364	0.0105052	0.0664718	9.0931	3.60293e+07	2.25112e+08	2.27977e+08	-80.9069	0.0000000E+000	0.0000000E+000	0.0000000E+000	80.9069	0.0000000E+000	0.0000000E+000	0.0000000E+000	-80.9069	0.0000000E+000	0.0000000E+000	0.0000000E+000	-9.0931	0.0000000E+000	0.0000000E+000	0.0000000E+000	9.0931	6.24802	80.9069	-0.000184711	-3.89693e-07	165968
0.0215268	15.6024	4.40338	16.2119	-15.7604	366.922	0.254309	-0.00242269	1.67902e+06	123868	1	12	0.00481202	0.000296821	0	-0.00039385	0.0593643	0.016754	0.0616832	15.7604	1.23868e+08	4.38901e+08	4.56045e+08	-74.2396	0.0000000E+000	0.0000000E+000	0.0000000E+000	74.2396	0.0000000E+000	0.0000000E+000	0.0000000E+000	-74.2396	0.0000000E+000	0.0000000E+000	0.0000000E+000	-15.7604	0.0000000E+000	0.0000000E+000	0.0000000E+000	15.7604	3.54328	74.2396	1.07874e-05	-6.16113e-07	104970
0.0100092	17.0307	7.7705	18.7197	-24.5255	720.138	0.254307	-0.00103182	2.04632e+06	352593	1	12	0.0048121	0.000257061	0	0.000669646	0.0486	0.0221744	0.0534197	24.5255	3.52593e+08	7.72784e+08	8.49422e+08	-65.4745	0.0000000E+000	0.0000000E+000	0.0000000E+000	65.4745	0.0000000E+000	0.0000000E+000	0.0000000E+000	-65.4745	0.0000000E+000	0.0000000E+000	0.0000000E+000	-24.5255	0.0000000E+000	0.0000000E+000	0.0000000E+000	24.5255	2.19172	65.4745	0.00067343	-2.624e-07	246464

File: 17487_R279_UA654_SOC00_C05.mpt
EC-Lab ASCII FILE
Nb header lines : 63

Potentio Electrochemical Impedance Spectroscopy

Run on channel : 5 (SN 65912)
User :
CE vs. WE compliance from -10 V to 10 V
Electrode connection : standard
Potential control : Ewe
Ewe ctrl range : min = -10.00 V, max = 10.00 V
Safety Limits :
	Do not start on E overload
Acquisition started on : 09/15/2025 08:59:45.599
Loaded Setting File :  C:\Users\Celltest\OneDrive - store-dot.com\Documents\EC-Lab\Data\Charmaine\R279\17382_C01.mpr
Saved on :
	File : 17487_C05.mpr
	Directory : C:\Users\Celltest\OneDrive - store-dot.com\Documents\EC-Lab\Data\Charmaine\R279\
	Host : 169.254.61.224
Device : VMP-3e (SN .003165)
Address : USB
EC-LAB for windows v11.62 (software)
Internet server v27.00 (firmware)
Command interpretor v12.03 (firmware)
Electrode material :
Initial state :
Electrolyte :
Comments :
Electrode surface area : 0.001 cm²
Characteristic mass : 0.001 g
Equivalent Weight : 0.000 g/eq.
Density : 0.000 g/cm3
Volume (V) : 0.001 cm³
Cycle Definition : Charge/Discharge alternance
Mode                Single sine
E (V)               0.0000
vs.                 Eoc
tE (h:m:s)          0:00:0.0000
record              0
dI                  0.000
unit dI             mA
dt (s)              0.000
fi                  100.000
unit fi             kHz
ff                  10.000
unit ff             mHz
Nd                  6
Points              per decade
spacing             Logarithmic
Va (mV)             5.0
pw                  0.10
Na                  2
corr                0
E range min (V)     -10.000
E range max (V)     10.000
I Range             Auto
Bandwidth           5
nc cycles           0
goto Ns'            0
nr cycles           0
inc. cycle          0

freq/Hz	Re(Z)/Ohm	-Im(Z)/Ohm	|Z|/Ohm	Phase(Z)/deg	time/s	<Ewe>/V	<I>/mA	Cs/µF	Cp/µF	cycle number	I Range	|Ewe|/V	|I|/A	Ns	(Q-Qo)/mA.h	Re(Y)/Ohm-1	Im(Y)/Ohm-1	|Y|/Ohm-1	Phase(Y)/deg	Re(C)/nF	Im(C)/nF	|C|/nF	Phase(C)/deg	Re(M)	Im(M)	|M|	Phase(M)/deg	Re(Permittivity)	Im(Permittivity)	|Permittivity|	Phase(Permittivity)/deg	Re(Resistivity)/Ohm.cm	Im(Resistivity)/Ohm.cm	|Resistivity|/Ohm.cm	Phase(Resistivity)/deg	Re(Conductivity)/mS/cm	Im(Conductivity)/mS/cm	|Conductivity|/mS/cm	Phase(Conductivity)/deg	Tan(Delta)	Loss Angle(Delta)/deg	dq/mA.h	Pwe/W	Rwe/Ohm
100004	1.4818	0.289319	1.50978	-11.0479	2.06648	0.28173	-0.0235198	5.50082	0.202001	1	9	0.00459619	0.00304428	0	-4.66007e-07	0.650073	0.126925	0.662348	11.0479	202.001	1034.58	1054.12	-78.9521	0.0000000E+000	0.0000000E+000	0.0000000E+000	78.9521	0.0000000E+000	0.0000000E+000	0.0000000E+000	-78.9521	0.0000000E+000	0.0000000E+000	0.0000000E+000	-11.0479	0.0000000E+000	0.0000000E+000	0.0000000E+000	11.0479	5.12169	78.9521	-4.66007e-07	-6.62623e-06	11978.4
46420.4	1.63067	0.373761	1.67296	-12.9096	3.22247	0.281716	-0.0280259	9.17313	0.457865	1	9	0.00508629	0.0030403	0	-3.17274e-06	0.582636	0.133544	0.597744	12.9096	457.865	1997.6	2049.4	-77.0904	0.0000000E+000	0.0000000E+000	0.0000000E+000	77.0904	0.0000000E+000	0.0000000E+000	0.0000000E+000	-77.0904	0.0000000E+000	0.0000000E+000	0.0000000E+000	-12.9096	0.0000000E+000	0.0000000E+000	0.0000000E+000	12.9096	4.36286	77.0904	-4.29751e-06	-7.89533e-06	10052
21544.7	1.81985	0.493279	1.88552	-15.1659	4.23748	0.28173	-0.0244322	14.9757	1.02497	1	9	0.00512048	0.00271569	0	-1.24772e-06	0.511887	0.13875	0.530359	15.1659	1024.97	3781.42	3917.87	-74.8341	0.0000000E+000	0.0000000E+000	0.0000000E+000	74.8341	0.0000000E+000	0.0000000E+000	0.0000000E+000	-74.8341	0.0000000E+000	0.0000000E+000	0.0000000E+000	-15.1659	0.0000000E+000	0.0000000E+000	0.0000000E+000	15.1659	3.68929	74.8341	-1.52354e-06	-6.88328e-06	11531.1
10002.2	2.06586	0.637888	2.1621	-17.1594	4.82948	0.281724	-0.0289941	24.9447	2.17128	1	9	0.00479784	0.00221906	0	-4.09202e-06	0.441925	0.136456	0.462513	17.1594	2171.28	7031.9	7359.49	-72.8406	0.0000000E+000	0.0000000E+000	0.0000000E+000	72.8406	0.0000000E+000	0.0000000E+000	0.0000000E+000	-72.8406	0.0000000E+000	0.0000000E+000	0.0000000E+000	-17.1594	0.0000000E+000	0.0000000E+000	0.0000000E+000	17.1594	3.23859	72.8406	-3.00411e-06	-8.16832e-06	9716.58
4641.49	2.38083	0.845131	2.52638	-19.5435	5.67871	0.281764	0.0227134	40.5732	4.54036	1	9	0.00453919	0.00179672	0	-9.97919e-06	0.373019	0.132412	0.395824	19.5435	4540.36	12790.7	13572.7	-70.4565	0.0000000E+000	0.0000000E+000	0.0000000E+000	70.4565	0.0000000E+000	0.0000000E+000	0.0000000E+000	-70.4565	0.0000000E+000	0.0000000E+000	0.0000000E+000	-19.5435	0.0000000E+000	0.0000000E+000	0.0000000E+000	19.5435	2.81711	70.4565	2.52087e-06	6.3998e-06	12405.2
2155.69	2.76775	1.13169	2.99018	-22.2389	6.8357	0.281763	0.0236257	65.239	9.34474	1	9	0.00495263	0.0016563	0	-6.72182e-06	0.309552	0.126571	0.334429	22.2389	9344.73	22854.3	24690.9	-67.7611	0.0000000E+000	0.0000000E+000	0.0000000E+000	67.7611	0.0000000E+000	0.0000000E+000	0.0000000E+000	-67.7611	0.0000000E+000	0.0000000E+000	0.0000000E+000	-22.2389	0.0000000E+000	0.0000000E+000	0.0000000E+000	22.2389	2.44568	67.7611	1.46197e-06	6.65685e-06	11926.1
1000.32	3.21581	1.59227	3.58842	-26.3417	8.02568	0.281718	-0.00908911	99.923	19.6739	1	10	0.00500856	0.00139576	0	-5.11023e-06	0.249738	0.123654	0.278674	26.3417	19673.9	39734.3	44338.2	-63.6583	0.0000000E+000	0.0000000E+000	0.0000000E+000	63.6583	0.0000000E+000	0.0000000E+000	0.0000000E+000	-63.6583	0.0000000E+000	0.0000000E+000	0.0000000E+000	-26.3417	0.0000000E+000	0.0000000E+000	0.0000000E+000	26.3417	2.01964	63.6583	-1.36659e-06	-2.56056e-06	30995.1
463.961	3.85849	2.43409	4.5621	-32.2454	8.96022	0.281713	-0.00883405	140.929	40.1186	1	10	0.00494251	0.00108338	0	-7.35976e-06	0.185391	0.116952	0.219197	32.2454	40118.6	63595.5	75192.4	-57.7546	0.0000000E+000	0.0000000E+000	0.0000000E+000	57.7546	0.0000000E+000	0.0000000E+000	0.0000000E+000	-57.7546	0.0000000E+000	0.0000000E+000	0.0000000E+000	-32.2454	0.0000000E+000	0.0000000E+000	0.0000000E+000	32.2454	1.58519	57.7546	-1.32514e-06	-2.48866e-06	31889.4
215.345	4.95908	3.89146	6.30364	-38.1218	9.89444	0.281707	-0.00963833	189.921	72.3795	1	10	0.00490708	0.000778451	0	-1.05894e-05	0.124801	0.0979331	0.158638	38.1218	72379.5	92236.8	117245	-51.8782	0.0000000E+000	0.0000000E+000	0.0000000E+000	51.8782	0.0000000E+000	0.0000000E+000	0.0000000E+000	-51.8782	0.0000000E+000	0.0000000E+000	0.0000000E+000	-38.1218	0.0000000E+000	0.0000000E+000	0.0000000E+000	38.1218	1.27435	51.8782	-1.51816e-06	-2.71518e-06	29227.7
100.032	7.12578	6.00893	9.32115	-40.1398	10.8257	0.281709	-0.00919339	264.779	110.037	1	10	0.00488521	0.000524099	0	-1.19073e-05	0.0820149	0.0691604	0.107283	40.1398	110037	130489	170691	-49.8602	0.0000000E+000	0.0000000E+000	0.0000000E+000	49.8602	0.0000000E+000	0.0000000E+000	0.0000000E+000	-49.8602	0.0000000E+000	0.0000000E+000	0.0000000E+000	-40.1398	0.0000000E+000	0.0000000E+000	0.0000000E+000	40.1398	1.18586	49.8602	-5.89235e-07	-2.58986e-06	30642.6
46.4415	11.092	8.15785	13.7689	-36.3335	11.7596	0.281707	-0.011016	420.086	147.466	1	10	0.00488449	0.000354748	0	-1.35807e-05	0.0585074	0.0430306	0.0726274	36.3335	147466	200505	248894	-53.6665	0.0000000E+000	0.0000000E+000	0.0000000E+000	53.6665	0.0000000E+000	0.0000000E+000	0.0000000E+000	-53.6665	0.0000000E+000	0.0000000E+000	0.0000000E+000	-36.3335	0.0000000E+000	0.0000000E+000	0.0000000E+000	36.3335	1.35967	53.6666	-1.0115e-06	-3.10328e-06	25572.5
[...]
1.00006	26.9065	2.89052	27.0613	-6.13168	21.0802	0.281742	-0.00167246	55057.5	628.161	1	12	0.00488397	0.000180478	0	-2.4329e-05	0.0367417	0.0039471	0.0369531	6.13168	628161	5.84726e+06	5.8809e+06	-83.8683	0.0000000E+000	0.0000000E+000	0.0000000E+000	83.8683	0.0000000E+000	0.0000000E+000	0.0000000E+000	-83.8683	0.0000000E+000	0.0000000E+000	0.0000000E+000	-6.13168	0.0000000E+000	0.0000000E+000	0.0000000E+000	6.13168	9.30853	83.8683	8.19396e-07	-4.71203e-07	168460
0.464091	28.1104	2.76548	28.2461	-5.61865	28.7626	0.281744	-0.00152413	124007	1188.7	1	12	0.00488623	0.000172988	0	-9.83155e-06	0.0352331	0.00346621	0.0354032	5.61865	1.1887e+06	1.20828e+07	1.21411e+07	-84.3813	0.0000000E+000	0.0000000E+000	0.0000000E+000	84.3813	0.0000000E+000	0.0000000E+000	0.0000000E+000	-84.3813	0.0000000E+000	0.0000000E+000	0.0000000E+000	-5.61865	0.0000000E+000	0.0000000E+000	0.0000000E+000	5.61865	10.1647	84.3813	7.76144e-06	-4.29414e-07	184855
0.215268	29.4138	2.88218	29.5546	-5.5964	45.2418	0.281746	-0.000443031	256519	2439.55	1	12	0.00488573	0.000165312	0	-2.03904e-05	0.0336744	0.00329966	0.0338356	5.5964	2.43955e+06	2.48966e+07	2.50159e+07	-84.4036	0.0000000E+000	0.0000000E+000	0.0000000E+000	84.4036	0.0000000E+000	0.0000000E+000	0.0000000E+000	-84.4036	0.0000000E+000	0.0000000E+000	0.0000000E+000	-5.5964	0.0000000E+000	0.0000000E+000	0.0000000E+000	5.5964	10.2054	84.4036	-1.21626e-05	-1.24822e-07	635951
0.0999041	30.6742	3.12046	30.8325	-5.80867	80.6473	0.281748	-0.000663051	510527	5229.23	1	12	0.00488491	0.000158434	0	-9.79424e-05	0.0322668	0.00328247	0.0324333	5.80867	5.22923e+06	5.14034e+07	5.16687e+07	-84.1913	0.0000000E+000	0.0000000E+000	0.0000000E+000	84.1913	0.0000000E+000	0.0000000E+000	0.0000000E+000	-84.1913	0.0000000E+000	0.0000000E+000	0.0000000E+000	-5.80867	0.0000000E+000	0.0000000E+000	0.0000000E+000	5.80867	9.83003	84.1913	-4.68215e-05	-1.86813e-07	424926
0.0464052	31.9872	4.01804	32.2386	-7.15965	156.884	0.281748	-0.00226484	853570	13259.2	1	12	0.00488516	0.000151532	0	-0.000181174	0.0307769	0.003866	0.0310187	7.15965	1.32592e+07	1.05555e+08	1.06384e+08	-82.8403	0.0000000E+000	0.0000000E+000	0.0000000E+000	82.8403	0.0000000E+000	0.0000000E+000	0.0000000E+000	-82.8403	0.0000000E+000	0.0000000E+000	0.0000000E+000	-7.15965	0.0000000E+000	0.0000000E+000	0.0000000E+000	7.15965	7.9609	82.8403	-3.15318e-05	-6.38114e-07	124401
0.0215268	33.3141	6.0902	33.8662	-10.3599	321.114	0.281748	-0.00211946	1.21397e+06	39259.1	1	12	0.00488546	0.000144258	0	-2.93637e-05	0.0290466	0.00531006	0.029528	10.3599	3.92591e+07	2.14752e+08	2.18311e+08	-79.6401	0.0000000E+000	0.0000000E+000	0.0000000E+000	79.6401	0.0000000E+000	0.0000000E+000	0.0000000E+000	-79.6401	0.0000000E+000	0.0000000E+000	0.0000000E+000	-10.3599	0.0000000E+000	0.0000000E+000	0.0000000E+000	10.3599	5.47011	79.6401	0.000121413	-5.97154e-07	132934
0.0100092	35.6903	10.2161	37.1237	-15.9735	674.33	0.281755	-0.000557439	1.55645e+06	117871	1	12	0.00488683	0.000131636	0	0.000313511	0.0258969	0.00741285	0.026937	15.9735	1.17871e+08	4.11785e+08	4.28323e+08	-74.0265	0.0000000E+000	0.0000000E+000	0.0000000E+000	74.0265	0.0000000E+000	0.0000000E+000	0.0000000E+000	-74.0265	0.0000000E+000	0.0000000E+000	0.0000000E+000	-15.9735	0.0000000E+000	0.0000000E+000	0.0000000E+000	15.9735	3.49352	74.0265	0.000149841	-1.57061e-07	505446