Folder: EIS/txt (part 166)

File: 19143_R306_UA710_SOC00_C07.mpt
EC-Lab ASCII FILE
Nb header lines : 65

Potentio Electrochemical Impedance Spectroscopy

Run on channel : 7 (SN 66126)
Grouped channel(s) : 6, 7, 8
User :
CE vs. WE compliance from -10 V to 10 V
Electrode connection : standard
Potential control : Ewe
Ewe ctrl range : min = -10.00 V, max = 10.00 V
Safety Limits :
	Do not start on E overload
Acquisition started on : 11/12/2025 11:20:50.497
Loaded Setting File :  C:\Users\Celltest\OneDrive - store-dot.com\Documents\EC-Lab\Data\@Biologic Test Protocols\anode half cell EIS SOC00.mps
Saved on :
	File : 19142_R306_UA710_SOC00_C07.mpr
	Directory : C:\Users\Celltest\OneDrive - store-dot.com\Documents\EC-Lab\Data\Charmaine\
	Host : 169.254.61.224
Device : VMP-3e (SN .003165)
Address : USB
EC-LAB for windows v11.62 (software)
Internet server v27.00 (firmware)
Command interpretor v12.03 (firmware)
Electrode material :
Initial state :
Electrolyte :
Comments :
Electrode surface area : 0.001 cm²
Characteristic mass : 0.001 g
Equivalent Weight : 0.000 g/eq.
Density : 0.000 g/cm3
Volume (V) : 0.001 cm³
Record Ece
Cycle Definition : Charge/Discharge alternance
Mode                Single sine
E (V)               0.0000
vs.                 Eoc
tE (h:m:s)          0:00:0.0000
record              0
dI                  0.000
unit dI             mA
dt (s)              0.000
fi                  100.000
unit fi             kHz
ff                  10.000
unit ff             mHz
Nd                  6
Points              per decade
spacing             Logarithmic
Va (mV)             5.0
pw                  0.10
Na                  2
corr                0
E range min (V)     -10.000
E range max (V)     10.000
I Range             Auto
Bandwidth           5
nc cycles           0
goto Ns'            0
nr cycles           0
inc. cycle          0

freq/Hz	Re(Z)/Ohm	-Im(Z)/Ohm	|Z|/Ohm	Phase(Z)/deg	time/s	<Ewe>/V	<I>/mA	Cs/µF	Cp/µF	cycle number	I Range	|Ewe|/V	|I|/A	Ns	(Q-Qo)/mA.h	<Ece>/V	|Ece|/V	Phase(Zce)/deg	|Zce|/Ohm	Re(Zce)/Ohm	-Im(Zce)/Ohm	Phase(Zwe-ce)/deg	|Zwe-ce|/Ohm	Re(Zwe-ce)/Ohm	-Im(Zwe-ce)/Ohm	Re(Y)/Ohm-1	Im(Y)/Ohm-1	|Y|/Ohm-1	Phase(Y)/deg	Re(C)/nF	Im(C)/nF	|C|/nF	Phase(C)/deg	Re(M)	Im(M)	|M|	Phase(M)/deg	Re(Permittivity)	Im(Permittivity)	|Permittivity|	Phase(Permittivity)/deg	Re(Resistivity)/Ohm.cm	Im(Resistivity)/Ohm.cm	|Resistivity|/Ohm.cm	Phase(Resistivity)/deg	Re(Conductivity)/mS/cm	Im(Conductivity)/mS/cm	|Conductivity|/mS/cm	Phase(Conductivity)/deg	Tan(Delta)	Loss Angle(Delta)/deg	dq/mA.h	Pwe/W	Pce/W	Pwe-ce/W	<Ewe-Ece>/V	Rwe/Ohm	Rce/Ohm	Rwe-ce/Ohm		Ewe-Ece/V
100004	1.69792	1.16877	2.0613	-34.5418	1.76852	0.184755	0.0499409	1.36168	0.437776	1	9	0.00474555	0.00230221	0	7.57992e-06	-0.000234939	4.41781e-05	92.4107	0.0191894	-0.000807162	-0.0191724	-34.1131	2.04982	1.69711	1.1496	0.399609	0.275073	0.485131	34.5418	437.776	635.974	772.082	-55.4582	0.0000000E+000	0.0000000E+000	0.0000000E+000	55.4582	0.0000000E+000	0.0000000E+000	0.0000000E+000	-55.4582	0.0000000E+000	0.0000000E+000	0.0000000E+000	-34.5418	0.0000000E+000	0.0000000E+000	0.0000000E+000	34.5418	1.45274	55.4582	7.57992e-06	9.22683e-06	-1.1733e-08	9.23857e-06	0.18499	3699.48	4.70434	3704.18
31621.1	2.87755	1.74348	3.36452	-31.2112	3.16552	0.184779	0.0545954	2.88686	0.775197	1	9	0.0053739	0.00159723	0	1.79808e-05	-0.000139562	1.22296e-05	-57.5752	0.00765677	0.0041055	0.00646305	-31.269	3.37139	2.88166	1.74994	0.2542	0.154017	0.297219	31.2112	775.197	1279.44	1495.96	-58.7888	0.0000000E+000	0.0000000E+000	0.0000000E+000	58.7888	0.0000000E+000	0.0000000E+000	0.0000000E+000	-58.7888	0.0000000E+000	0.0000000E+000	0.0000000E+000	-31.2112	0.0000000E+000	0.0000000E+000	0.0000000E+000	31.2112	1.65047	58.7888	5.85371e-06	1.00881e-05	-7.61942e-09	1.00957e-05	0.184919	3384.52	2.55629	3387.08
10002.2	4.34708	2.02188	4.79428	-24.9438	4.34652	0.184771	-0.0110223	7.86986	1.3997	1	10	0.00462172	0.000964007	0	2.62441e-05	-0.000158637	5.24632e-06	-108.467	0.0054422	-0.00172388	0.00516196	-25.0084	4.79489	4.34535	2.02705	0.189126	0.0879651	0.208582	24.9438	1399.7	3009.36	3318.95	-65.0562	0.0000000E+000	0.0000000E+000	0.0000000E+000	65.0562	0.0000000E+000	0.0000000E+000	0.0000000E+000	-65.0562	0.0000000E+000	0.0000000E+000	0.0000000E+000	-24.9438	0.0000000E+000	0.0000000E+000	0.0000000E+000	24.9438	2.15001	65.0562	1.66674e-06	-2.0366e-06	1.74855e-09	-2.03835e-06	0.184929	16763.3	14.3923	16777.7
3163.08	5.6989	2.41427	6.1892	-22.9594	5.24361	0.184626	-0.0135575	20.8413	3.17123	1	10	0.00450551	0.000727963	0	2.29768e-05	-4.41845e-05	5.4175e-06	0.307242	0.007442	0.00744189	-3.99067e-05	-22.9322	6.19604	5.70634	2.41423	0.148772	0.0630256	0.161572	22.9594	3171.23	7485.7	8129.72	-67.0406	0.0000000E+000	0.0000000E+000	0.0000000E+000	67.0406	0.0000000E+000	0.0000000E+000	0.0000000E+000	-67.0406	0.0000000E+000	0.0000000E+000	0.0000000E+000	-22.9594	0.0000000E+000	0.0000000E+000	0.0000000E+000	22.9594	2.36051	67.0406	-1.26868e-06	-2.50308e-06	5.99033e-10	-2.50368e-06	0.184671	13618	3.25904	13621.2
1000.32	7.16098	3.84319	8.1271	-28.2218	6.81178	0.184646	-0.00158515	41.3989	9.25768	1	10	0.00489671	0.000602516	0	2.15586e-05	3.21172e-05	8.24298e-06	11.9237	0.0136809	0.0133857	-0.0028266	-28.1597	8.13756	7.17436	3.84036	0.108418	0.0581864	0.123045	28.2218	9257.68	17249.7	19577	-61.7782	0.0000000E+000	0.0000000E+000	0.0000000E+000	61.7782	0.0000000E+000	0.0000000E+000	0.0000000E+000	-61.7782	0.0000000E+000	0.0000000E+000	0.0000000E+000	-28.2218	0.0000000E+000	0.0000000E+000	0.0000000E+000	28.2218	1.86329	61.7782	-6.65459e-07	-2.92693e-07	-5.09106e-11	-2.92642e-07	0.184614	116485	20.2612	116465
316.316	10.1069	7.6134	12.6536	-36.9903	8.16107	0.184649	-0.00152187	66.0877	23.925	1	10	0.00486477	0.000384458	0	2.13159e-05	-0.000196788	6.1462e-06	56.2395	0.0159867	0.00888414	-0.0132908	-36.9181	12.6527	10.1158	7.60011	0.0631235	0.0475503	0.0790291	36.9903	23925	31760.7	39763.6	-53.0097	0.0000000E+000	0.0000000E+000	0.0000000E+000	53.0097	0.0000000E+000	0.0000000E+000	0.0000000E+000	-53.0097	0.0000000E+000	0.0000000E+000	0.0000000E+000	-36.9903	0.0000000E+000	0.0000000E+000	0.0000000E+000	36.9903	1.32751	53.0097	-4.61313e-07	-2.81013e-07	2.99486e-10	-2.81312e-07	0.184846	121330	129.306	121460
100.032	18.6738	13.3009	22.9265	-35.4613	9.75286	0.184699	-0.00479593	119.619	40.2611	1	11	0.00486498	0.000212199	0	1.96393e-05	-0.000215863	5.29038e-06	59.8303	0.0249313	0.0125295	-0.0215541	-35.3992	22.9242	18.6864	13.2793	0.0355269	0.0253049	0.0436176	35.4613	40261.1	56524.7	69397.4	-54.5387	0.0000000E+000	0.0000000E+000	0.0000000E+000	54.5387	0.0000000E+000	0.0000000E+000	0.0000000E+000	-54.5387	0.0000000E+000	0.0000000E+000	0.0000000E+000	-35.4613	0.0000000E+000	0.0000000E+000	0.0000000E+000	35.4613	1.40395	54.5387	-5.96503e-07	-8.85802e-07	1.03526e-09	-8.86837e-07	0.184915	38511.6	45.0097	38556.6
[...]
1.00006	41.3636	2.39019	41.4326	-3.30715	19.2516	0.184719	-0.0025074	66582.5	221.585	1	12	0.00484546	0.000116948	0	9.59938e-06	1.30418e-05	1.99692e-06	-69.3164	0.0170752	0.0060311	0.0159746	-3.32872	41.4395	41.3696	2.40616	0.0240954	0.00139235	0.0241356	3.30715	221585	3.83466e+06	3.84105e+06	-86.6928	0.0000000E+000	0.0000000E+000	0.0000000E+000	86.6928	0.0000000E+000	0.0000000E+000	0.0000000E+000	-86.6928	0.0000000E+000	0.0000000E+000	0.0000000E+000	-3.30715	0.0000000E+000	0.0000000E+000	0.0000000E+000	3.30715	17.3056	86.6928	3.57247e-07	-4.63165e-07	-3.27009e-11	-4.63132e-07	0.184706	73669.6	5.2013	73664.4
0.316193	42.7369	3.11406	42.8502	-4.16754	33.597	0.184717	-0.00134095	161637	853.668	1	12	0.00484734	0.000113123	0	1.72721e-05	-0.000215863	2.59396e-06	-30.8507	0.0229304	0.0196859	0.0117588	-4.1813	42.8707	42.7566	3.12581	0.0232754	0.00169598	0.0233371	4.16754	853667	1.17156e+07	1.17467e+07	-85.8325	0.0000000E+000	0.0000000E+000	0.0000000E+000	85.8325	0.0000000E+000	0.0000000E+000	0.0000000E+000	-85.8325	0.0000000E+000	0.0000000E+000	0.0000000E+000	-4.16754	0.0000000E+000	0.0000000E+000	0.0000000E+000	4.16754	13.7239	85.8325	1.35709e-06	-2.47696e-07	2.89462e-10	-2.47986e-07	0.184933	137750	160.978	137911
0.0999041	44.4936	5.45825	44.8271	-6.99381	78.8062	0.184725	-0.000317149	291866	4327.21	1	12	0.00484851	0.00010816	0	-3.94326e-05	-0.00027309	1.97059e-06	-39.283	0.0182192	0.0141022	0.0115355	-7.00625	44.8425	44.5077	5.46979	0.0221419	0.00271626	0.0223079	6.99381	4.32721e+06	3.52738e+07	3.55382e+07	-83.0062	0.0000000E+000	0.0000000E+000	0.0000000E+000	83.0062	0.0000000E+000	0.0000000E+000	0.0000000E+000	-83.0062	0.0000000E+000	0.0000000E+000	0.0000000E+000	-6.99381	0.0000000E+000	0.0000000E+000	0.0000000E+000	6.99381	8.15162	83.0062	-3.19253e-05	-5.85854e-08	8.66101e-11	-5.86721e-08	0.184998	582455	861.076	583316
0.0315922	47.5527	12.1943	49.0913	-14.3829	221.69	0.184727	-0.000979427	413126	25491	1	12	0.00484584	9.87107e-05	0	-8.00436e-05	-4.41845e-05	2.44552e-06	19.1631	0.0247746	0.0234018	-0.00813246	-14.3669	49.112	47.5761	12.1862	0.0197317	0.00505996	0.0203702	14.3829	2.5491e+07	9.94044e+07	1.02621e+08	-75.6171	0.0000000E+000	0.0000000E+000	0.0000000E+000	75.6171	0.0000000E+000	0.0000000E+000	0.0000000E+000	-75.6171	0.0000000E+000	0.0000000E+000	0.0000000E+000	-14.3829	0.0000000E+000	0.0000000E+000	0.0000000E+000	14.3829	3.89958	75.6171	2.38141e-05	-1.80927e-07	4.32755e-11	-1.8097e-07	0.184772	188608	45.1126	188653
0.0100092	55.1853	28.1302	61.9413	-27.0098	672.913	0.184728	0.000179403	565261	116583	1	12	0.00484737	7.82575e-05	0	0.000296725	-0.000139562	3.33601e-06	-14.9388	0.0426286	0.0411879	0.0109891	-27.0016	61.983	55.2264	28.1412	0.0143834	0.00733184	0.0161443	27.0098	1.16583e+08	2.2871e+08	2.5671e+08	-62.9902	0.0000000E+000	0.0000000E+000	0.0000000E+000	62.9902	0.0000000E+000	0.0000000E+000	0.0000000E+000	-62.9902	0.0000000E+000	0.0000000E+000	0.0000000E+000	-27.0098	0.0000000E+000	0.0000000E+000	0.0000000E+000	27.0098	1.96178	62.9902	0.000115837	3.31408e-08	-2.50377e-11	3.31658e-08	0.184868	1.02969e+06	777.924	1.03046e+06

File: 19144_R306_UA710_SOC00_C08.mpt
EC-Lab ASCII FILE
Nb header lines : 65

Potentio Electrochemical Impedance Spectroscopy

Run on channel : 8 (SN 65398)
Grouped channel(s) : 6, 7, 8
User :
CE vs. WE compliance from -10 V to 10 V
Electrode connection : standard
Potential control : Ewe
Ewe ctrl range : min = -10.00 V, max = 10.00 V
Safety Limits :
	Do not start on E overload
Acquisition started on : 11/12/2025 11:20:50.497
Loaded Setting File :  C:\Users\Celltest\OneDrive - store-dot.com\Documents\EC-Lab\Data\@Biologic Test Protocols\anode half cell EIS SOC00.mps
Saved on :
	File : 19142_R306_UA710_SOC00_C08.mpr
	Directory : C:\Users\Celltest\OneDrive - store-dot.com\Documents\EC-Lab\Data\Charmaine\
	Host : 169.254.61.224
Device : VMP-3e (SN .003165)
Address : USB
EC-LAB for windows v11.62 (software)
Internet server v27.00 (firmware)
Command interpretor v12.03 (firmware)
Electrode material :
Initial state :
Electrolyte :
Comments :
Electrode surface area : 0.001 cm²
Characteristic mass : 0.001 g
Equivalent Weight : 0.000 g/eq.
Density : 0.000 g/cm3
Volume (V) : 0.001 cm³
Record Ece
Cycle Definition : Charge/Discharge alternance
Mode                Single sine
E (V)               0.0000
vs.                 Eoc
tE (h:m:s)          0:00:0.0000
record              0
dI                  0.000
unit dI             mA
dt (s)              0.000
fi                  100.000
unit fi             kHz
ff                  10.000
unit ff             mHz
Nd                  6
Points              per decade
spacing             Logarithmic
Va (mV)             5.0
pw                  0.10
Na                  2
corr                0
E range min (V)     -10.000
E range max (V)     10.000
I Range             Auto
Bandwidth           5
nc cycles           0
goto Ns'            0
nr cycles           0
inc. cycle          0

freq/Hz	Re(Z)/Ohm	-Im(Z)/Ohm	|Z|/Ohm	Phase(Z)/deg	time/s	<Ewe>/V	<I>/mA	Cs/µF	Cp/µF	cycle number	I Range	|Ewe|/V	|I|/A	Ns	(Q-Qo)/mA.h	<Ece>/V	|Ece|/V	Phase(Zce)/deg	|Zce|/Ohm	Re(Zce)/Ohm	-Im(Zce)/Ohm	Phase(Zwe-ce)/deg	|Zwe-ce|/Ohm	Re(Zwe-ce)/Ohm	-Im(Zwe-ce)/Ohm	Re(Y)/Ohm-1	Im(Y)/Ohm-1	|Y|/Ohm-1	Phase(Y)/deg	Re(C)/nF	Im(C)/nF	|C|/nF	Phase(C)/deg	Re(M)	Im(M)	|M|	Phase(M)/deg	Re(Permittivity)	Im(Permittivity)	|Permittivity|	Phase(Permittivity)/deg	Re(Resistivity)/Ohm.cm	Im(Resistivity)/Ohm.cm	|Resistivity|/Ohm.cm	Phase(Resistivity)/deg	Re(Conductivity)/mS/cm	Im(Conductivity)/mS/cm	|Conductivity|/mS/cm	Phase(Conductivity)/deg	Tan(Delta)	Loss Angle(Delta)/deg	dq/mA.h	Pwe/W	Pce/W	Pwe-ce/W	<Ewe-Ece>/V	Rwe/Ohm	Rce/Ohm	Rwe-ce/Ohm		Ewe-Ece/V
100004	2.12094	1.07015	2.37563	-26.7737	2.05354	0.184345	0.0229562	1.48717	0.30178	1	9	0.00490076	0.00206293	0	1.40323e-06	-0.000533931	4.92108e-05	56.5821	0.0238548	0.0131378	-0.019911	-26.203	2.37851	2.13408	1.05023	0.375813	0.189621	0.420941	26.7737	301.78	598.103	669.924	-63.2263	0.0000000E+000	0.0000000E+000	0.0000000E+000	63.2263	0.0000000E+000	0.0000000E+000	0.0000000E+000	-63.2263	0.0000000E+000	0.0000000E+000	0.0000000E+000	-26.7737	0.0000000E+000	0.0000000E+000	0.0000000E+000	26.7737	1.98192	63.2263	1.40323e-06	4.23185e-06	-1.2257e-08	4.2441e-06	0.184879	8030.29	23.2587	8053.55
31621.1	3.19902	1.71766	3.63099	-28.2328	3.20156	0.184339	0.017599	2.93026	0.655737	1	9	0.00545851	0.00150331	0	-6.64592e-06	-0.000171257	1.35336e-05	-1.97976	0.00900251	0.00899713	0.000311005	-28.1701	3.63906	3.20802	1.71797	0.242643	0.130283	0.275407	28.2328	655.737	1221.27	1386.17	-61.7672	0.0000000E+000	0.0000000E+000	0.0000000E+000	61.7672	0.0000000E+000	0.0000000E+000	0.0000000E+000	-61.7672	0.0000000E+000	0.0000000E+000	0.0000000E+000	-28.2328	0.0000000E+000	0.0000000E+000	0.0000000E+000	28.2328	1.86243	61.7672	-2.94419e-06	3.24419e-06	-3.01397e-09	3.24721e-06	0.18451	10474.4	9.73107	10484.1
10002.2	4.67679	2.06566	5.11266	-23.8303	4.62954	0.184336	-0.0083585	7.70307	1.25745	1	10	0.0052412	0.00102514	0	-1.98636e-06	7.68873e-05	9.0055e-06	-55.3213	0.00878464	0.00499824	0.0072241	-23.8817	5.12015	4.68179	2.07289	0.178918	0.0790252	0.195593	23.8303	1257.45	2846.93	3112.26	-66.1697	0.0000000E+000	0.0000000E+000	0.0000000E+000	66.1697	0.0000000E+000	0.0000000E+000	0.0000000E+000	-66.1697	0.0000000E+000	0.0000000E+000	0.0000000E+000	-23.8303	0.0000000E+000	0.0000000E+000	0.0000000E+000	23.8303	2.26406	66.1697	-2.34784e-06	-1.54077e-06	-6.42662e-10	-1.54013e-06	0.184259	22053.7	9.19869	22044.5
3163.08	6.07708	2.44963	6.55222	-21.954	5.77861	0.184287	-0.0115279	20.5404	2.871	1	10	0.00516051	0.000787597	0	-7.97272e-06	-9.49052e-05	7.2732e-06	-67.5887	0.00923468	0.00352074	0.00853719	-22.0117	6.55868	6.0806	2.45817	0.141553	0.0570589	0.15262	21.954	2871	7122.43	7679.3	-68.046	0.0000000E+000	0.0000000E+000	0.0000000E+000	68.046	0.0000000E+000	0.0000000E+000	0.0000000E+000	-68.046	0.0000000E+000	0.0000000E+000	0.0000000E+000	-21.954	0.0000000E+000	0.0000000E+000	0.0000000E+000	21.954	2.48081	68.046	-1.46028e-06	-2.12445e-06	1.09406e-09	-2.12554e-06	0.184382	15986.2	8.23264	15994.4
1000.32	7.5601	3.82756	8.47381	-26.8523	7.13184	0.18429	-0.00559086	41.568	8.48097	1	10	0.00502473	0.000592972	0	-1.05141e-05	0.000401384	4.46461e-06	51.6098	0.00752921	0.00467575	-0.00590139	-26.8025	8.47532	7.56478	3.82166	0.105286	0.0533046	0.118011	26.8523	8480.98	16751.4	18776	-63.1477	0.0000000E+000	0.0000000E+000	0.0000000E+000	63.1477	0.0000000E+000	0.0000000E+000	0.0000000E+000	-63.1477	0.0000000E+000	0.0000000E+000	0.0000000E+000	-26.8523	0.0000000E+000	0.0000000E+000	0.0000000E+000	26.8523	1.97518	63.1477	-4.39632e-07	-1.03034e-06	-2.24408e-09	-1.0281e-06	0.183889	32962.8	71.793	32891
316.316	10.4447	7.57023	12.8996	-35.9343	8.48101	0.184286	-0.00611538	66.4645	22.8905	1	10	0.00490905	0.000380558	0	-1.29553e-05	0.000229592	1.07513e-05	-52.7807	0.0282514	0.0170883	0.0224973	-35.9706	12.9267	10.4618	7.59273	0.0627686	0.0454942	0.0775217	35.9343	22890.5	31582.1	39005.2	-54.0657	0.0000000E+000	0.0000000E+000	0.0000000E+000	54.0657	0.0000000E+000	0.0000000E+000	0.0000000E+000	-54.0657	0.0000000E+000	0.0000000E+000	0.0000000E+000	-35.9343	0.0000000E+000	0.0000000E+000	0.0000000E+000	35.9343	1.37971	54.0657	-6.44022e-07	-1.12698e-06	-1.40404e-09	-1.12557e-06	0.184056	30134.8	37.5433	30097.2
100.032	18.9725	13.1381	23.0774	-34.7018	10.0718	0.184317	-0.0039762	121.101	39.25	1	11	0.00489172	0.00021197	0	-1.45524e-05	0.000210504	9.06915e-06	-102.034	0.042785	-0.00892003	0.0418449	-34.7998	23.0939	18.9636	13.1799	0.0356247	0.0246694	0.0433324	34.7018	39250	56680.4	68943.7	-55.2982	0.0000000E+000	0.0000000E+000	0.0000000E+000	55.2982	0.0000000E+000	0.0000000E+000	0.0000000E+000	-55.2982	0.0000000E+000	0.0000000E+000	0.0000000E+000	-34.7018	0.0000000E+000	0.0000000E+000	0.0000000E+000	34.7018	1.44408	55.2982	-7.99717e-07	-7.32883e-07	-8.37005e-10	-7.32046e-07	0.184107	46355.1	52.9409	46302.2
[...]
1.00006	41.511	2.52932	41.588	-3.4868	19.5678	0.184326	-0.00220212	62919.9	232.735	1	12	0.00487162	0.00011714	0	-1.7934e-05	0.000325032	4.82515e-06	9.8315	0.0411912	0.0405863	-0.00703345	-3.47374	41.628	41.5516	2.52229	0.0240009	0.00146241	0.0240454	3.4868	232735	3.81962e+06	3.8267e+06	-86.5132	0.0000000E+000	0.0000000E+000	0.0000000E+000	86.5132	0.0000000E+000	0.0000000E+000	0.0000000E+000	-86.5132	0.0000000E+000	0.0000000E+000	0.0000000E+000	-3.4868	0.0000000E+000	0.0000000E+000	0.0000000E+000	3.4868	16.4119	86.5132	2.04736e-06	-4.05908e-07	-7.1576e-10	-4.05192e-07	0.184001	83703.8	147.599	83556.2
0.316193	42.9554	3.19712	43.0743	-4.2566	33.9108	0.18432	-0.000970808	157438	867.343	1	12	0.00487102	0.000113084	0	-3.42309e-05	-7.58172e-05	2.13283e-06	-6.15417	0.0188605	0.0187518	0.00202192	-4.25743	43.0931	42.9742	3.19914	0.0231517	0.00172315	0.0232157	4.2566	867344	1.16533e+07	1.16856e+07	-85.7434	0.0000000E+000	0.0000000E+000	0.0000000E+000	85.7434	0.0000000E+000	0.0000000E+000	0.0000000E+000	-85.7434	0.0000000E+000	0.0000000E+000	0.0000000E+000	-4.2566	0.0000000E+000	0.0000000E+000	0.0000000E+000	4.2566	13.4357	85.7434	-1.15023e-05	-1.7894e-07	7.36039e-11	-1.79013e-07	0.184396	189863	78.097	189941
0.0999041	44.901	5.5236	45.2395	-7.01314	79.1187	0.184329	-0.00178083	288413	4299.56	1	12	0.00487179	0.000107689	0	-7.62218e-05	0.00024868	3.20839e-06	8.45588	0.0297931	0.0294693	-0.00438102	-7.00308	45.2682	44.9305	5.51922	0.0219392	0.0026989	0.0221046	7.01314	4.29956e+06	3.49509e+07	3.52143e+07	-82.9869	0.0000000E+000	0.0000000E+000	0.0000000E+000	82.9869	0.0000000E+000	0.0000000E+000	0.0000000E+000	-82.9869	0.0000000E+000	0.0000000E+000	0.0000000E+000	-7.01314	0.0000000E+000	0.0000000E+000	0.0000000E+000	7.01314	8.12894	82.9869	-8.05982e-06	-3.28259e-07	-4.42858e-10	-3.27816e-07	0.18408	103507	139.642	103367
0.0315922	47.9928	11.5649	49.3665	-13.5483	222.002	0.184324	-0.000185517	435611	23906.5	1	12	0.00487098	9.86697e-05	0	5.46379e-05	7.68873e-05	2.5577e-06	10.7847	0.0259219	0.025464	-0.00485049	-13.5359	49.3902	48.0183	11.56	0.0196929	0.00474543	0.0202566	13.5483	2.39065e+07	9.9209e+07	1.02049e+08	-76.4517	0.0000000E+000	0.0000000E+000	0.0000000E+000	76.4517	0.0000000E+000	0.0000000E+000	0.0000000E+000	-76.4517	0.0000000E+000	0.0000000E+000	0.0000000E+000	-13.5483	0.0000000E+000	0.0000000E+000	0.0000000E+000	13.5483	4.14987	76.4517	7.32459e-05	-3.41951e-08	-1.42639e-11	-3.41809e-08	0.184247	993568	414.449	993154
0.0100092	55.0783	26.7708	61.2397	-25.922	673.226	0.184328	0.000188184	593966	113506	1	12	0.00487263	7.95665e-05	0	-0.000128724	0.000115063	2.62305e-06	-46.6937	0.0329667	0.0226118	0.0239898	-25.9329	61.2705	55.1009	26.7948	0.0146864	0.00713831	0.0163293	25.922	1.13506e+08	2.33527e+08	2.59651e+08	-64.078	0.0000000E+000	0.0000000E+000	0.0000000E+000	64.078	0.0000000E+000	0.0000000E+000	0.0000000E+000	-64.078	0.0000000E+000	0.0000000E+000	0.0000000E+000	-25.922	0.0000000E+000	0.0000000E+000	0.0000000E+000	25.922	2.05741	64.078	-0.000192834	3.46876e-08	2.16531e-11	3.46659e-08	0.184213	979508	611.44	978896