Folder: EIS/txt (part 134)

File: 18823_R307_UA701_3p84_SOC00_C02.mpt
EC-Lab ASCII FILE
Nb header lines : 65

Potentio Electrochemical Impedance Spectroscopy

Run on channel : 2 (SN 66139)
User :
CE vs. WE compliance from -10 V to 10 V
Electrode connection : standard
Potential control : Ewe
Ewe ctrl range : min = -10.00 V, max = 10.00 V
Safety Limits :
	Do not start on E overload
Acquisition started on : 11/03/2025 17:10:41.622
Technique started on : 11/03/2025 17:10:43.216
Loaded Setting File :  C:\Users\Celltest\OneDrive - store-dot.com\Documents\EC-Lab\Data\@Biologic Test Protocols\anode half cell EIS SOC00.mps
Saved on :
	File : 18823_R307_UA701_3p84_SOC00_C02.mpr
	Directory : C:\Users\Celltest\OneDrive - store-dot.com\Documents\EC-Lab\Data\Anna\
	Host : 169.254.61.224
Device : VMP-3e (SN .003165)
Address : USB
EC-LAB for windows v11.62 (software)
Internet server v27.00 (firmware)
Command interpretor v12.03 (firmware)
Electrode material :
Initial state :
Electrolyte :
Comments :
Electrode surface area : 0.001 cm²
Characteristic mass : 0.001 g
Equivalent Weight : 0.000 g/eq.
Density : 0.000 g/cm3
Volume (V) : 0.001 cm³
Record Ece
Cycle Definition : Charge/Discharge alternance
Mode                Single sine
E (V)               0.0000
vs.                 Eoc
tE (h:m:s)          0:00:0.0000
record              0
dI                  0.000
unit dI             mA
dt (s)              0.000
fi                  100.000
unit fi             kHz
ff                  10.000
unit ff             mHz
Nd                  6
Points              per decade
spacing             Logarithmic
Va (mV)             5.0
pw                  0.10
Na                  2
corr                0
E range min (V)     -10.000
E range max (V)     10.000
I Range             Auto
Bandwidth           5
nc cycles           0
goto Ns'            0
nr cycles           0
inc. cycle          0

freq/Hz	Re(Z)/Ohm	-Im(Z)/Ohm	|Z|/Ohm	Phase(Z)/deg	time/s	<Ewe>/V	<I>/mA	Cs/µF	Cp/µF	cycle number	I Range	|Ewe|/V	|I|/A	Ns	(Q-Qo)/mA.h	<Ece>/V	|Ece|/V	Phase(Zce)/deg	|Zce|/Ohm	Re(Zce)/Ohm	-Im(Zce)/Ohm	Phase(Zwe-ce)/deg	|Zwe-ce|/Ohm	Re(Zwe-ce)/Ohm	-Im(Zwe-ce)/Ohm	Re(Y)/Ohm-1	Im(Y)/Ohm-1	|Y|/Ohm-1	Phase(Y)/deg	Re(C)/nF	Im(C)/nF	|C|/nF	Phase(C)/deg	Re(M)	Im(M)	|M|	Phase(M)/deg	Re(Permittivity)	Im(Permittivity)	|Permittivity|	Phase(Permittivity)/deg	Re(Resistivity)/Ohm.cm	Im(Resistivity)/Ohm.cm	|Resistivity|/Ohm.cm	Phase(Resistivity)/deg	Re(Conductivity)/mS/cm	Im(Conductivity)/mS/cm	|Conductivity|/mS/cm	Phase(Conductivity)/deg	Tan(Delta)	Loss Angle(Delta)/deg	dq/mA.h	Pwe/W	Pce/W	Pwe-ce/W	<Ewe-Ece>/V	Rwe/Ohm	Rce/Ohm	Rwe-ce/Ohm		Ewe-Ece/V
100004	1.25113	0.404393	1.31486	-17.912	1.59351	0.255754	0.00164115	3.93551	0.372262	1	9	0.00556542	0.00423271	0	-6.43902e-06	1.94333e-05	1.28292e-05	5.41579	0.00303096	0.00301743	-0.00028607	-17.8598	1.31764	1.25415	0.404107	0.723674	0.233908	0.760537	17.912	372.262	1151.72	1210.39	-72.088	0.0000000E+000	0.0000000E+000	0.0000000E+000	72.088	0.0000000E+000	0.0000000E+000	0.0000000E+000	-72.088	0.0000000E+000	0.0000000E+000	0.0000000E+000	-17.912	0.0000000E+000	0.0000000E+000	0.0000000E+000	17.912	3.09384	72.088	-6.43902e-06	4.1973e-07	3.18929e-11	4.19698e-07	0.255735	155839	11.8413	155827
31621.1	1.59104	0.609667	1.70385	-20.9663	2.86652	0.255688	0.000412004	8.25563	1.057	1	9	0.00545477	0.00320145	0	4.48736e-05	0.000153069	1.58444e-05	22.2445	0.00494912	0.00458079	-0.00187354	-20.8526	1.70746	1.59562	0.607793	0.548049	0.210006	0.586908	20.9663	1057	2758.43	2954.01	-69.0337	0.0000000E+000	0.0000000E+000	0.0000000E+000	69.0337	0.0000000E+000	0.0000000E+000	0.0000000E+000	-69.0337	0.0000000E+000	0.0000000E+000	0.0000000E+000	-20.9663	0.0000000E+000	0.0000000E+000	0.0000000E+000	20.9663	2.60968	69.0337	6.79796e-07	1.05345e-07	6.30652e-11	1.05282e-07	0.255535	620596	371.523	620224
10002.2	2.059	0.819854	2.21623	-21.7114	4.01653	0.255686	0.00354065	19.4083	2.65602	1	9	0.00534503	0.00241177	0	2.54911e-05	0.000210342	9.05585e-06	-30.1527	0.00375486	0.00324679	0.00188609	-21.7257	2.21994	2.06225	0.82174	0.419207	0.16692	0.451217	21.7114	2656.02	6670.41	7179.75	-68.2886	0.0000000E+000	0.0000000E+000	0.0000000E+000	68.2886	0.0000000E+000	0.0000000E+000	0.0000000E+000	-68.2886	0.0000000E+000	0.0000000E+000	0.0000000E+000	-21.7114	0.0000000E+000	0.0000000E+000	0.0000000E+000	21.7114	2.51143	68.2886	-4.35663e-06	9.05293e-07	7.44746e-10	9.04548e-07	0.255475	72214.4	59.4077	72155
3163.08	2.68278	1.18894	2.93443	-23.9017	5.16568	0.255638	-0.0207065	42.3205	6.94741	1	9	0.00500282	0.00170487	0	2.10373e-05	0.000191251	2.26026e-06	-12.5378	0.00132577	0.00129415	0.000287801	-23.8966	2.93573	2.68407	1.18923	0.311557	0.138074	0.340782	23.9017	6947.41	15676.4	17146.9	-66.0983	0.0000000E+000	0.0000000E+000	0.0000000E+000	66.0983	0.0000000E+000	0.0000000E+000	0.0000000E+000	-66.0983	0.0000000E+000	0.0000000E+000	0.0000000E+000	-23.9017	0.0000000E+000	0.0000000E+000	0.0000000E+000	23.9017	2.25645	66.0983	-8.35521e-07	-5.29336e-06	-3.96013e-09	-5.2894e-06	0.255447	12345.8	9.23629	12336.6
1000.32	3.55038	1.84526	4.00128	-27.4626	6.76382	0.255653	-0.0236176	86.2229	18.3376	1	10	0.00487989	0.00121958	0	1.38192e-05	0.000305796	4.96606e-06	49.8981	0.00407193	0.00262293	-0.00311462	-27.4057	4.00217	3.553	1.84215	0.221757	0.115256	0.24992	27.4626	18337.6	35282.5	39763.3	-62.5374	0.0000000E+000	0.0000000E+000	0.0000000E+000	62.5374	0.0000000E+000	0.0000000E+000	0.0000000E+000	-62.5374	0.0000000E+000	0.0000000E+000	0.0000000E+000	-27.4626	0.0000000E+000	0.0000000E+000	0.0000000E+000	27.4626	1.92405	62.5374	-1.88948e-06	-6.03793e-06	-7.22218e-09	-6.03071e-06	0.255348	10824.7	12.9478	10811.7
316.316	5.02023	3.20891	5.95817	-32.5866	8.11301	0.255648	-0.0232041	156.798	45.4811	1	10	0.0047265	0.00079328	0	5.54525e-06	1.94333e-05	1.04171e-05	-23.1902	0.0131317	0.0120707	0.00517105	-32.566	5.97113	5.0323	3.21408	0.141416	0.0903924	0.167837	32.5866	45481.1	71153.6	84447.4	-57.4134	0.0000000E+000	0.0000000E+000	0.0000000E+000	57.4134	0.0000000E+000	0.0000000E+000	0.0000000E+000	-57.4134	0.0000000E+000	0.0000000E+000	0.0000000E+000	-32.5866	0.0000000E+000	0.0000000E+000	0.0000000E+000	32.5866	1.56446	57.4134	-2.11372e-06	-5.9321e-06	-4.50934e-10	-5.93165e-06	0.255629	11017.4	0.837494	11016.5
100.032	8.313	5.05363	9.72858	-31.2962	9.4598	0.255652	-0.0221536	314.831	84.9545	1	10	0.00467351	0.00048039	0	-2.54775e-06	0.000363069	9.86779e-06	-64.2207	0.0205412	0.00893347	0.0184969	-31.3619	9.74582	8.32193	5.07213	0.0878333	0.0533956	0.10279	31.2962	84954.5	139746	163543	-58.7038	0.0000000E+000	0.0000000E+000	0.0000000E+000	58.7038	0.0000000E+000	0.0000000E+000	0.0000000E+000	-58.7038	0.0000000E+000	0.0000000E+000	0.0000000E+000	-31.2962	0.0000000E+000	0.0000000E+000	0.0000000E+000	31.2962	1.64495	58.7038	-2.85274e-06	-5.66362e-06	-8.04329e-09	-5.65557e-06	0.255289	11539.9	16.3887	11523.6
[...]
1.00006	20.3691	1.93856	20.4611	-5.43657	19.5268	0.255668	-0.0113083	82094.3	736.909	1	12	0.00466951	0.000228214	0	-5.16144e-05	-5.69301e-05	3.03875e-06	-34.1985	0.0133154	0.0110131	0.00748406	-5.4545	20.4728	20.3801	1.94605	0.0486534	0.00463043	0.0488732	5.43657	736909	7.74293e+06	7.77792e+06	-84.5634	0.0000000E+000	0.0000000E+000	0.0000000E+000	84.5634	0.0000000E+000	0.0000000E+000	0.0000000E+000	-84.5634	0.0000000E+000	0.0000000E+000	0.0000000E+000	-5.43657	0.0000000E+000	0.0000000E+000	0.0000000E+000	5.43657	10.5073	84.5634	-1.66578e-05	-2.89118e-06	6.43783e-10	-2.89182e-06	0.255725	22608.9	5.03435	22613.9
0.316193	21.2665	1.96326	21.3569	-5.27444	33.87	0.25567	-0.00962808	256383	2166.55	1	12	0.00466859	0.000218599	0	-6.59899e-05	0.000114888	1.8164e-06	95.588	0.00830928	-0.000809118	-0.00826979	-5.25254	21.3553	21.2657	1.95499	0.046625	0.00430429	0.0468233	5.27444	2.16655e+06	2.34686e+07	2.35684e+07	-84.7256	0.0000000E+000	0.0000000E+000	0.0000000E+000	84.7256	0.0000000E+000	0.0000000E+000	0.0000000E+000	-84.7256	0.0000000E+000	0.0000000E+000	0.0000000E+000	-5.27444	0.0000000E+000	0.0000000E+000	0.0000000E+000	5.27444	10.8322	84.7256	1.21925e-06	-2.46161e-06	-1.10615e-09	-2.46051e-06	0.255555	26554.6	11.9325	26542.7
0.0999041	22.4133	3.32028	22.6579	-8.42644	79.0781	0.255662	-0.00320421	479802	10303.2	1	12	0.00466987	0.000206103	0	-0.000112798	0.000248523	2.07465e-06	2.83261	0.0100661	0.0100538	-0.000497449	-8.42147	22.6678	22.4234	3.31978	0.0436583	0.00646748	0.0441347	8.42644	1.03032e+07	6.9551e+07	7.031e+07	-81.5736	0.0000000E+000	0.0000000E+000	0.0000000E+000	81.5736	0.0000000E+000	0.0000000E+000	0.0000000E+000	-81.5736	0.0000000E+000	0.0000000E+000	0.0000000E+000	-8.42644	0.0000000E+000	0.0000000E+000	0.0000000E+000	8.42644	6.75043	81.5736	-4.04106e-05	-8.19194e-07	-7.96321e-10	-8.18398e-07	0.255413	79789.5	77.5616	79711.9
0.0315922	24.6279	6.83691	25.5592	-15.5151	221.963	0.25566	-0.00314093	736852	52723.5	1	12	0.00466888	0.000182669	0	-0.000527715	0.000248523	1.90218e-06	-27.548	0.0104133	0.00923268	0.00481606	-15.52	25.5694	24.6371	6.84173	0.0376991	0.0104656	0.0391248	15.5151	5.27235e+07	1.8992e+08	1.97103e+08	-74.4849	0.0000000E+000	0.0000000E+000	0.0000000E+000	74.4849	0.0000000E+000	0.0000000E+000	0.0000000E+000	-74.4849	0.0000000E+000	0.0000000E+000	0.0000000E+000	-15.5151	0.0000000E+000	0.0000000E+000	0.0000000E+000	15.5151	3.60219	74.4849	-0.000179704	-8.03009e-07	-7.80594e-10	-8.02228e-07	0.255411	81396.3	79.1243	81317.2
0.0100092	28.8132	15.5	32.7178	-28.2778	673.185	0.255652	-0.00229402	1.02587e+06	230242	1	12	0.00466985	0.000142731	0	-0.000287323	0.000286705	1.92783e-06	-25.0097	0.0135068	0.0122403	0.00571027	-28.2765	32.7312	28.8255	15.5057	0.0269169	0.0144798	0.0305644	28.2778	2.30242e+08	4.28003e+08	4.86002e+08	-61.7222	0.0000000E+000	0.0000000E+000	0.0000000E+000	61.7222	0.0000000E+000	0.0000000E+000	0.0000000E+000	-61.7222	0.0000000E+000	0.0000000E+000	0.0000000E+000	-28.2778	0.0000000E+000	0.0000000E+000	0.0000000E+000	28.2778	1.85892	61.7222	0.000280124	-5.8647e-07	-6.57706e-10	-5.85812e-07	0.255365	111443	124.98	111318

File: 18824_R307_UA701_4p38_SOC00_C03.mpt
EC-Lab ASCII FILE
Nb header lines : 65

Potentio Electrochemical Impedance Spectroscopy

Run on channel : 3 (SN 65921)
User :
CE vs. WE compliance from -10 V to 10 V
Electrode connection : standard
Potential control : Ewe
Ewe ctrl range : min = -10.00 V, max = 10.00 V
Safety Limits :
	Do not start on E overload
Acquisition started on : 11/03/2025 17:10:54.406
Technique started on : 11/03/2025 17:10:56.275
Loaded Setting File :  C:\Users\Celltest\OneDrive - store-dot.com\Documents\EC-Lab\Data\@Biologic Test Protocols\anode half cell EIS SOC00.mps
Saved on :
	File : 18824_R307_UA701_4p38_SOC00_C03.mpr
	Directory : C:\Users\Celltest\OneDrive - store-dot.com\Documents\EC-Lab\Data\Anna\
	Host : 169.254.61.224
Device : VMP-3e (SN .003165)
Address : USB
EC-LAB for windows v11.62 (software)
Internet server v27.00 (firmware)
Command interpretor v12.03 (firmware)
Electrode material :
Initial state :
Electrolyte :
Comments :
Electrode surface area : 0.001 cm²
Characteristic mass : 0.001 g
Equivalent Weight : 0.000 g/eq.
Density : 0.000 g/cm3
Volume (V) : 0.001 cm³
Record Ece
Cycle Definition : Charge/Discharge alternance
Mode                Single sine
E (V)               0.0000
vs.                 Eoc
tE (h:m:s)          0:00:0.0000
record              0
dI                  0.000
unit dI             mA
dt (s)              0.000
fi                  100.000
unit fi             kHz
ff                  10.000
unit ff             mHz
Nd                  6
Points              per decade
spacing             Logarithmic
Va (mV)             5.0
pw                  0.10
Na                  2
corr                0
E range min (V)     -10.000
E range max (V)     10.000
I Range             Auto
Bandwidth           5
nc cycles           0
goto Ns'            0
nr cycles           0
inc. cycle          0

freq/Hz	Re(Z)/Ohm	-Im(Z)/Ohm	|Z|/Ohm	Phase(Z)/deg	time/s	<Ewe>/V	<I>/mA	Cs/µF	Cp/µF	cycle number	I Range	|Ewe|/V	|I|/A	Ns	(Q-Qo)/mA.h	<Ece>/V	|Ece|/V	Phase(Zce)/deg	|Zce|/Ohm	Re(Zce)/Ohm	-Im(Zce)/Ohm	Phase(Zwe-ce)/deg	|Zwe-ce|/Ohm	Re(Zwe-ce)/Ohm	-Im(Zwe-ce)/Ohm	Re(Y)/Ohm-1	Im(Y)/Ohm-1	|Y|/Ohm-1	Phase(Y)/deg	Re(C)/nF	Im(C)/nF	|C|/nF	Phase(C)/deg	Re(M)	Im(M)	|M|	Phase(M)/deg	Re(Permittivity)	Im(Permittivity)	|Permittivity|	Phase(Permittivity)/deg	Re(Resistivity)/Ohm.cm	Im(Resistivity)/Ohm.cm	|Resistivity|/Ohm.cm	Phase(Resistivity)/deg	Re(Conductivity)/mS/cm	Im(Conductivity)/mS/cm	|Conductivity|/mS/cm	Phase(Conductivity)/deg	Tan(Delta)	Loss Angle(Delta)/deg	dq/mA.h	Pwe/W	Pce/W	Pwe-ce/W	<Ewe-Ece>/V	Rwe/Ohm	Rce/Ohm	Rwe-ce/Ohm		Ewe-Ece/V
100004	1.48841	0.539925	1.58332	-19.9383	1.86852	0.249973	0.0316559	2.94761	0.342768	1	9	0.00490167	0.00309582	0	-8.34769e-06	-0.000137797	2.77307e-05	59.875	0.00895746	0.00449564	-0.0077476	-19.6196	1.58493	1.49291	0.532177	0.593728	0.215376	0.631585	19.9383	342.768	944.912	1005.16	-70.0617	0.0000000E+000	0.0000000E+000	0.0000000E+000	70.0617	0.0000000E+000	0.0000000E+000	0.0000000E+000	-70.0617	0.0000000E+000	0.0000000E+000	0.0000000E+000	-19.9383	0.0000000E+000	0.0000000E+000	0.0000000E+000	19.9383	2.75671	70.0617	-8.34769e-06	7.91312e-06	-4.36209e-09	7.91749e-06	0.250111	7896.59	4.35298	7900.95
31621.1	1.99508	0.754131	2.13286	-20.7063	3.01756	0.249958	0.0216239	6.67415	0.834385	1	9	0.00532742	0.00249779	0	6.51545e-06	0.000186802	1.64063e-05	51.6086	0.00656831	0.00407912	-0.00514816	-20.5384	2.13486	1.99916	0.748983	0.438569	0.165777	0.468855	20.7063	834.384	2207.4	2359.83	-69.2937	0.0000000E+000	0.0000000E+000	0.0000000E+000	69.2937	0.0000000E+000	0.0000000E+000	0.0000000E+000	-69.2937	0.0000000E+000	0.0000000E+000	0.0000000E+000	-20.7063	0.0000000E+000	0.0000000E+000	0.0000000E+000	20.7063	2.64554	69.2937	-2.58087e-06	5.40507e-06	4.03938e-09	5.40103e-06	0.249772	11559.4	8.63869	11550.7
10002.2	2.5758	0.948255	2.7448	-20.2107	4.16655	0.249979	0.0249803	16.7803	2.00276	1	9	0.00532477	0.00193995	0	2.38317e-05	0.000263178	7.82532e-06	-54.8032	0.00403377	0.00232501	0.0032963	-20.2585	2.74812	2.57812	0.951551	0.341894	0.125865	0.364326	20.2107	2002.76	5440.19	5797.13	-69.7893	0.0000000E+000	0.0000000E+000	0.0000000E+000	69.7893	0.0000000E+000	0.0000000E+000	0.0000000E+000	-69.7893	0.0000000E+000	0.0000000E+000	0.0000000E+000	-20.2107	0.0000000E+000	0.0000000E+000	0.0000000E+000	20.2107	2.71635	69.7893	-5.50194e-07	6.24453e-06	6.57426e-09	6.23796e-06	0.249716	10007	10.5354	9996.51
3163.08	3.28745	1.29177	3.53214	-21.4518	5.31567	0.249911	0.00864566	38.9515	5.20978	1	9	0.00512779	0.00145175	0	3.37945e-05	7.22374e-05	8.58446e-06	-100.766	0.00591317	-0.0011046	0.00580908	-21.5461	3.53324	3.28635	1.29758	0.263502	0.10354	0.283114	21.4518	5209.78	13258.5	14245.3	-68.5482	0.0000000E+000	0.0000000E+000	0.0000000E+000	68.5482	0.0000000E+000	0.0000000E+000	0.0000000E+000	-68.5482	0.0000000E+000	0.0000000E+000	0.0000000E+000	-21.4518	0.0000000E+000	0.0000000E+000	0.0000000E+000	21.4518	2.54492	68.5482	1.87512e-08	2.16065e-06	6.2454e-10	2.16002e-06	0.249839	28905.9	8.35534	28897.6
1000.32	4.24976	1.89348	4.6525	-24.0153	6.91377	0.249949	-0.0143195	84.0274	13.9177	1	10	0.00500356	0.00107546	0	3.05001e-05	-0.000175985	1.25125e-05	41.8069	0.0116346	0.00867238	-0.00775588	-23.8847	4.65727	4.25843	1.88572	0.196333	0.0874758	0.214938	24.0153	13917.7	31237.3	34197.5	-65.9847	0.0000000E+000	0.0000000E+000	0.0000000E+000	65.9847	0.0000000E+000	0.0000000E+000	0.0000000E+000	-65.9847	0.0000000E+000	0.0000000E+000	0.0000000E+000	-24.0153	0.0000000E+000	0.0000000E+000	0.0000000E+000	24.0153	2.24442	65.9847	-9.86029e-07	-3.57915e-06	2.52003e-09	-3.58167e-06	0.250125	17455.1	12.2899	17467.4
316.316	5.74519	3.03819	6.49906	-27.8709	8.26407	0.249939	-0.014409	165.609	36.192	1	10	0.00487746	0.000750487	0	2.4433e-05	-6.1421e-05	1.0575e-05	-42.7544	0.0140908	0.0103465	0.00956565	-27.9028	6.51268	5.75554	3.04776	0.13602	0.0719306	0.153868	27.8709	36192	68438.7	77419.1	-62.1291	0.0000000E+000	0.0000000E+000	0.0000000E+000	62.1291	0.0000000E+000	0.0000000E+000	0.0000000E+000	-62.1291	0.0000000E+000	0.0000000E+000	0.0000000E+000	-27.8709	0.0000000E+000	0.0000000E+000	0.0000000E+000	27.8709	1.89099	62.1291	-2.27087e-06	-3.60137e-06	8.85017e-10	-3.60226e-06	0.25	17346	4.26267	17350.2
100.032	8.76429	4.56329	9.88111	-27.5046	9.61185	0.249936	-0.0135626	348.661	74.3614	1	10	0.00485579	0.000491422	0	1.94471e-05	-9.96091e-05	5.90976e-06	-4.50221	0.0120258	0.0119887	0.000943998	-27.4773	9.89218	8.77628	4.56423	0.0897646	0.0467376	0.101203	27.5046	74361.4	142819	161018	-62.4954	0.0000000E+000	0.0000000E+000	0.0000000E+000	62.4954	0.0000000E+000	0.0000000E+000	0.0000000E+000	-62.4954	0.0000000E+000	0.0000000E+000	0.0000000E+000	-27.5046	0.0000000E+000	0.0000000E+000	0.0000000E+000	27.5046	1.92061	62.4954	-2.04199e-06	-3.38978e-06	1.35096e-09	-3.39113e-06	0.250036	18428.4	7.34441	18435.7
[...]
1.00006	19.6334	1.74211	19.7105	-5.0707	19.6798	0.249965	-0.00771163	91351.6	713.63	1	12	0.00484687	0.000245903	0	-3.81665e-06	-4.13882e-06	2.11405e-06	-88.2217	0.00859709	0.000266786	0.00859295	-5.09551	19.7115	19.6336	1.75071	0.0505358	0.00448416	0.0507344	5.0707	713630	8.04251e+06	8.07411e+06	-84.9293	0.0000000E+000	0.0000000E+000	0.0000000E+000	84.9293	0.0000000E+000	0.0000000E+000	0.0000000E+000	-84.9293	0.0000000E+000	0.0000000E+000	0.0000000E+000	-5.0707	0.0000000E+000	0.0000000E+000	0.0000000E+000	5.0707	11.2699	84.9293	-7.60525e-06	-1.92763e-06	3.1917e-11	-1.92766e-06	0.249969	32414	0.536698	32414.5
0.316193	20.4557	1.69799	20.526	-4.74515	34.0228	0.249967	-0.00670146	296437	2028.59	1	12	0.00484869	0.000236222	0	-6.64792e-05	-0.000309644	1.62906e-06	-8.17651	0.00689631	0.0068262	0.000980815	-4.74631	20.5329	20.4625	1.69897	0.0485517	0.0040302	0.0487187	4.74515	2.02859e+06	2.44384e+07	2.45224e+07	-85.2548	0.0000000E+000	0.0000000E+000	0.0000000E+000	85.2548	0.0000000E+000	0.0000000E+000	0.0000000E+000	-85.2548	0.0000000E+000	0.0000000E+000	0.0000000E+000	-4.74515	0.0000000E+000	0.0000000E+000	0.0000000E+000	4.74515	12.047	85.2548	-2.49624e-05	-1.67514e-06	2.07507e-09	-1.67722e-06	0.250277	37300.3	46.2054	37346.5
0.0999041	21.3322	2.9842	21.5399	-7.96352	79.2304	0.249956	-0.00514996	533838	10246.5	1	12	0.00485074	0.000225197	0	-4.85672e-05	-2.32329e-05	1.42168e-06	-8.23301	0.00631305	0.00624799	0.000904024	-7.96359	21.5463	21.3385	2.9851	0.0459777	0.00643189	0.0464254	7.96352	1.02465e+07	7.3246e+07	7.39592e+07	-82.0365	0.0000000E+000	0.0000000E+000	0.0000000E+000	82.0365	0.0000000E+000	0.0000000E+000	0.0000000E+000	-82.0365	0.0000000E+000	0.0000000E+000	0.0000000E+000	-7.96352	0.0000000E+000	0.0000000E+000	0.0000000E+000	7.96352	7.14839	82.0365	3.08057e-05	-1.28726e-06	1.19648e-10	-1.28738e-06	0.249979	48535.5	4.51127	48540
0.0315922	23.323	6.37234	24.1779	-15.2814	222.112	0.249954	-0.000904725	790572	54916.5	1	12	0.00484948	0.000200575	0	-4.18652e-05	0.00012952	3.51317e-06	22.2557	0.0175155	0.0162107	-0.00663382	-15.2562	24.1918	23.3392	6.3657	0.0398978	0.0109009	0.0413601	15.2814	5.49165e+07	2.00997e+08	2.08364e+08	-74.7186	0.0000000E+000	0.0000000E+000	0.0000000E+000	74.7186	0.0000000E+000	0.0000000E+000	0.0000000E+000	-74.7186	0.0000000E+000	0.0000000E+000	0.0000000E+000	-15.2814	0.0000000E+000	0.0000000E+000	0.0000000E+000	15.2814	3.66004	74.7186	-6.91052e-05	-2.2614e-07	-1.1718e-10	-2.26023e-07	0.249824	276276	143.159	276133
0.0100092	27.2946	14.3071	30.817	-27.6623	673.334	0.249957	-0.00217867	1.1114e+06	239548	1	12	0.00484845	0.000157331	0	-0.00112865	-6.1421e-05	2.47284e-06	-10.3219	0.0157175	0.0154631	0.00281623	-27.6536	30.832	27.31	14.3099	0.0287406	0.0150651	0.0324497	27.6623	2.39548e+08	4.57002e+08	5.15979e+08	-62.3377	0.0000000E+000	0.0000000E+000	0.0000000E+000	62.3377	0.0000000E+000	0.0000000E+000	0.0000000E+000	-62.3377	0.0000000E+000	0.0000000E+000	0.0000000E+000	-27.6623	0.0000000E+000	0.0000000E+000	0.0000000E+000	27.6623	1.90777	62.3377	-0.000422027	-5.44574e-07	1.33816e-10	-5.44708e-07	0.250019	114730	28.192	114758