Folder: EIS/txt (part 114)

File: 18708_R307_UA701_SOC00_C05.mpt
EC-Lab ASCII FILE
Nb header lines : 65

Potentio Electrochemical Impedance Spectroscopy

Run on channel : 5 (SN 65912)
User :
CE vs. WE compliance from -10 V to 10 V
Electrode connection : standard
Potential control : Ewe
Ewe ctrl range : min = -10.00 V, max = 10.00 V
Safety Limits :
	Do not start on E overload
Acquisition started on : 10/28/2025 15:30:40.851
Technique started on : 10/28/2025 15:30:42.721
Loaded Setting File :  C:\Users\Celltest\OneDrive - store-dot.com\Documents\EC-Lab\Data\@Biologic Test Protocols\anode half cell EIS SOC00.mps
Saved on :
	File : 18708_R307_UA701_SOC00_C05.mpr
	Directory : C:\Users\Celltest\OneDrive - store-dot.com\Documents\EC-Lab\Data\Anna\
	Host : 169.254.61.224
Device : VMP-3e (SN .003165)
Address : USB
EC-LAB for windows v11.62 (software)
Internet server v27.00 (firmware)
Command interpretor v12.03 (firmware)
Electrode material :
Initial state :
Electrolyte :
Comments :
Electrode surface area : 0.001 cm²
Characteristic mass : 0.001 g
Equivalent Weight : 0.000 g/eq.
Density : 0.000 g/cm3
Volume (V) : 0.001 cm³
Record Ece
Cycle Definition : Charge/Discharge alternance
Mode                Single sine
E (V)               0.0000
vs.                 Eoc
tE (h:m:s)          0:00:0.0000
record              0
dI                  0.000
unit dI             mA
dt (s)              0.000
fi                  100.000
unit fi             kHz
ff                  10.000
unit ff             mHz
Nd                  6
Points              per decade
spacing             Logarithmic
Va (mV)             5.0
pw                  0.10
Na                  2
corr                0
E range min (V)     -10.000
E range max (V)     10.000
I Range             Auto
Bandwidth           5
nc cycles           0
goto Ns'            0
nr cycles           0
inc. cycle          0

freq/Hz	Re(Z)/Ohm	-Im(Z)/Ohm	|Z|/Ohm	Phase(Z)/deg	time/s	<Ewe>/V	<I>/mA	Cs/µF	Cp/µF	cycle number	I Range	|Ewe|/V	|I|/A	Ns	(Q-Qo)/mA.h	<Ece>/V	|Ece|/V	Phase(Zce)/deg	|Zce|/Ohm	Re(Zce)/Ohm	-Im(Zce)/Ohm	Phase(Zwe-ce)/deg	|Zwe-ce|/Ohm	Re(Zwe-ce)/Ohm	-Im(Zwe-ce)/Ohm	Re(Y)/Ohm-1	Im(Y)/Ohm-1	|Y|/Ohm-1	Phase(Y)/deg	Re(C)/nF	Im(C)/nF	|C|/nF	Phase(C)/deg	Re(M)	Im(M)	|M|	Phase(M)/deg	Re(Permittivity)	Im(Permittivity)	|Permittivity|	Phase(Permittivity)/deg	Re(Resistivity)/Ohm.cm	Im(Resistivity)/Ohm.cm	|Resistivity|/Ohm.cm	Phase(Resistivity)/deg	Re(Conductivity)/mS/cm	Im(Conductivity)/mS/cm	|Conductivity|/mS/cm	Phase(Conductivity)/deg	Tan(Delta)	Loss Angle(Delta)/deg	dq/mA.h	Pwe/W	Pce/W	Pwe-ce/W	<Ewe-Ece>/V	Rwe/Ohm	Rce/Ohm	Rwe-ce/Ohm		Ewe-Ece/V
100004	1.21892	0.420945	1.28956	-19.0519	1.86953	0.247021	-0.00631503	3.78076	0.402851	1	9	0.00487794	0.00378263	0	-3.24308e-06	0.00024491	3.99107e-05	58.3221	0.010551	0.00554081	-0.00897908	-18.5953	1.29191	1.22446	0.411966	0.73298	0.253128	0.775457	19.0519	402.851	1166.53	1234.13	-70.9481	0.0000000E+000	0.0000000E+000	0.0000000E+000	70.9481	0.0000000E+000	0.0000000E+000	0.0000000E+000	-70.9481	0.0000000E+000	0.0000000E+000	0.0000000E+000	-19.0519	0.0000000E+000	0.0000000E+000	0.0000000E+000	19.0519	2.89569	70.9481	-3.24308e-06	-1.55995e-06	-1.54662e-09	-1.5584e-06	0.246776	39116.4	38.7821	39077.6
31621.1	1.59046	0.566073	1.68819	-19.5916	3.14255	0.246971	-0.0133906	8.89139	0.999705	1	9	0.00542784	0.00321518	0	-1.92646e-05	0.000130363	1.24416e-05	19.7288	0.00386965	0.0036425	-0.00130627	-19.5085	1.69119	1.5941	0.564767	0.558057	0.198623	0.59235	19.5916	999.705	2808.8	2981.4	-70.4084	0.0000000E+000	0.0000000E+000	0.0000000E+000	70.4084	0.0000000E+000	0.0000000E+000	0.0000000E+000	-70.4084	0.0000000E+000	0.0000000E+000	0.0000000E+000	-19.5916	0.0000000E+000	0.0000000E+000	0.0000000E+000	19.5916	2.80963	70.4084	-1.88082e-06	-3.3071e-06	-1.74564e-09	-3.30535e-06	0.246841	18443.6	9.73541	18433.9
10002.2	2.02938	0.729555	2.15654	-19.7733	4.29354	0.246956	-0.00925699	21.8105	2.49613	1	9	0.00542673	0.00251641	0	-2.56339e-05	3.4907e-05	1.00324e-05	-71.2732	0.00398678	0.00127998	0.00377572	-19.8561	2.15902	2.03066	0.73333	0.436366	0.156871	0.463706	19.7733	2496.13	6943.43	7378.48	-70.2267	0.0000000E+000	0.0000000E+000	0.0000000E+000	70.2267	0.0000000E+000	0.0000000E+000	0.0000000E+000	-70.2267	0.0000000E+000	0.0000000E+000	0.0000000E+000	-19.7733	0.0000000E+000	0.0000000E+000	0.0000000E+000	19.7733	2.78168	70.2267	-2.55787e-06	-2.28607e-06	-3.23134e-10	-2.28575e-06	0.246922	26677.8	3.77088	26674.1
3163.08	2.58003	1.01016	2.77073	-21.3818	5.62162	0.24693	-0.0380434	49.8106	6.62079	1	9	0.00499772	0.00180375	0	-2.54729e-05	5.39982e-05	1.25706e-05	-59.3943	0.00696913	0.00354817	0.00599827	-21.4704	2.77623	2.58358	1.01615	0.336074	0.131583	0.360915	21.3818	6620.78	16910.1	18160	-68.6182	0.0000000E+000	0.0000000E+000	0.0000000E+000	68.6182	0.0000000E+000	0.0000000E+000	0.0000000E+000	-68.6182	0.0000000E+000	0.0000000E+000	0.0000000E+000	-21.3818	0.0000000E+000	0.0000000E+000	0.0000000E+000	21.3818	2.55409	68.6182	-4.95209e-06	-9.39405e-06	-2.05428e-09	-9.392e-06	0.246876	6490.74	1.41938	6489.32
1000.32	3.35787	1.50652	3.68033	-24.1635	7.22079	0.246947	-0.0166458	105.611	17.6962	1	10	0.00500944	0.00136114	0	-3.1711e-05	0.000168545	7.60177e-06	-38.3342	0.00558486	0.0043808	0.003464	-24.1848	3.68575	3.36225	1.50998	0.247907	0.111224	0.271715	24.1635	17696.2	39443	43230.9	-65.8365	0.0000000E+000	0.0000000E+000	0.0000000E+000	65.8365	0.0000000E+000	0.0000000E+000	0.0000000E+000	-65.8365	0.0000000E+000	0.0000000E+000	0.0000000E+000	-24.1635	0.0000000E+000	0.0000000E+000	0.0000000E+000	24.1635	2.2289	65.8365	-9.0986e-07	-4.11063e-06	-2.80557e-09	-4.10783e-06	0.246779	14835.4	10.1254	14825.3
316.316	4.60136	2.39458	5.18715	-27.4928	8.57001	0.246955	-0.0172117	210.121	44.7787	1	10	0.00482718	0.000930603	0	-3.75557e-05	3.4907e-05	1.06408e-05	-84.0565	0.0114343	0.00118401	0.0113729	-27.5981	5.19346	4.60254	2.40596	0.171013	0.0889963	0.192784	27.4928	44778.7	86045.3	96999.6	-62.5072	0.0000000E+000	0.0000000E+000	0.0000000E+000	62.5072	0.0000000E+000	0.0000000E+000	0.0000000E+000	-62.5072	0.0000000E+000	0.0000000E+000	0.0000000E+000	-27.4928	0.0000000E+000	0.0000000E+000	0.0000000E+000	27.4928	1.92157	62.5072	-1.50841e-06	-4.25052e-06	-6.0081e-10	-4.24992e-06	0.24692	14348	2.02809	14346
100.032	6.9791	3.36958	7.74997	-25.7717	9.91679	0.246945	-0.0154915	472.178	89.2601	1	10	0.00477541	0.000616184	0	-4.38624e-05	0.000168545	6.12564e-06	-62.8495	0.00994124	0.00453649	0.00884582	-25.816	7.7579	6.98364	3.37843	0.116198	0.0561017	0.129033	25.7717	89260.1	184876	205296	-64.2283	0.0000000E+000	0.0000000E+000	0.0000000E+000	64.2283	0.0000000E+000	0.0000000E+000	0.0000000E+000	-64.2283	0.0000000E+000	0.0000000E+000	0.0000000E+000	-25.7717	0.0000000E+000	0.0000000E+000	0.0000000E+000	25.7717	2.07121	64.2283	-1.92261e-06	-3.82556e-06	-2.61103e-09	-3.82295e-06	0.246776	15940.6	10.8798	15929.8
[...]
1.00006	14.4862	1.23803	14.539	-4.8848	18.9347	0.246961	-0.00854358	128546	932.086	1	11	0.0047603	0.000327416	0	-7.83952e-05	0.000130363	2.28342e-06	-28.1303	0.00697406	0.00615026	0.00328812	-4.89564	14.5454	14.4923	1.24132	0.0685307	0.00585684	0.0687805	4.8848	932087	1.09063e+07	1.09461e+07	-85.1152	0.0000000E+000	0.0000000E+000	0.0000000E+000	85.1152	0.0000000E+000	0.0000000E+000	0.0000000E+000	-85.1152	0.0000000E+000	0.0000000E+000	0.0000000E+000	-4.8848	0.0000000E+000	0.0000000E+000	0.0000000E+000	4.8848	11.701	85.1152	-1.47629e-05	-2.10993e-06	-1.11377e-09	-2.10882e-06	0.246831	28906	15.2586	28890.8
0.316193	15.0469	1.33228	15.1057	-5.05989	33.2777	0.246961	-0.0102257	377809	2938.86	1	11	0.00476242	0.000315272	0	-0.00013453	5.39982e-05	1.87232e-06	-49.5065	0.00593876	0.00385641	0.00451631	-5.07566	15.11	15.0507	1.3368	0.065942	0.00583863	0.0662	5.05989	2.93886e+06	3.31917e+07	3.33216e+07	-84.9401	0.0000000E+000	0.0000000E+000	0.0000000E+000	84.9401	0.0000000E+000	0.0000000E+000	0.0000000E+000	-84.9401	0.0000000E+000	0.0000000E+000	0.0000000E+000	-5.05989	0.0000000E+000	0.0000000E+000	0.0000000E+000	5.05989	11.2941	84.9401	-1.2816e-05	-2.52535e-06	-5.5217e-10	-2.5248e-06	0.246907	24151	5.28064	24145.8
0.0999041	15.7357	2.37971	15.9147	-8.59967	78.4857	0.246965	-0.00634817	669441	14968.1	1	11	0.00475852	0.000299003	0	-8.26066e-05	-0.000175096	2.21447e-06	11.8645	0.00740619	0.00724797	-0.0015227	-8.59035	15.9216	15.743	2.37819	0.0621287	0.00939572	0.0628352	8.59967	1.49681e+07	9.89759e+07	1.00101e+08	-81.4003	0.0000000E+000	0.0000000E+000	0.0000000E+000	81.4003	0.0000000E+000	0.0000000E+000	0.0000000E+000	-81.4003	0.0000000E+000	0.0000000E+000	0.0000000E+000	-8.59967	0.0000000E+000	0.0000000E+000	0.0000000E+000	8.59967	6.61245	81.4003	2.56074e-05	-1.56778e-06	1.11154e-09	-1.56889e-06	0.24714	38903.4	27.5822	38930.9
0.0315922	17.112	5.33268	17.9237	-17.3088	236.136	0.246968	-0.00621212	944702	83624	1	12	0.00475867	0.000265496	0	-0.000598	7.30894e-05	1.52765e-06	-38.5594	0.00575393	0.00449936	0.00358657	-17.3155	17.929	17.1165	5.33627	0.0532656	0.0165993	0.0557921	17.3088	8.3624e+07	2.68341e+08	2.81069e+08	-72.6912	0.0000000E+000	0.0000000E+000	0.0000000E+000	72.6912	0.0000000E+000	0.0000000E+000	0.0000000E+000	-72.6912	0.0000000E+000	0.0000000E+000	0.0000000E+000	-17.3088	0.0000000E+000	0.0000000E+000	0.0000000E+000	17.3088	3.2089	72.6912	-0.00033604	-1.53419e-06	-4.5404e-10	-1.53374e-06	0.246895	39755.9	11.7656	39744.1
0.0100092	20.5804	12.4512	24.0538	-31.174	687.358	0.246964	-0.00954551	1.27706e+06	342188	1	12	0.00475844	0.000197825	0	-0.00209257	0.000149454	2.22076e-06	70.7228	0.0112259	0.0037061	-0.0105965	-31.1478	24.0515	20.5841	12.4406	0.0355702	0.02152	0.0415734	31.174	3.42188e+08	5.65599e+08	6.61056e+08	-58.826	0.0000000E+000	0.0000000E+000	0.0000000E+000	58.826	0.0000000E+000	0.0000000E+000	0.0000000E+000	-58.826	0.0000000E+000	0.0000000E+000	0.0000000E+000	-31.174	0.0000000E+000	0.0000000E+000	0.0000000E+000	31.174	1.65289	58.826	-0.000399372	-2.3574e-06	-1.42662e-09	-2.35597e-06	0.246815	25872.3	15.657	25856.6

File: 18709_R307_UA701_SOC00_C06.mpt
EC-Lab ASCII FILE
Nb header lines : 65

Potentio Electrochemical Impedance Spectroscopy

Run on channel : 6 (SN 65795)
User :
CE vs. WE compliance from -10 V to 10 V
Electrode connection : standard
Potential control : Ewe
Ewe ctrl range : min = -10.00 V, max = 10.00 V
Safety Limits :
	Do not start on E overload
Acquisition started on : 10/28/2025 15:30:49.284
Technique started on : 10/28/2025 15:30:51.011
Loaded Setting File :  C:\Users\Celltest\OneDrive - store-dot.com\Documents\EC-Lab\Data\@Biologic Test Protocols\anode half cell EIS SOC00.mps
Saved on :
	File : 18709_R307_UA701_SOC00_C06.mpr
	Directory : C:\Users\Celltest\OneDrive - store-dot.com\Documents\EC-Lab\Data\Anna\
	Host : 169.254.61.224
Device : VMP-3e (SN .003165)
Address : USB
EC-LAB for windows v11.62 (software)
Internet server v27.00 (firmware)
Command interpretor v12.03 (firmware)
Electrode material :
Initial state :
Electrolyte :
Comments :
Electrode surface area : 0.001 cm²
Characteristic mass : 0.001 g
Equivalent Weight : 0.000 g/eq.
Density : 0.000 g/cm3
Volume (V) : 0.001 cm³
Record Ece
Cycle Definition : Charge/Discharge alternance
Mode                Single sine
E (V)               0.0000
vs.                 Eoc
tE (h:m:s)          0:00:0.0000
record              0
dI                  0.000
unit dI             mA
dt (s)              0.000
fi                  100.000
unit fi             kHz
ff                  10.000
unit ff             mHz
Nd                  6
Points              per decade
spacing             Logarithmic
Va (mV)             5.0
pw                  0.10
Na                  2
corr                0
E range min (V)     -10.000
E range max (V)     10.000
I Range             Auto
Bandwidth           5
nc cycles           0
goto Ns'            0
nr cycles           0
inc. cycle          0

freq/Hz	Re(Z)/Ohm	-Im(Z)/Ohm	|Z|/Ohm	Phase(Z)/deg	time/s	<Ewe>/V	<I>/mA	Cs/µF	Cp/µF	cycle number	I Range	|Ewe|/V	|I|/A	Ns	(Q-Qo)/mA.h	<Ece>/V	|Ece|/V	Phase(Zce)/deg	|Zce|/Ohm	Re(Zce)/Ohm	-Im(Zce)/Ohm	Phase(Zwe-ce)/deg	|Zwe-ce|/Ohm	Re(Zwe-ce)/Ohm	-Im(Zwe-ce)/Ohm	Re(Y)/Ohm-1	Im(Y)/Ohm-1	|Y|/Ohm-1	Phase(Y)/deg	Re(C)/nF	Im(C)/nF	|C|/nF	Phase(C)/deg	Re(M)	Im(M)	|M|	Phase(M)/deg	Re(Permittivity)	Im(Permittivity)	|Permittivity|	Phase(Permittivity)/deg	Re(Resistivity)/Ohm.cm	Im(Resistivity)/Ohm.cm	|Resistivity|/Ohm.cm	Phase(Resistivity)/deg	Re(Conductivity)/mS/cm	Im(Conductivity)/mS/cm	|Conductivity|/mS/cm	Phase(Conductivity)/deg	Tan(Delta)	Loss Angle(Delta)/deg	dq/mA.h	Pwe/W	Pce/W	Pwe-ce/W	<Ewe-Ece>/V	Rwe/Ohm	Rce/Ohm	Rwe-ce/Ohm		Ewe-Ece/V
100004	1.25472	0.483581	1.34468	-21.0772	1.72655	0.244723	0.0202572	3.29105	0.425633	1	9	0.0047921	0.00356375	0	2.63776e-07	-0.000113801	4.36866e-05	80.2913	0.0122586	0.00206729	-0.0120831	-20.5642	1.34232	1.25678	0.471498	0.693917	0.267443	0.743671	21.0772	425.633	1104.36	1183.55	-68.9228	0.0000000E+000	0.0000000E+000	0.0000000E+000	68.9228	0.0000000E+000	0.0000000E+000	0.0000000E+000	-68.9228	0.0000000E+000	0.0000000E+000	0.0000000E+000	-21.0772	0.0000000E+000	0.0000000E+000	0.0000000E+000	21.0772	2.59464	68.9228	2.63776e-07	4.95739e-06	-2.30529e-09	4.95969e-06	0.244836	12080.8	5.61782	12086.4
31621.1	1.67601	0.626107	1.78914	-20.4841	3.25154	0.244695	0.0239822	8.03885	0.984467	1	9	0.00505795	0.00282703	0	8.69173e-06	0.000306356	7.22165e-06	47.7191	0.0025545	0.00171858	-0.00188996	-20.4082	1.79009	1.67773	0.624217	0.523585	0.195595	0.558927	20.4841	984.467	2635.3	2813.18	-69.5159	0.0000000E+000	0.0000000E+000	0.0000000E+000	69.5159	0.0000000E+000	0.0000000E+000	0.0000000E+000	-69.5159	0.0000000E+000	0.0000000E+000	0.0000000E+000	-20.4841	0.0000000E+000	0.0000000E+000	0.0000000E+000	20.4841	2.67688	69.5159	5.73599e-06	5.86831e-06	7.34707e-09	5.86096e-06	0.244388	10203.2	12.7743	10190.4
10002.2	2.15129	0.782111	2.28905	-19.9789	4.27856	0.244718	0.0212629	20.3449	2.37509	1	9	0.00491494	0.00214715	0	1.15744e-05	-9.4703e-05	2.61262e-05	11.0904	0.0121678	0.0119406	-0.00234057	-19.8225	2.29948	2.16323	0.77977	0.410571	0.149265	0.436862	19.9789	2375.09	6532.99	6951.33	-70.0211	0.0000000E+000	0.0000000E+000	0.0000000E+000	70.0211	0.0000000E+000	0.0000000E+000	0.0000000E+000	-70.0211	0.0000000E+000	0.0000000E+000	0.0000000E+000	-19.9789	0.0000000E+000	0.0000000E+000	0.0000000E+000	19.9789	2.75062	70.0211	4.26314e-06	5.2034e-06	-2.01366e-09	5.20542e-06	0.244812	11509.2	4.45391	11513.6
3163.08	2.74316	1.08636	2.95044	-21.6047	5.17868	0.24448	-0.0349473	46.3167	6.27926	1	9	0.00453506	0.00153708	0	8.40958e-06	0.000306356	1.49353e-06	45.3509	0.000971665	0.00068285	-0.000691266	-21.5874	2.95082	2.74384	1.08566	0.315121	0.124795	0.338932	21.6047	6279.26	15855.8	17053.9	-68.3953	0.0000000E+000	0.0000000E+000	0.0000000E+000	68.3953	0.0000000E+000	0.0000000E+000	0.0000000E+000	-68.3953	0.0000000E+000	0.0000000E+000	0.0000000E+000	-21.6047	0.0000000E+000	0.0000000E+000	0.0000000E+000	21.6047	2.5251	68.3953	-2.61856e-06	-8.54392e-06	-1.07063e-08	-8.53321e-06	0.244174	6995.67	8.76622	6986.91
1000.32	3.59543	1.59339	3.93269	-23.9016	6.99179	0.244629	-0.0225612	99.8524	16.3917	1	10	0.00503951	0.00128144	0	2.09495e-05	0.000115375	8.01116e-06	56.0057	0.00625167	0.00349538	-0.00518322	-23.8119	3.93379	3.59893	1.58821	0.232473	0.103025	0.254279	23.9016	16391.8	36987.4	40456.8	-66.0984	0.0000000E+000	0.0000000E+000	0.0000000E+000	66.0984	0.0000000E+000	0.0000000E+000	0.0000000E+000	-66.0984	0.0000000E+000	0.0000000E+000	0.0000000E+000	-23.9016	0.0000000E+000	0.0000000E+000	0.0000000E+000	23.9016	2.25646	66.0984	-2.17081e-06	-5.51914e-06	-2.60301e-09	-5.51654e-06	0.244514	10842.9	5.11388	10837.8
316.316	4.92118	2.45105	5.49779	-26.4762	8.34106	0.244615	-0.022237	205.28	40.8014	1	10	0.0049796	0.000905745	0	1.2168e-05	0.000287258	3.49056e-05	-44.3761	0.0385379	0.0275456	0.0269521	-26.5988	5.53448	4.94873	2.47801	0.162815	0.0810917	0.181891	26.4762	40801.4	81920.4	91518.9	-63.5238	0.0000000E+000	0.0000000E+000	0.0000000E+000	63.5238	0.0000000E+000	0.0000000E+000	0.0000000E+000	-63.5238	0.0000000E+000	0.0000000E+000	0.0000000E+000	-26.4762	0.0000000E+000	0.0000000E+000	0.0000000E+000	26.4762	2.00778	63.5238	-2.28267e-06	-5.43951e-06	-6.38776e-09	-5.43312e-06	0.244328	11000.3	12.918	10987.4
100.032	7.29342	3.41308	8.05252	-25.0781	9.68784	0.244618	-0.0207837	466.159	83.7461	1	10	0.00494192	0.000613711	0	5.44264e-06	0.000306356	9.37971e-06	-37.2008	0.0152836	0.0121737	0.00924062	-25.1009	8.06746	7.30559	3.42232	0.112478	0.052636	0.124185	25.0781	83746.1	178957	197583	-64.9219	0.0000000E+000	0.0000000E+000	0.0000000E+000	64.9219	0.0000000E+000	0.0000000E+000	0.0000000E+000	-64.9219	0.0000000E+000	0.0000000E+000	0.0000000E+000	-25.0781	0.0000000E+000	0.0000000E+000	0.0000000E+000	25.0781	2.1369	64.9219	-3.25876e-06	-5.08407e-06	-6.3672e-09	-5.07771e-06	0.244312	11769.7	14.7402	11755
[...]
1.00006	14.9494	1.23797	15.0005	-4.73389	18.7046	0.244673	-0.010413	128553	875.562	1	11	0.00493692	0.000329116	0	-1.7443e-05	-1.83109e-05	2.68391e-06	80.0446	0.00815491	0.00140983	-0.00803212	-4.70288	15.0013	14.9508	1.22993	0.0664368	0.00550167	0.0666642	4.73389	875562	1.05731e+07	1.06093e+07	-85.2661	0.0000000E+000	0.0000000E+000	0.0000000E+000	85.2661	0.0000000E+000	0.0000000E+000	0.0000000E+000	-85.2661	0.0000000E+000	0.0000000E+000	0.0000000E+000	-4.73389	0.0000000E+000	0.0000000E+000	0.0000000E+000	4.73389	12.0758	85.2661	1.70983e-06	-2.5478e-06	1.90672e-10	-2.54799e-06	0.244692	23496.8	1.75845	23498.6
0.316193	15.474	1.33005	15.5311	-4.91273	33.049	0.244671	-0.00677006	378442	2775.46	1	11	0.00493806	0.000317948	0	-8.6505e-05	0.000210866	1.83424e-06	58.0717	0.00576899	0.00305097	-0.0048962	-4.89377	15.5337	15.4771	1.32516	0.0641506	0.005514	0.0643871	4.91273	2.77546e+06	3.229e+07	3.24091e+07	-85.0873	0.0000000E+000	0.0000000E+000	0.0000000E+000	85.0873	0.0000000E+000	0.0000000E+000	0.0000000E+000	-85.0873	0.0000000E+000	0.0000000E+000	0.0000000E+000	-4.91273	0.0000000E+000	0.0000000E+000	0.0000000E+000	4.91273	11.6341	85.0873	-4.16181e-05	-1.65644e-06	-1.42757e-09	-1.65501e-06	0.24446	36140.2	31.1468	36109
0.0999041	16.2236	2.50402	16.4157	-8.77406	85.119	0.244658	-0.0105346	636208	14803.3	1	12	0.00493328	0.000300523	0	-0.000251946	-1.83109e-05	2.09556e-06	10.9281	0.00697304	0.00684659	-0.00132192	-8.76586	16.4222	16.2304	2.5027	0.0602046	0.00929225	0.0609175	8.77406	1.48033e+07	9.59105e+07	9.70462e+07	-81.2259	0.0000000E+000	0.0000000E+000	0.0000000E+000	81.2259	0.0000000E+000	0.0000000E+000	0.0000000E+000	-81.2259	0.0000000E+000	0.0000000E+000	0.0000000E+000	-8.77406	0.0000000E+000	0.0000000E+000	0.0000000E+000	8.77406	6.47901	81.2259	-3.1161e-05	-2.57738e-06	1.92898e-10	-2.57758e-06	0.244677	23224.2	1.73816	23225.9
0.0315922	17.782	5.35562	18.571	-16.7613	228.002	0.244659	-0.00688858	940655	78230.9	1	12	0.00493449	0.000265709	0	-0.000129162	0.000306356	2.20755e-06	41.3319	0.00830816	0.00623857	-0.00548687	-16.7396	18.5754	17.7883	5.35013	0.0515596	0.0155288	0.0538473	16.7613	7.82309e+07	2.59746e+08	2.71272e+08	-73.2387	0.0000000E+000	0.0000000E+000	0.0000000E+000	73.2387	0.0000000E+000	0.0000000E+000	0.0000000E+000	-73.2387	0.0000000E+000	0.0000000E+000	0.0000000E+000	-16.7613	0.0000000E+000	0.0000000E+000	0.0000000E+000	16.7613	3.32025	73.2387	4.66563e-05	-1.68536e-06	-2.11036e-09	-1.68325e-06	0.244353	35516.7	44.473	35472.2
0.0100092	21.0804	12.4473	24.481	-30.5604	679.224	0.24465	-0.00857454	1.27746e+06	330247	1	12	0.00493467	0.000201571	0	-0.00196024	0.000153571	1.03557e-06	19.0579	0.0051375	0.00485591	-0.00167751	-30.5513	24.4843	21.0853	12.4456	0.035174	0.020769	0.040848	30.5604	3.30247e+08	5.59298e+08	6.49521e+08	-59.4396	0.0000000E+000	0.0000000E+000	0.0000000E+000	59.4396	0.0000000E+000	0.0000000E+000	0.0000000E+000	-59.4396	0.0000000E+000	0.0000000E+000	0.0000000E+000	-30.5604	0.0000000E+000	0.0000000E+000	0.0000000E+000	30.5604	1.69358	59.4396	-0.00109383	-2.09776e-06	-1.31681e-09	-2.09645e-06	0.244496	28532.1	17.9102	28514.2