Folder: EIS/txt (part 118)

File: 18723_R302_UA698_SOC00_C03.mpt
EC-Lab ASCII FILE
Nb header lines : 65

Potentio Electrochemical Impedance Spectroscopy

Run on channel : 3 (SN 65921)
User :
CE vs. WE compliance from -10 V to 10 V
Electrode connection : standard
Potential control : Ewe
Ewe ctrl range : min = -10.00 V, max = 10.00 V
Safety Limits :
	Do not start on E overload
Acquisition started on : 10/31/2025 10:59:39.821
Technique started on : 10/31/2025 10:59:41.600
Loaded Setting File :  C:\Users\Celltest\OneDrive - store-dot.com\Documents\EC-Lab\Data\@Biologic Test Protocols\anode half cell EIS SOC00.mps
Saved on :
	File : 18723_R302_UA698_SOC00_C03.mpr
	Directory : C:\Users\Celltest\OneDrive - store-dot.com\Documents\EC-Lab\Data\Charmaine\
	Host : 169.254.61.224
Device : VMP-3e (SN .003165)
Address : USB
EC-LAB for windows v11.62 (software)
Internet server v27.00 (firmware)
Command interpretor v12.03 (firmware)
Electrode material :
Initial state :
Electrolyte :
Comments :
Electrode surface area : 0.001 cm²
Characteristic mass : 0.001 g
Equivalent Weight : 0.000 g/eq.
Density : 0.000 g/cm3
Volume (V) : 0.001 cm³
Record Ece
Cycle Definition : Charge/Discharge alternance
Mode                Single sine
E (V)               0.0000
vs.                 Eoc
tE (h:m:s)          0:00:0.0000
record              0
dI                  0.000
unit dI             mA
dt (s)              0.000
fi                  100.000
unit fi             kHz
ff                  10.000
unit ff             mHz
Nd                  6
Points              per decade
spacing             Logarithmic
Va (mV)             5.0
pw                  0.10
Na                  2
corr                0
E range min (V)     -10.000
E range max (V)     10.000
I Range             Auto
Bandwidth           5
nc cycles           0
goto Ns'            0
nr cycles           0
inc. cycle          0

freq/Hz	Re(Z)/Ohm	-Im(Z)/Ohm	|Z|/Ohm	Phase(Z)/deg	time/s	<Ewe>/V	<I>/mA	Cs/µF	Cp/µF	cycle number	I Range	|Ewe|/V	|I|/A	Ns	(Q-Qo)/mA.h	<Ece>/V	|Ece|/V	Phase(Zce)/deg	|Zce|/Ohm	Re(Zce)/Ohm	-Im(Zce)/Ohm	Phase(Zwe-ce)/deg	|Zwe-ce|/Ohm	Re(Zwe-ce)/Ohm	-Im(Zwe-ce)/Ohm	Re(Y)/Ohm-1	Im(Y)/Ohm-1	|Y|/Ohm-1	Phase(Y)/deg	Re(C)/nF	Im(C)/nF	|C|/nF	Phase(C)/deg	Re(M)	Im(M)	|M|	Phase(M)/deg	Re(Permittivity)	Im(Permittivity)	|Permittivity|	Phase(Permittivity)/deg	Re(Resistivity)/Ohm.cm	Im(Resistivity)/Ohm.cm	|Resistivity|/Ohm.cm	Phase(Resistivity)/deg	Re(Conductivity)/mS/cm	Im(Conductivity)/mS/cm	|Conductivity|/mS/cm	Phase(Conductivity)/deg	Tan(Delta)	Loss Angle(Delta)/deg	dq/mA.h	Pwe/W	Pce/W	Pwe-ce/W	<Ewe-Ece>/V	Rwe/Ohm	Rce/Ohm	Rwe-ce/Ohm		Ewe-Ece/V
100004	1.4372	0.607567	1.56035	-22.9159	1.77856	0.262717	0.0517944	2.61945	0.39715	1	9	0.00607963	0.00389633	0	7.4974e-06	1.49552e-05	3.672e-05	50.7726	0.00942426	0.0059599	-0.00730043	-22.5843	1.56302	1.44316	0.600267	0.590302	0.249546	0.640882	22.9159	397.15	939.461	1019.96	-67.0841	0.0000000E+000	0.0000000E+000	0.0000000E+000	67.0841	0.0000000E+000	0.0000000E+000	0.0000000E+000	-67.0841	0.0000000E+000	0.0000000E+000	0.0000000E+000	-22.9159	0.0000000E+000	0.0000000E+000	0.0000000E+000	22.9159	2.3655	67.0841	7.4974e-06	1.36073e-05	7.74598e-10	1.36065e-05	0.262702	5072.32	0.288743	5072.03
31621.1	2.02763	0.916232	2.22503	-24.317	3.05353	0.262675	0.0464241	5.49335	0.931486	1	9	0.00532189	0.00239183	0	8.16697e-06	-0.000118703	1.12e-05	27.6142	0.00468259	0.00414919	-0.00217045	-24.2222	2.22792	2.03178	0.914062	0.409559	0.185069	0.449432	24.317	931.486	2061.39	2262.07	-65.683	0.0000000E+000	0.0000000E+000	0.0000000E+000	65.683	0.0000000E+000	0.0000000E+000	0.0000000E+000	-65.683	0.0000000E+000	0.0000000E+000	0.0000000E+000	-24.317	0.0000000E+000	0.0000000E+000	0.0000000E+000	24.317	2.21301	65.683	1.72878e-06	1.21945e-05	-5.51069e-09	1.22e-05	0.262794	5658.16	2.55693	5660.72
10002.2	2.74829	1.16357	2.98445	-22.9468	4.20452	0.262677	0.0433287	13.6751	2.07867	1	9	0.00484638	0.00162387	0	1.89777e-05	-9.96091e-05	7.8434e-06	-49.9496	0.00483005	0.00310796	0.0036973	-22.9889	2.98876	2.75139	1.16727	0.308555	0.130636	0.33507	22.9468	2078.67	4909.71	5331.61	-67.0532	0.0000000E+000	0.0000000E+000	0.0000000E+000	67.0532	0.0000000E+000	0.0000000E+000	0.0000000E+000	-67.0532	0.0000000E+000	0.0000000E+000	0.0000000E+000	-22.9468	0.0000000E+000	0.0000000E+000	0.0000000E+000	22.9468	2.36195	67.0532	2.18273e-06	1.13814e-05	-4.31593e-09	1.13858e-05	0.262776	6062.42	2.29892	6064.72
3163.08	3.4181	1.69098	3.8135	-26.3223	5.73962	0.262672	-0.000757572	29.7558	5.85061	1	10	0.00478123	0.00125376	0	3.12133e-05	-0.000156891	5.6965e-06	132.436	0.00454352	-0.00306579	-0.00335328	-26.2975	3.80927	3.41503	1.68763	0.235037	0.116276	0.262226	26.3223	5850.61	11826.2	13194.3	-63.6777	0.0000000E+000	0.0000000E+000	0.0000000E+000	63.6777	0.0000000E+000	0.0000000E+000	0.0000000E+000	-63.6777	0.0000000E+000	0.0000000E+000	0.0000000E+000	-26.3223	0.0000000E+000	0.0000000E+000	0.0000000E+000	26.3223	2.02137	63.6777	8.05939e-06	-1.98993e-07	1.18857e-10	-1.99112e-07	0.262829	346729	207.098	346936
1000.32	4.23835	3.15174	5.28177	-36.6354	7.73477	0.262691	0.00180789	50.4813	17.9752	1	10	0.0050305	0.000952428	0	3.2975e-05	-0.000309644	1.06676e-05	-73.109	0.0112005	0.00325432	0.0107173	-36.7075	5.29078	4.2416	3.16246	0.151928	0.112978	0.189331	36.6354	17975.2	24172.4	30123.2	-53.3646	0.0000000E+000	0.0000000E+000	0.0000000E+000	53.3646	0.0000000E+000	0.0000000E+000	0.0000000E+000	-53.3646	0.0000000E+000	0.0000000E+000	0.0000000E+000	-36.6354	0.0000000E+000	0.0000000E+000	0.0000000E+000	36.6354	1.34476	53.3646	1.54608e-07	4.74915e-07	-5.59801e-10	4.75475e-07	0.263	145302	171.274	145474
316.316	6.71895	6.68536	9.47831	-44.8564	9.29702	0.262685	0.00208754	75.2618	37.4423	1	10	0.00509413	0.000537451	0	3.49996e-05	-0.000156891	6.51217e-06	-86.2203	0.0121168	0.000798752	0.0120904	-44.9048	9.48741	6.71975	6.69745	0.0747894	0.0744154	0.105504	44.8564	37442.3	37630.4	53084.6	-45.1436	0.0000000E+000	0.0000000E+000	0.0000000E+000	45.1436	0.0000000E+000	0.0000000E+000	0.0000000E+000	-45.1436	0.0000000E+000	0.0000000E+000	0.0000000E+000	-44.8564	0.0000000E+000	0.0000000E+000	0.0000000E+000	44.8564	1.00503	45.1436	7.89375e-07	5.48365e-07	-3.27517e-10	5.48692e-07	0.262842	125835	75.1562	125910
100.032	13.7921	12.997	18.9511	-43.3001	10.6428	0.262676	0.00197194	122.416	57.578	1	10	0.00478779	0.000252639	0	3.62135e-05	-4.13882e-06	7.86197e-06	-6.93101	0.0311194	0.030892	0.0037553	-43.2444	18.9762	13.823	13.0008	0.0384026	0.0361889	0.0527674	43.3001	57578	61100.1	83955	-46.6999	0.0000000E+000	0.0000000E+000	0.0000000E+000	46.6999	0.0000000E+000	0.0000000E+000	0.0000000E+000	-46.6999	0.0000000E+000	0.0000000E+000	0.0000000E+000	-43.3001	0.0000000E+000	0.0000000E+000	0.0000000E+000	43.3001	1.06117	46.6999	8.65519e-08	5.17982e-07	-8.16149e-12	5.1799e-07	0.26268	133207	2.09886	133209
[...]
1.00006	44.9755	4.39819	45.19	-5.58524	20.3936	0.262674	-0.00323081	36184.2	342.753	1	12	0.00472391	0.000104534	0	2.40907e-05	-0.000405114	2.51462e-06	16.9903	0.0240554	0.0230055	-0.00702921	-5.57354	45.2122	44.9985	4.39116	0.0220237	0.00215372	0.0221288	5.58524	342753	3.50496e+06	3.52168e+06	-84.4148	0.0000000E+000	0.0000000E+000	0.0000000E+000	84.4148	0.0000000E+000	0.0000000E+000	0.0000000E+000	-84.4148	0.0000000E+000	0.0000000E+000	0.0000000E+000	-5.58524	0.0000000E+000	0.0000000E+000	0.0000000E+000	5.58524	10.2259	84.4148	-4.4125e-06	-8.48649e-07	1.30885e-09	-8.49958e-07	0.263079	81302.9	125.391	81428.3
0.316193	47.2918	4.77461	47.5322	-5.76508	34.7348	0.262677	-0.00371153	105422	1063.72	1	12	0.00472332	9.9371e-05	0	2.17027e-05	-6.1421e-05	3.19076e-06	-22.2922	0.0321095	0.0297097	0.0121801	-5.77608	47.563	47.3215	4.78679	0.0209319	0.0021133	0.0210384	5.76508	1.06373e+06	1.0536e+07	1.05896e+07	-84.2349	0.0000000E+000	0.0000000E+000	0.0000000E+000	84.2349	0.0000000E+000	0.0000000E+000	0.0000000E+000	-84.2349	0.0000000E+000	0.0000000E+000	0.0000000E+000	-5.76508	0.0000000E+000	0.0000000E+000	0.0000000E+000	5.76508	9.90485	84.2349	1.92332e-06	-9.74933e-07	2.27966e-10	-9.75161e-07	0.262738	70773.1	16.5487	70789.7
0.0999041	50.8806	5.84874	51.2157	-6.55739	79.9436	0.262674	-0.00142061	272379	3552.17	1	12	0.00472341	9.22259e-05	0	7.21454e-06	3.40493e-05	1.93493e-06	-66.0963	0.0209804	0.00850125	0.0191808	-6.57761	51.2263	50.8891	5.86793	0.0193975	0.00222975	0.0195253	6.55739	3.55217e+06	3.09018e+07	3.11053e+07	-83.4426	0.0000000E+000	0.0000000E+000	0.0000000E+000	83.4426	0.0000000E+000	0.0000000E+000	0.0000000E+000	-83.4426	0.0000000E+000	0.0000000E+000	0.0000000E+000	-6.55739	0.0000000E+000	0.0000000E+000	0.0000000E+000	6.55739	8.69941	83.4426	-1.57053e-05	-3.73158e-07	-4.83708e-11	-3.73109e-07	0.26264	184902	23.9681	184878
0.0315922	54.5445	9.57398	55.3784	-9.95549	222.828	0.262677	-0.000947829	526196	15727.2	1	12	0.00472552	8.53315e-05	0	-0.000162129	-0.000175985	3.83337e-06	9.62156	0.0449233	0.0442914	-0.00750847	-9.93992	55.4207	54.5888	9.56647	0.0177857	0.00312185	0.0180576	9.95549	1.57272e+07	8.96006e+07	9.09704e+07	-80.0445	0.0000000E+000	0.0000000E+000	0.0000000E+000	80.0445	0.0000000E+000	0.0000000E+000	0.0000000E+000	-80.0445	0.0000000E+000	0.0000000E+000	0.0000000E+000	-9.95549	0.0000000E+000	0.0000000E+000	0.0000000E+000	9.95549	5.69716	80.0445	-7.52493e-05	-2.48973e-07	1.66804e-10	-2.49139e-07	0.262853	277135	185.672	277321
0.0100092	60.3329	19.656	63.454	-18.0452	674.047	0.262673	-0.000841105	808961	77624.4	1	12	0.00472479	7.446e-05	0	-4.43928e-05	5.31434e-05	1.91931e-06	-11.2875	0.0257764	0.0252778	0.00504528	-18.0425	63.4796	60.3581	19.661	0.0149843	0.00488176	0.0157594	18.0452	7.76244e+07	2.38264e+08	2.5059e+08	-71.9548	0.0000000E+000	0.0000000E+000	0.0000000E+000	71.9548	0.0000000E+000	0.0000000E+000	0.0000000E+000	-71.9548	0.0000000E+000	0.0000000E+000	0.0000000E+000	-18.0452	0.0000000E+000	0.0000000E+000	0.0000000E+000	18.0452	3.06944	71.9548	0.000146627	-2.20936e-07	-4.46992e-11	-2.20891e-07	0.26262	312296	63.1828	312232

File: 18724_R302_UA698_SOC00_C04.mpt
EC-Lab ASCII FILE
Nb header lines : 65

Potentio Electrochemical Impedance Spectroscopy

Run on channel : 4 (SN 66756)
User :
CE vs. WE compliance from -10 V to 10 V
Electrode connection : standard
Potential control : Ewe
Ewe ctrl range : min = -10.00 V, max = 10.00 V
Safety Limits :
	Do not start on E overload
Acquisition started on : 10/31/2025 10:59:49.391
Technique started on : 10/31/2025 10:59:51.302
Loaded Setting File :  C:\Users\Celltest\OneDrive - store-dot.com\Documents\EC-Lab\Data\@Biologic Test Protocols\anode half cell EIS SOC00.mps
Saved on :
	File : 18724_R302_UA698_SOC00_C04.mpr
	Directory : C:\Users\Celltest\OneDrive - store-dot.com\Documents\EC-Lab\Data\Charmaine\
	Host : 169.254.61.224
Device : VMP-3e (SN .003165)
Address : USB
EC-LAB for windows v11.62 (software)
Internet server v27.00 (firmware)
Command interpretor v12.03 (firmware)
Electrode material :
Initial state :
Electrolyte :
Comments :
Electrode surface area : 0.001 cm²
Characteristic mass : 0.001 g
Equivalent Weight : 0.000 g/eq.
Density : 0.000 g/cm3
Volume (V) : 0.001 cm³
Record Ece
Cycle Definition : Charge/Discharge alternance
Mode                Single sine
E (V)               0.0000
vs.                 Eoc
tE (h:m:s)          0:00:0.0000
record              0
dI                  0.000
unit dI             mA
dt (s)              0.000
fi                  100.000
unit fi             kHz
ff                  10.000
unit ff             mHz
Nd                  6
Points              per decade
spacing             Logarithmic
Va (mV)             5.0
pw                  0.10
Na                  2
corr                0
E range min (V)     -10.000
E range max (V)     10.000
I Range             Auto
Bandwidth           5
nc cycles           0
goto Ns'            0
nr cycles           0
inc. cycle          0

freq/Hz	Re(Z)/Ohm	-Im(Z)/Ohm	|Z|/Ohm	Phase(Z)/deg	time/s	<Ewe>/V	<I>/mA	Cs/µF	Cp/µF	cycle number	I Range	|Ewe|/V	|I|/A	Ns	(Q-Qo)/mA.h	<Ece>/V	|Ece|/V	Phase(Zce)/deg	|Zce|/Ohm	Re(Zce)/Ohm	-Im(Zce)/Ohm	Phase(Zwe-ce)/deg	|Zwe-ce|/Ohm	Re(Zwe-ce)/Ohm	-Im(Zwe-ce)/Ohm	Re(Y)/Ohm-1	Im(Y)/Ohm-1	|Y|/Ohm-1	Phase(Y)/deg	Re(C)/nF	Im(C)/nF	|C|/nF	Phase(C)/deg	Re(M)	Im(M)	|M|	Phase(M)/deg	Re(Permittivity)	Im(Permittivity)	|Permittivity|	Phase(Permittivity)/deg	Re(Resistivity)/Ohm.cm	Im(Resistivity)/Ohm.cm	|Resistivity|/Ohm.cm	Phase(Resistivity)/deg	Re(Conductivity)/mS/cm	Im(Conductivity)/mS/cm	|Conductivity|/mS/cm	Phase(Conductivity)/deg	Tan(Delta)	Loss Angle(Delta)/deg	dq/mA.h	Pwe/W	Pce/W	Pwe-ce/W	<Ewe-Ece>/V	Rwe/Ohm	Rce/Ohm	Rwe-ce/Ohm		Ewe-Ece/V
100004	1.25157	0.656947	1.41351	-27.6949	1.91054	0.262079	-0.0353804	2.42255	0.523283	1	9	0.00454921	0.00321838	0	-1.26463e-05	-9.19415e-05	3.35582e-05	67.9709	0.0104271	0.00391095	-0.00966582	-27.274	1.41252	1.25548	0.647281	0.626409	0.328801	0.707459	27.6949	523.283	996.924	1125.91	-62.3051	0.0000000E+000	0.0000000E+000	0.0000000E+000	62.3051	0.0000000E+000	0.0000000E+000	0.0000000E+000	-62.3051	0.0000000E+000	0.0000000E+000	0.0000000E+000	-27.6949	0.0000000E+000	0.0000000E+000	0.0000000E+000	27.6949	1.90513	62.3051	-1.26463e-05	-9.27246e-06	3.25293e-09	-9.27571e-06	0.262171	7407.45	2.59865	7410.05
31621.1	1.85931	0.876696	2.05564	-25.2446	3.06153	0.262064	-0.0313896	5.74108	1.04424	1	9	0.00542773	0.00264041	0	-4.49986e-05	-0.000111051	1.08892e-05	0.612357	0.00412405	0.00412381	-4.40756e-05	-25.1946	2.05935	1.86344	0.876652	0.440007	0.20747	0.486467	25.2446	1044.24	2214.64	2448.48	-64.7554	0.0000000E+000	0.0000000E+000	0.0000000E+000	64.7554	0.0000000E+000	0.0000000E+000	0.0000000E+000	-64.7554	0.0000000E+000	0.0000000E+000	0.0000000E+000	-25.2446	0.0000000E+000	0.0000000E+000	0.0000000E+000	25.2446	2.12082	64.7554	-1.14129e-05	-8.22609e-06	3.48586e-09	-8.22957e-06	0.262175	8348.74	3.53784	8352.28
10002.2	2.49693	1.05704	2.71146	-22.9446	4.21056	0.262072	-0.0286669	15.0534	2.28775	1	9	0.00524165	0.00193315	0	-5.05045e-05	-0.000130161	1.23116e-05	-58.4141	0.00636866	0.00333575	0.00542518	-23.0225	2.71665	2.50027	1.06246	0.339627	0.143775	0.368806	22.9446	2287.75	5404.12	5868.42	-67.0554	0.0000000E+000	0.0000000E+000	0.0000000E+000	67.0554	0.0000000E+000	0.0000000E+000	0.0000000E+000	-67.0554	0.0000000E+000	0.0000000E+000	0.0000000E+000	-22.9446	0.0000000E+000	0.0000000E+000	0.0000000E+000	22.9446	2.3622	67.0554	-7.2777e-07	-7.51281e-06	3.73133e-09	-7.51654e-06	0.262202	9141.97	4.54047	9146.51
3163.08	3.1356	1.53029	3.48909	-26.0142	5.23267	0.262012	-0.0436232	32.8802	6.32498	1	9	0.00537092	0.00153934	0	-6.18633e-05	6.09381e-05	1.32456e-05	-61.1264	0.00860471	0.00415503	0.00753503	-26.0953	3.49614	3.13975	1.53783	0.25757	0.125704	0.286607	26.0142	6324.98	12960	14421.1	-63.9858	0.0000000E+000	0.0000000E+000	0.0000000E+000	63.9858	0.0000000E+000	0.0000000E+000	0.0000000E+000	-63.9858	0.0000000E+000	0.0000000E+000	0.0000000E+000	-26.0142	0.0000000E+000	0.0000000E+000	0.0000000E+000	26.0142	2.04902	63.9858	-5.03921e-06	-1.14298e-05	-2.65831e-09	-1.14271e-05	0.261951	6006.25	1.39692	6004.85
1000.32	4.1141	2.95615	5.06603	-35.6988	6.83082	0.26203	-0.0170641	53.8213	18.3262	1	10	0.00523014	0.00103239	0	-7.08539e-05	-0.000244821	1.06334e-05	0.498437	0.0102998	0.0102994	-8.96003e-05	-35.6301	5.07434	4.1244	2.95606	0.160302	0.115184	0.197393	35.6988	18326.2	25504.7	31406.1	-54.3012	0.0000000E+000	0.0000000E+000	0.0000000E+000	54.3012	0.0000000E+000	0.0000000E+000	0.0000000E+000	-54.3012	0.0000000E+000	0.0000000E+000	0.0000000E+000	-35.6988	0.0000000E+000	0.0000000E+000	0.0000000E+000	35.6988	1.39171	54.3012	-1.68792e-06	-4.4713e-06	4.17764e-09	-4.47548e-06	0.262275	15355.7	14.3472	15370
316.316	6.36842	6.25839	8.92885	-44.5007	8.18109	0.262022	-0.0173737	80.3963	39.4977	1	10	0.00503789	0.000564226	0	-7.66041e-05	-5.37216e-05	1.01404e-05	25.0107	0.0179722	0.0162869	-0.00759841	-44.3928	8.93515	6.38471	6.25079	0.0798806	0.0785004	0.111997	44.5007	39497.7	40192.1	56351.3	-45.4993	0.0000000E+000	0.0000000E+000	0.0000000E+000	45.4993	0.0000000E+000	0.0000000E+000	0.0000000E+000	-45.4993	0.0000000E+000	0.0000000E+000	0.0000000E+000	-44.5007	0.0000000E+000	0.0000000E+000	0.0000000E+000	44.5007	1.01758	45.4993	-1.72488e-06	-4.55228e-06	9.33342e-10	-4.55322e-06	0.262076	15081.5	3.09212	15084.6
100.032	13.1391	11.6134	17.5359	-41.473	9.52881	0.262035	-0.0167843	137	60.0879	1	10	0.00498336	0.000284181	0	-8.26128e-05	2.27182e-05	2.48977e-05	21.8622	0.087612	0.0813111	-0.0326246	-41.2177	17.5754	13.2204	11.5808	0.0427278	0.0377664	0.057026	41.473	60087.9	67981.6	90730.6	-48.527	0.0000000E+000	0.0000000E+000	0.0000000E+000	48.527	0.0000000E+000	0.0000000E+000	0.0000000E+000	-48.527	0.0000000E+000	0.0000000E+000	0.0000000E+000	-41.473	0.0000000E+000	0.0000000E+000	0.0000000E+000	41.473	1.13137	48.527	-2.14856e-06	-4.39807e-06	-3.8131e-10	-4.39769e-06	0.262012	15611.9	1.35354	15610.5
[...]
1.00006	38.1743	3.5731	38.3411	-5.34729	19.2769	0.262066	-0.00625901	44539.7	386.819	1	12	0.00498722	0.000130075	0	-9.88625e-05	-0.000263931	2.64563e-06	-6.19775	0.0203393	0.0202204	0.00219584	-5.34774	38.3615	38.1945	3.5753	0.0259682	0.00243061	0.0260817	5.34729	386819	4.1327e+06	4.15076e+06	-84.6527	0.0000000E+000	0.0000000E+000	0.0000000E+000	84.6527	0.0000000E+000	0.0000000E+000	0.0000000E+000	-84.6527	0.0000000E+000	0.0000000E+000	0.0000000E+000	-5.34729	0.0000000E+000	0.0000000E+000	0.0000000E+000	5.34729	10.6838	84.6527	3.78443e-07	-1.64027e-06	1.65195e-09	-1.64193e-06	0.26233	41870.2	42.1682	41912.4
0.316193	40.5142	3.92698	40.7041	-5.5363	33.6192	0.262058	-0.00451329	128177	1193.03	1	12	0.00498615	0.000122498	0	-0.000125811	-0.000397701	3.84665e-06	-13.2269	0.0314019	0.0305689	0.00718501	-5.54221	40.7352	40.5448	3.93416	0.024453	0.00237019	0.0245676	5.5363	1.19303e+06	1.23083e+07	1.2366e+07	-84.4637	0.0000000E+000	0.0000000E+000	0.0000000E+000	84.4637	0.0000000E+000	0.0000000E+000	0.0000000E+000	-84.4637	0.0000000E+000	0.0000000E+000	0.0000000E+000	-5.5363	0.0000000E+000	0.0000000E+000	0.0000000E+000	5.5363	10.3169	84.4637	-1.73653e-05	-1.18274e-06	1.79494e-09	-1.18454e-06	0.262456	58063.8	88.1178	58151.9
0.0999041	43.1431	5.10562	43.4441	-6.74909	78.8272	0.262054	-0.00380142	312024	4309.47	1	12	0.00498928	0.000114844	0	-0.00021567	-3.46116e-05	4.80674e-06	-19.2875	0.0418547	0.0395055	0.013825	-6.76106	43.485	43.1826	5.11945	0.0228586	0.00270512	0.0230181	6.74909	4.30946e+06	3.64155e+07	3.66696e+07	-83.2509	0.0000000E+000	0.0000000E+000	0.0000000E+000	83.2509	0.0000000E+000	0.0000000E+000	0.0000000E+000	-83.2509	0.0000000E+000	0.0000000E+000	0.0000000E+000	-6.74909	0.0000000E+000	0.0000000E+000	0.0000000E+000	6.74909	8.45011	83.2509	-2.94673e-05	-9.96176e-07	1.31573e-10	-9.96308e-07	0.262089	68935.9	9.10493	68945
0.0315922	46.0689	8.82563	46.9067	-10.845	221.711	0.262064	-0.00152535	570814	20207.7	1	12	0.00499155	0.000106414	0	-0.000145689	-0.000302151	2.51733e-06	-7.74303	0.0236559	0.0234402	0.00318716	-10.8435	46.9303	46.0923	8.82882	0.0209382	0.00401122	0.0213189	10.845	2.02077e+07	1.05482e+08	1.074e+08	-79.155	0.0000000E+000	0.0000000E+000	0.0000000E+000	79.155	0.0000000E+000	0.0000000E+000	0.0000000E+000	-79.155	0.0000000E+000	0.0000000E+000	0.0000000E+000	-10.845	0.0000000E+000	0.0000000E+000	0.0000000E+000	10.845	5.2199	79.155	6.1513e-05	-3.99741e-07	4.60887e-10	-4.00202e-07	0.262367	171806	198.086	172004
0.0100092	51.5597	18.6923	54.8434	-19.9275	672.933	0.262055	5.39081e-05	850665	98818	1	12	0.0049853	9.09005e-05	0	-0.000231819	-0.000225711	2.12551e-06	-2.3472	0.0233828	0.0233632	0.000957642	-19.9201	54.8657	51.583	18.6933	0.017142	0.00621461	0.0182337	19.9275	9.8818e+07	2.72573e+08	2.89933e+08	-70.0725	0.0000000E+000	0.0000000E+000	0.0000000E+000	70.0725	0.0000000E+000	0.0000000E+000	0.0000000E+000	-70.0725	0.0000000E+000	0.0000000E+000	0.0000000E+000	-19.9275	0.0000000E+000	0.0000000E+000	0.0000000E+000	19.9275	2.75833	70.0725	-0.00015985	1.41269e-08	-1.21677e-11	1.41391e-08	0.262281	4.86115e+06	4186.96	4.86534e+06