Folder: EIS/txt (part 75)

File: 18303_R274_UC74_SOC50_C01.mpt
EC-Lab ASCII FILE
Nb header lines : 65

Potentio Electrochemical Impedance Spectroscopy

Run on channel : 1 (SN 66354)
User :
CE vs. WE compliance from -10 V to 10 V
Electrode connection : standard
Potential control : Ewe
Ewe ctrl range : min = -10.00 V, max = 10.00 V
Safety Limits :
	Do not start on E overload
Acquisition started on : 10/09/2025 15:25:39.695
Technique started on : 10/09/2025 15:25:42.390
Loaded Setting File :  C:\Users\Celltest\OneDrive - store-dot.com\Documents\EC-Lab\Data\txt_done\UC80_17231_EIS_50SOC.mps
Saved on :
	File : 18303_R274_UC74_SOC50_C01.mpr
	Directory : C:\Users\Celltest\OneDrive - store-dot.com\Documents\EC-Lab\Data\Michael\
	Host : 169.254.61.224
Device : VMP-3e (SN .003165)
Address : USB
EC-LAB for windows v11.62 (software)
Internet server v27.00 (firmware)
Command interpretor v12.03 (firmware)
Electrode material :
Initial state :
Electrolyte :
Comments :
Electrode surface area : 0.001 cm²
Characteristic mass : 0.001 g
Equivalent Weight : 0.000 g/eq.
Density : 0.000 g/cm3
Volume (V) : 0.001 cm³
Record Ece
Cycle Definition : Charge/Discharge alternance
Mode                Multi sine
E (V)               0.0000
vs.                 Eoc
tE (h:m:s)          0:00:0.0000
record              0
dI                  0.000
unit dI             mA
dt (s)              0.000
fi                  1.000
unit fi             MHz
ff                  0.100
unit ff             mHz
Nd                  10
Points              per decade
spacing             Logarithmic
Va (mV)             5.0
pw                  0.10
Na                  2
corr                0
E range min (V)     -10.000
E range max (V)     10.000
I Range             Auto
Bandwidth           5
nc cycles           0
goto Ns'            0
nr cycles           0
inc. cycle          0

freq/Hz	Re(Z)/Ohm	-Im(Z)/Ohm	|Z|/Ohm	Phase(Z)/deg	time/s	<Ewe>/V	<I>/mA	Cs/µF	Cp/µF	cycle number	I Range	|Ewe|/V	|I|/A	Ns	(Q-Qo)/mA.h	<Ece>/V	|Ece|/V	Phase(Zce)/deg	|Zce|/Ohm	Re(Zce)/Ohm	-Im(Zce)/Ohm	Phase(Zwe-ce)/deg	|Zwe-ce|/Ohm	Re(Zwe-ce)/Ohm	-Im(Zwe-ce)/Ohm	Re(Y)/Ohm-1	Im(Y)/Ohm-1	|Y|/Ohm-1	Phase(Y)/deg	Re(C)/nF	Im(C)/nF	|C|/nF	Phase(C)/deg	Re(M)	Im(M)	|M|	Phase(M)/deg	Re(Permittivity)	Im(Permittivity)	|Permittivity|	Phase(Permittivity)/deg	Re(Resistivity)/Ohm.cm	Im(Resistivity)/Ohm.cm	|Resistivity|/Ohm.cm	Phase(Resistivity)/deg	Re(Conductivity)/mS/cm	Im(Conductivity)/mS/cm	|Conductivity|/mS/cm	Phase(Conductivity)/deg	Tan(Delta)	Loss Angle(Delta)/deg	dq/mA.h	Pwe/W	Pce/W	Pwe-ce/W	<Ewe-Ece>/V	Rwe/Ohm	Rce/Ohm	Rwe-ce/Ohm		Ewe-Ece/V
1.00002e+06	1.09689	-0.0272721	1.09723	1.42426	2.69456	3.88584	0.120997	-5.83571	-0.00360525	1	9	0.000213617	0.000194687	0	3.35748e-07	0.000231267	0.000190469	-6.84351	0.978334	0.971364	0.116576	-2.47242	2.07018	2.06825	0.0893043	0.911105	-0.0226529	0.911387	-1.42426	-3.60525	145.004	145.049	-91.4243	0.0000000E+000	0.0000000E+000	0.0000000E+000	91.4243	0.0000000E+000	0.0000000E+000	0.0000000E+000	-91.4243	0.0000000E+000	0.0000000E+000	0.0000000E+000	1.42426	0.0000000E+000	0.0000000E+000	0.0000000E+000	-1.42426	40.2203	88.5757	3.35748e-07	0.000470177	2.79828e-08	0.000470149	3.88561	32115.1	1.91134	32113.2
251206	0.645629	0.235286	0.687166	-20.0232	4.99656	3.88553	0.0694748	2.69273	0.315692	1	9	0.00177272	0.00257976	0	4.37757e-05	2.1417e-05	6.24769e-05	111.218	0.0242181	-0.00876508	-0.0225763	-18.4691	0.671447	0.636864	0.21271	1.36729	0.49828	1.45525	20.0232	315.692	866.263	921.994	-69.9768	0.0000000E+000	0.0000000E+000	0.0000000E+000	69.9768	0.0000000E+000	0.0000000E+000	0.0000000E+000	-69.9768	0.0000000E+000	0.0000000E+000	0.0000000E+000	-20.0232	0.0000000E+000	0.0000000E+000	0.0000000E+000	20.0232	2.74402	69.9768	5.46969e-06	0.000269946	1.48794e-09	0.000269945	3.88551	55927.2	0.308269	55926.9
63093.8	0.994963	0.347068	1.05376	-19.23	7.29655	3.88543	0.0535672	7.26807	0.788434	1	9	0.00529115	0.00502121	0	8.10013e-05	-0.000150279	4.13282e-05	85.6083	0.00823072	0.000630263	-0.00820655	-18.7966	1.05168	0.995593	0.338861	0.896034	0.312559	0.948984	19.23	788.434	2260.26	2393.82	-70.77	0.0000000E+000	0.0000000E+000	0.0000000E+000	70.77	0.0000000E+000	0.0000000E+000	0.0000000E+000	-70.77	0.0000000E+000	0.0000000E+000	0.0000000E+000	-19.23	0.0000000E+000	0.0000000E+000	0.0000000E+000	19.23	2.86677	70.77	-8.1605e-06	0.000208132	-8.05002e-09	0.00020814	3.88558	72533.8	2.80542	72536.6
15847.7	1.28686	0.413545	1.35168	-17.8153	9.47255	3.88543	0.0474575	24.2846	2.27317	1	9	0.00545911	0.00403877	0	9.56909e-05	0.000135881	6.17579e-06	-17.9712	0.00152912	0.00145452	0.000471793	-17.8155	1.3532	1.28831	0.414017	0.704346	0.226349	0.739823	17.8153	2273.17	7073.6	7429.88	-72.1847	0.0000000E+000	0.0000000E+000	0.0000000E+000	72.1847	0.0000000E+000	0.0000000E+000	0.0000000E+000	-72.1847	0.0000000E+000	0.0000000E+000	0.0000000E+000	-17.8153	0.0000000E+000	0.0000000E+000	0.0000000E+000	17.8153	3.11178	72.1847	6.30943e-06	0.000184393	6.44856e-09	0.000184386	3.8853	81871.9	2.86321	81869
3983.6	1.68634	0.61016	1.79333	-19.8914	11.0711	3.88529	-0.0553273	65.4788	7.57995	1	9	0.00476659	0.00265795	0	0.000115895	0.000364808	1.22166e-05	-36.3256	0.00459625	0.00370303	0.00272269	-19.9328	1.79774	1.69004	0.612882	0.524353	0.189724	0.557621	19.8914	7579.95	20949.2	22278.4	-70.1086	0.0000000E+000	0.0000000E+000	0.0000000E+000	70.1086	0.0000000E+000	0.0000000E+000	0.0000000E+000	-70.1086	0.0000000E+000	0.0000000E+000	0.0000000E+000	-19.8914	0.0000000E+000	0.0000000E+000	0.0000000E+000	19.8914	2.76377	70.1086	-2.85159e-06	-0.000214962	-2.01839e-08	-0.000214942	3.88492	70223.7	6.59365	70217.1
1000.32	2.32431	0.921037	2.50015	-21.6165	13.6998	3.88527	-0.0121123	172.744	23.4437	1	9	0.0045992	0.00183957	0	0.000101775	0.000326654	6.95506e-06	37.7694	0.00378081	0.00298866	-0.00231569	-21.542	2.50208	2.3273	0.918721	0.371846	0.147348	0.399976	21.6165	23443.7	59162.2	63637.8	-68.3835	0.0000000E+000	0.0000000E+000	0.0000000E+000	68.3835	0.0000000E+000	0.0000000E+000	0.0000000E+000	-68.3835	0.0000000E+000	0.0000000E+000	0.0000000E+000	-21.6165	0.0000000E+000	0.0000000E+000	0.0000000E+000	21.6165	2.52358	68.3835	-2.68846e-06	-4.70594e-05	-3.95651e-09	-4.70554e-05	3.88494	320772	26.9689	320745
251.044	3.461	1.04081	3.61411	-16.7373	16.6471	3.88531	-0.0517751	609.114	50.517	1	10	0.00457883	0.00126693	0	7.40005e-05	-3.5815e-05	1.5588e-05	-9.29633	0.0123037	0.0121421	0.00198755	-16.7122	3.62631	3.47314	1.0428	0.264971	0.0796834	0.276693	16.7373	50517	167984	175416	-73.2627	0.0000000E+000	0.0000000E+000	0.0000000E+000	73.2627	0.0000000E+000	0.0000000E+000	0.0000000E+000	-73.2627	0.0000000E+000	0.0000000E+000	0.0000000E+000	-16.7373	0.0000000E+000	0.0000000E+000	0.0000000E+000	16.7373	3.3253	73.2627	-6.6004e-06	-0.000201162	1.85432e-09	-0.000201164	3.88535	75042.2	0.691742	75042.9
63.0823	4.23539	0.534466	4.26898	-7.19217	19.3679	3.88532	-0.045771	4720.55	73.992	1	10	0.00455827	0.00106777	0	3.49272e-05	-0.000302897	9.75228e-06	-63.8133	0.00913334	0.00403053	0.00819589	-7.29441	4.27401	4.23942	0.542662	0.232405	0.0293273	0.234248	7.19217	73992	586352	591002	-82.8078	0.0000000E+000	0.0000000E+000	0.0000000E+000	82.8078	0.0000000E+000	0.0000000E+000	0.0000000E+000	-82.8078	0.0000000E+000	0.0000000E+000	0.0000000E+000	-7.19217	0.0000000E+000	0.0000000E+000	0.0000000E+000	7.19217	7.92453	82.8078	-5.39406e-06	-0.000177835	1.38639e-08	-0.000177849	3.88562	84886.1	6.61767	84892.8
[...]
0.0602816	5.5379	1.12647	5.65131	-11.4977	240.432	3.88533	-0.0220513	2.34377e+06	93123	1	11	0.00503008	0.000890073	0	-0.0051856	0.000269422	6.77275e-07	4.76306	0.000760921	0.000758293	-6.31833e-05	-11.4956	5.65204	5.53866	1.12641	0.173399	0.0352713	0.17695	11.4977	9.3123e+07	4.57807e+08	4.67182e+08	-78.5023	0.0000000E+000	0.0000000E+000	0.0000000E+000	78.5023	0.0000000E+000	0.0000000E+000	0.0000000E+000	-78.5023	0.0000000E+000	0.0000000E+000	0.0000000E+000	-11.4977	0.0000000E+000	0.0000000E+000	0.0000000E+000	11.4977	4.91615	78.5023	0.000000000000000E+000	-8.56767e-05	-5.94111e-09	-8.56707e-05	3.88506	176195	12.2179	176182
0.00796479	7.93216	2.16191	8.2215	-15.2456	20329.3	3.88534	0.000801818	9.24292e+06	639118	1	11	0.00502255	0.000610905	0	-0.0621202	-1.67377e-05	4.53212e-07	-11.4365	0.00074187	0.00072714	0.0001471	-15.2453	8.22224	7.93289	2.16205	0.117352	0.0319842	0.121632	15.2456	6.39118e+08	2.34496e+09	2.4305e+09	-74.7544	0.0000000E+000	0.0000000E+000	0.0000000E+000	74.7544	0.0000000E+000	0.0000000E+000	0.0000000E+000	-74.7544	0.0000000E+000	0.0000000E+000	0.0000000E+000	-15.2456	0.0000000E+000	0.0000000E+000	0.0000000E+000	15.2456	3.66906	74.7544	-0.0569346	3.11534e-06	-1.34206e-11	3.11535e-06	3.88536	4.84567e+06	20.8746	4.84569e+06
0.0019912	9.32326	3.77051	10.0568	-22.0194	20329.3	3.88534	0.000801818	2.11986e+07	2.97978e+06	1	11	0.00503553	0.000500707	0	-0.0621202	-1.67377e-05	8.21196e-07	-39.7475	0.00164007	0.001261	0.00104867	-22.0222	10.0584	9.32452	3.77156	0.0921819	0.0372801	0.0994349	22.0194	2.97978e+09	7.36803e+09	7.94776e+09	-67.9806	0.0000000E+000	0.0000000E+000	0.0000000E+000	67.9806	0.0000000E+000	0.0000000E+000	0.0000000E+000	-67.9806	0.0000000E+000	0.0000000E+000	0.0000000E+000	-22.0194	0.0000000E+000	0.0000000E+000	0.0000000E+000	22.0194	2.47268	67.9806	0.000000000000000E+000	3.11534e-06	-1.34206e-11	3.11535e-06	3.88536	4.84567e+06	20.8746	4.84569e+06
0.000497799	10.1376	10.6321	14.6905	-46.364	20329.3	3.88534	0.000801818	3.00709e+07	1.57511e+07	1	11	0.00503722	0.000342889	0	-0.0621202	-1.67377e-05	5.57686e-07	1.11936	0.00162644	0.00162612	-3.17729e-05	-46.3593	14.6916	10.1392	10.6321	0.046974	0.0492656	0.068071	46.364	1.57511e+10	1.50184e+10	2.17635e+10	-43.636	0.0000000E+000	0.0000000E+000	0.0000000E+000	43.636	0.0000000E+000	0.0000000E+000	0.0000000E+000	-43.636	0.0000000E+000	0.0000000E+000	0.0000000E+000	-46.364	0.0000000E+000	0.0000000E+000	0.0000000E+000	46.364	0.953485	43.636	0.000000000000000E+000	3.11534e-06	-1.34206e-11	3.11535e-06	3.88536	4.84567e+06	20.8746	4.84569e+06
9.95598e-05	6.52096	73.7551	74.0428	-84.9474	20329.3	3.88534	0.000801818	2.16742e+07	2.15061e+07	1	11	0.00502973	6.79299e-05	0	-0.0621202	-1.67377e-05	2.05402e-06	-95.7395	0.0302373	-0.00302389	0.0300858	-84.9518	74.0725	6.51793	73.7852	0.00118945	0.0134532	0.0135057	84.9474	2.15061e+10	1.90143e+09	2.159e+10	-5.05259	0.0000000E+000	0.0000000E+000	0.0000000E+000	5.05259	0.0000000E+000	0.0000000E+000	0.0000000E+000	-5.05259	0.0000000E+000	0.0000000E+000	0.0000000E+000	-84.9474	0.0000000E+000	0.0000000E+000	0.0000000E+000	84.9474	0.0884136	5.05258	0.000000000000000E+000	3.11534e-06	-1.34206e-11	3.11535e-06	3.88536	4.84567e+06	20.8746	4.84569e+06

File: 18304_R274_UC74_SOC50_C02.mpt
EC-Lab ASCII FILE
Nb header lines : 65

Potentio Electrochemical Impedance Spectroscopy

Run on channel : 2 (SN 66139)
User :
CE vs. WE compliance from -10 V to 10 V
Electrode connection : standard
Potential control : Ewe
Ewe ctrl range : min = -10.00 V, max = 10.00 V
Safety Limits :
	Do not start on E overload
Acquisition started on : 10/09/2025 15:26:01.172
Technique started on : 10/09/2025 15:26:03.406
Loaded Setting File :  C:\Users\Celltest\OneDrive - store-dot.com\Documents\EC-Lab\Data\txt_done\UC80_17231_EIS_50SOC.mps
Saved on :
	File : 18304_R274_UC74_SOC50_C02.mpr
	Directory : C:\Users\Celltest\OneDrive - store-dot.com\Documents\EC-Lab\Data\Michael\
	Host : 169.254.61.224
Device : VMP-3e (SN .003165)
Address : USB
EC-LAB for windows v11.62 (software)
Internet server v27.00 (firmware)
Command interpretor v12.03 (firmware)
Electrode material :
Initial state :
Electrolyte :
Comments :
Electrode surface area : 0.001 cm²
Characteristic mass : 0.001 g
Equivalent Weight : 0.000 g/eq.
Density : 0.000 g/cm3
Volume (V) : 0.001 cm³
Record Ece
Cycle Definition : Charge/Discharge alternance
Mode                Multi sine
E (V)               0.0000
vs.                 Eoc
tE (h:m:s)          0:00:0.0000
record              0
dI                  0.000
unit dI             mA
dt (s)              0.000
fi                  1.000
unit fi             MHz
ff                  0.100
unit ff             mHz
Nd                  10
Points              per decade
spacing             Logarithmic
Va (mV)             5.0
pw                  0.10
Na                  2
corr                0
E range min (V)     -10.000
E range max (V)     10.000
I Range             Auto
Bandwidth           5
nc cycles           0
goto Ns'            0
nr cycles           0
inc. cycle          0

freq/Hz	Re(Z)/Ohm	-Im(Z)/Ohm	|Z|/Ohm	Phase(Z)/deg	time/s	<Ewe>/V	<I>/mA	Cs/µF	Cp/µF	cycle number	I Range	|Ewe|/V	|I|/A	Ns	(Q-Qo)/mA.h	<Ece>/V	|Ece|/V	Phase(Zce)/deg	|Zce|/Ohm	Re(Zce)/Ohm	-Im(Zce)/Ohm	Phase(Zwe-ce)/deg	|Zwe-ce|/Ohm	Re(Zwe-ce)/Ohm	-Im(Zwe-ce)/Ohm	Re(Y)/Ohm-1	Im(Y)/Ohm-1	|Y|/Ohm-1	Phase(Y)/deg	Re(C)/nF	Im(C)/nF	|C|/nF	Phase(C)/deg	Re(M)	Im(M)	|M|	Phase(M)/deg	Re(Permittivity)	Im(Permittivity)	|Permittivity|	Phase(Permittivity)/deg	Re(Resistivity)/Ohm.cm	Im(Resistivity)/Ohm.cm	|Resistivity|/Ohm.cm	Phase(Resistivity)/deg	Re(Conductivity)/mS/cm	Im(Conductivity)/mS/cm	|Conductivity|/mS/cm	Phase(Conductivity)/deg	Tan(Delta)	Loss Angle(Delta)/deg	dq/mA.h	Pwe/W	Pce/W	Pwe-ce/W	<Ewe-Ece>/V	Rwe/Ohm	Rce/Ohm	Rwe-ce/Ohm		Ewe-Ece/V
1.00002e+06	1.88254	2.81484	3.38633	-56.2258	2.23356	3.88536	0.0135526	0.0565404	0.0390666	1	10	0.000183897	5.43055e-05	0	3.74214e-06	-0.000114203	0.000171485	-70.4043	3.15778	1.05906	2.97489	-63.0662	6.49414	2.9416	5.78973	0.164166	0.245468	0.295305	56.2258	39.0666	26.1274	46.9983	-33.7742	0.0000000E+000	0.0000000E+000	0.0000000E+000	33.7742	0.0000000E+000	0.0000000E+000	0.0000000E+000	-33.7742	0.0000000E+000	0.0000000E+000	0.0000000E+000	-56.2258	0.0000000E+000	0.0000000E+000	0.0000000E+000	56.2258	0.66879	33.7742	3.74214e-06	5.26566e-05	-1.54774e-09	5.26581e-05	3.88547	286688	8.42664	286696
251206	0.84634	0.117979	0.854524	-7.93581	4.94053	3.88537	0.040712	5.37015	0.102363	1	9	0.000948871	0.00111041	0	2.71059e-05	-0.000133293	4.78927e-05	71.3692	0.0431307	0.0137789	-0.0408705	-5.12277	0.863568	0.860119	0.0771082	1.15904	0.161568	1.17024	7.93581	102.363	734.322	741.422	-82.0642	0.0000000E+000	0.0000000E+000	0.0000000E+000	82.0642	0.0000000E+000	0.0000000E+000	0.0000000E+000	-82.0642	0.0000000E+000	0.0000000E+000	0.0000000E+000	-7.93581	0.0000000E+000	0.0000000E+000	0.0000000E+000	7.93581	7.17367	82.0642	4.52514e-06	0.000158181	-5.42665e-09	0.000158187	3.8855	95435.4	3.27406	95438.7
63093.8	-0.0311758	-0.212311	0.214588	98.3536	7.0206	3.88533	0.0382538	-11.8812	-11.6304	1	9	4.72527e-05	0.000220202	0	4.65871e-05	-3.78392e-05	1.48348e-05	142.986	0.0673693	-0.0537936	-0.040557	108.574	0.266762	-0.0849694	-0.252868	-0.67703	-4.61065	4.6601	-98.3536	-11630.4	-1707.82	11755.2	171.646	0.0000000E+000	0.0000000E+000	0.0000000E+000	-171.646	0.0000000E+000	0.0000000E+000	0.0000000E+000	171.646	0.0000000E+000	0.0000000E+000	0.0000000E+000	98.3536	0.0000000E+000	0.0000000E+000	0.0000000E+000	-98.3536	0.14684	8.35363	1.84345e-06	0.000148629	-1.44749e-09	0.00014863	3.88537	101567	0.989163	101568
15847.7	1.42061	0.421746	1.48189	-16.5349	9.80253	3.88529	0.0219029	23.8124	1.92874	1	9	0.00493986	0.00333349	0	0.000255515	0.000305796	9.8208e-06	-50.0365	0.00294611	0.00189228	0.00225805	-16.5977	1.48435	1.4225	0.424004	0.646907	0.192052	0.674813	16.5349	1928.74	6496.76	6777.01	-73.4651	0.0000000E+000	0.0000000E+000	0.0000000E+000	73.4651	0.0000000E+000	0.0000000E+000	0.0000000E+000	-73.4651	0.0000000E+000	0.0000000E+000	0.0000000E+000	-16.5349	0.0000000E+000	0.0000000E+000	0.0000000E+000	16.5349	3.3684	73.4651	3.43473e-08	8.5099e-05	6.69782e-09	8.50923e-05	3.88498	177387	13.9614	177373
3983.6	1.80199	0.569687	1.8899	-17.544	11.7731	3.8852	-0.0199988	70.1307	6.37241	1	9	0.00514674	0.00272329	0	0.000271879	0.000133978	8.5257e-06	-117.551	0.00313066	-0.00144806	0.00277564	-17.6375	1.88936	1.80054	0.572463	0.504517	0.1595	0.529129	17.544	6372.41	20156.7	21140	-72.456	0.0000000E+000	0.0000000E+000	0.0000000E+000	72.456	0.0000000E+000	0.0000000E+000	0.0000000E+000	-72.456	0.0000000E+000	0.0000000E+000	0.0000000E+000	-17.544	0.0000000E+000	0.0000000E+000	0.0000000E+000	17.544	3.16312	72.456	-2.33299e-06	-7.76993e-05	-2.6794e-09	-7.76966e-05	3.88507	194272	6.69934	194266
1000.32	2.37144	0.862182	2.52331	-19.9797	14.4018	3.88519	-0.00387131	184.536	21.5446	1	9	0.00495817	0.00196495	0	0.000260075	1.94333e-05	8.27509e-06	32.7484	0.00421136	0.00354198	-0.00227814	-19.9037	2.52586	2.37498	0.859904	0.372453	0.135412	0.396305	19.9797	21544.6	59258.7	63053.7	-70.0203	0.0000000E+000	0.0000000E+000	0.0000000E+000	70.0203	0.0000000E+000	0.0000000E+000	0.0000000E+000	-70.0203	0.0000000E+000	0.0000000E+000	0.0000000E+000	-19.9797	0.0000000E+000	0.0000000E+000	0.0000000E+000	19.9797	2.75051	70.0203	7.12064e-07	-1.50408e-05	-7.52325e-11	-1.50407e-05	3.88517	1.00358e+06	5.01983	1.00358e+06
251.044	3.45778	1.03852	3.61037	-16.7173	17.3491	3.88522	-0.0159735	610.454	50.5105	1	10	0.00492739	0.00136479	0	0.000246813	9.57967e-05	1.26191e-05	17.2395	0.00924622	0.00883083	-0.00274027	-16.6355	3.61805	3.46662	1.03578	0.265273	0.0796731	0.27698	16.7173	50510.5	168176	175597	-73.2827	0.0000000E+000	0.0000000E+000	0.0000000E+000	73.2827	0.0000000E+000	0.0000000E+000	0.0000000E+000	-73.2827	0.0000000E+000	0.0000000E+000	0.0000000E+000	-16.7173	0.0000000E+000	0.0000000E+000	0.0000000E+000	16.7173	3.32952	73.2827	-2.02627e-06	-6.20605e-05	-1.53021e-09	-6.2059e-05	3.88512	243230	5.99724	243224
[...]
0.0602816	5.60622	1.11718	5.71645	-11.2699	241.127	3.88524	-0.00809093	2.36327e+06	90261.7	1	11	0.0050005	0.000874755	0	-0.0037605	-1.87484e-05	2.47015e-07	11.1845	0.000282381	0.000277018	-5.4773e-05	-11.2689	5.71671	5.6065	1.11712	0.171561	0.0341876	0.174934	11.2699	9.02617e+07	4.52952e+08	4.61858e+08	-78.7301	0.0000000E+000	0.0000000E+000	0.0000000E+000	78.7301	0.0000000E+000	0.0000000E+000	0.0000000E+000	-78.7301	0.0000000E+000	0.0000000E+000	0.0000000E+000	-11.2699	0.0000000E+000	0.0000000E+000	0.0000000E+000	11.2699	5.01821	78.7301	0.000000000000000E+000	-3.14352e-05	1.51692e-10	-3.14353e-05	3.88525	480196	2.31721	480198
0.00796479	8.11628	2.25837	8.42462	-15.5493	20330.1	3.88522	0.000395263	8.84812e+06	635829	1	11	0.00499492	0.000592895	0	-0.059991	0.000114888	2.1284e-07	-59.9659	0.000358984	0.000179677	0.000310782	-15.551	8.42488	8.11646	2.25868	0.114355	0.0318196	0.1187	15.5493	6.35829e+08	2.28508e+09	2.3719e+09	-74.4507	0.0000000E+000	0.0000000E+000	0.0000000E+000	74.4507	0.0000000E+000	0.0000000E+000	0.0000000E+000	-74.4507	0.0000000E+000	0.0000000E+000	0.0000000E+000	-15.5493	0.0000000E+000	0.0000000E+000	0.0000000E+000	15.5493	3.59387	74.4507	-0.0562305	1.53568e-06	4.54108e-11	1.53564e-06	3.88511	9.82947e+06	290.661	9.82918e+06
0.0019912	9.55609	3.89943	10.3211	-22.1983	20330.1	3.88522	0.000395263	2.04977e+07	2.92589e+06	1	11	0.0050074	0.000485163	0	-0.059991	0.000114888	2.82347e-07	-55.2462	0.000581964	0.000331749	0.000478147	-22.2	10.3216	9.55642	3.89991	0.089708	0.036606	0.0968892	22.1983	2.92589e+09	7.1703e+09	7.74429e+09	-67.8017	0.0000000E+000	0.0000000E+000	0.0000000E+000	67.8017	0.0000000E+000	0.0000000E+000	0.0000000E+000	-67.8017	0.0000000E+000	0.0000000E+000	0.0000000E+000	-22.1983	0.0000000E+000	0.0000000E+000	0.0000000E+000	22.1983	2.45064	67.8017	0.000000000000000E+000	1.53568e-06	4.54108e-11	1.53564e-06	3.88511	9.82947e+06	290.661	9.82918e+06
0.000497799	10.3412	10.9392	15.0534	-46.6096	20330.1	3.88522	0.000395263	2.92269e+07	1.5434e+07	1	11	0.00500694	0.000332612	0	-0.059991	0.000114888	8.15629e-07	-76.4374	0.0024522	0.000575059	0.00238382	-46.6142	15.0555	10.3418	10.9415	0.0456353	0.0482741	0.0664301	46.6096	1.5434e+10	1.45904e+10	2.12389e+10	-43.3904	0.0000000E+000	0.0000000E+000	0.0000000E+000	43.3904	0.0000000E+000	0.0000000E+000	0.0000000E+000	-43.3904	0.0000000E+000	0.0000000E+000	0.0000000E+000	-46.6096	0.0000000E+000	0.0000000E+000	0.0000000E+000	46.6096	0.945337	43.3904	0.000000000000000E+000	1.53568e-06	4.54108e-11	1.53564e-06	3.88511	9.82947e+06	290.661	9.82918e+06
9.95598e-05	7.26812	75.9639	76.3108	-84.5347	20330.1	3.88522	0.000395263	2.1044e+07	2.08531e+07	1	11	0.00500945	6.56454e-05	0	-0.059991	0.000114888	1.99213e-06	-71.5673	0.0303468	0.00959536	0.0287899	-84.5295	76.3404	7.27771	75.9927	0.0012481	0.0130447	0.0131043	84.5347	2.08531e+10	1.9952e+09	2.09484e+10	-5.46535	0.0000000E+000	0.0000000E+000	0.0000000E+000	5.46535	0.0000000E+000	0.0000000E+000	0.0000000E+000	-5.46535	0.0000000E+000	0.0000000E+000	0.0000000E+000	-84.5347	0.0000000E+000	0.0000000E+000	0.0000000E+000	84.5347	0.0956786	5.46535	0.000000000000000E+000	1.53568e-06	4.54108e-11	1.53564e-06	3.88511	9.82947e+06	290.661	9.82918e+06