Folder: EIS/txt (part 174)

File: 19159_R306_UA713_SOC00_C07.mpt
EC-Lab ASCII FILE
Nb header lines : 65

Potentio Electrochemical Impedance Spectroscopy

Run on channel : 7 (SN 66126)
Grouped channel(s) : 5, 6, 7, 8
User :
CE vs. WE compliance from -10 V to 10 V
Electrode connection : standard
Potential control : Ewe
Ewe ctrl range : min = -10.00 V, max = 10.00 V
Safety Limits :
	Do not start on E overload
Acquisition started on : 11/12/2025 13:01:01.674
Loaded Setting File :  C:\Users\Celltest\OneDrive - store-dot.com\Documents\EC-Lab\Data\@Biologic Test Protocols\anode half cell EIS SOC00.mps
Saved on :
	File : 19157_R306_UA713_SOC00_C07.mpr
	Directory : C:\Users\Celltest\OneDrive - store-dot.com\Documents\EC-Lab\Data\Charmaine\
	Host : 169.254.61.224
Device : VMP-3e (SN .003165)
Address : USB
EC-LAB for windows v11.62 (software)
Internet server v27.00 (firmware)
Command interpretor v12.03 (firmware)
Electrode material :
Initial state :
Electrolyte :
Comments :
Electrode surface area : 0.001 cm²
Characteristic mass : 0.001 g
Equivalent Weight : 0.000 g/eq.
Density : 0.000 g/cm3
Volume (V) : 0.001 cm³
Record Ece
Cycle Definition : Charge/Discharge alternance
Mode                Single sine
E (V)               0.0000
vs.                 Eoc
tE (h:m:s)          0:00:0.0000
record              0
dI                  0.000
unit dI             mA
dt (s)              0.000
fi                  100.000
unit fi             kHz
ff                  10.000
unit ff             mHz
Nd                  6
Points              per decade
spacing             Logarithmic
Va (mV)             5.0
pw                  0.10
Na                  2
corr                0
E range min (V)     -10.000
E range max (V)     10.000
I Range             Auto
Bandwidth           5
nc cycles           0
goto Ns'            0
nr cycles           0
inc. cycle          0

freq/Hz	Re(Z)/Ohm	-Im(Z)/Ohm	|Z|/Ohm	Phase(Z)/deg	time/s	<Ewe>/V	<I>/mA	Cs/µF	Cp/µF	cycle number	I Range	|Ewe|/V	|I|/A	Ns	(Q-Qo)/mA.h	<Ece>/V	|Ece|/V	Phase(Zce)/deg	|Zce|/Ohm	Re(Zce)/Ohm	-Im(Zce)/Ohm	Phase(Zwe-ce)/deg	|Zwe-ce|/Ohm	Re(Zwe-ce)/Ohm	-Im(Zwe-ce)/Ohm	Re(Y)/Ohm-1	Im(Y)/Ohm-1	|Y|/Ohm-1	Phase(Y)/deg	Re(C)/nF	Im(C)/nF	|C|/nF	Phase(C)/deg	Re(M)	Im(M)	|M|	Phase(M)/deg	Re(Permittivity)	Im(Permittivity)	|Permittivity|	Phase(Permittivity)/deg	Re(Resistivity)/Ohm.cm	Im(Resistivity)/Ohm.cm	|Resistivity|/Ohm.cm	Phase(Resistivity)/deg	Re(Conductivity)/mS/cm	Im(Conductivity)/mS/cm	|Conductivity|/mS/cm	Phase(Conductivity)/deg	Tan(Delta)	Loss Angle(Delta)/deg	dq/mA.h	Pwe/W	Pce/W	Pwe-ce/W	<Ewe-Ece>/V	Rwe/Ohm	Rce/Ohm	Rwe-ce/Ohm		Ewe-Ece/V
100004	2.83265	1.1436	3.05479	-21.9849	2.04251	0.283539	0.0432756	1.39165	0.195036	1	9	0.00463371	0.00151687	0	3.76039e-06	-0.000246909	2.36268e-05	85.0046	0.0155761	0.0013563	-0.0155169	-21.7051	3.05028	2.83401	1.12808	0.30355	0.122549	0.327355	21.9849	195.036	483.097	520.982	-68.0151	0.0000000E+000	0.0000000E+000	0.0000000E+000	68.0151	0.0000000E+000	0.0000000E+000	0.0000000E+000	-68.0151	0.0000000E+000	0.0000000E+000	0.0000000E+000	-21.9849	0.0000000E+000	0.0000000E+000	0.0000000E+000	21.9849	2.47696	68.0151	3.76039e-06	1.22703e-05	-1.06851e-08	1.2281e-05	0.283786	6551.94	5.70549	6557.65
31621.1	3.90767	1.62121	4.23063	-22.5326	3.44352	0.283573	0.0421213	3.10458	0.455904	1	9	0.00509955	0.00120539	0	2.55813e-05	-0.000132456	1.22602e-05	-4.51578	0.0101712	0.0101396	0.000800812	-22.49	4.2403	3.91781	1.62201	0.218328	0.0905796	0.236372	22.5326	455.904	1098.88	1189.7	-67.4674	0.0000000E+000	0.0000000E+000	0.0000000E+000	67.4674	0.0000000E+000	0.0000000E+000	0.0000000E+000	-67.4674	0.0000000E+000	0.0000000E+000	0.0000000E+000	-22.5326	0.0000000E+000	0.0000000E+000	0.0000000E+000	22.5326	2.41034	67.4674	4.77251e-06	1.19445e-05	-5.57922e-09	1.195e-05	0.283706	6732.3	3.14464	6735.45
10002.2	5.26846	1.92498	5.60912	-20.0712	4.74955	0.283606	-0.00990551	8.26604	0.973553	1	10	0.00516737	0.000921243	0	2.48796e-05	-0.000361361	2.23803e-05	61.2713	0.0242935	0.011677	-0.0213032	-19.826	5.61283	5.28014	1.90368	0.167453	0.0611838	0.178281	20.0712	973.553	2664.51	2836.8	-69.9288	0.0000000E+000	0.0000000E+000	0.0000000E+000	69.9288	0.0000000E+000	0.0000000E+000	0.0000000E+000	-69.9288	0.0000000E+000	0.0000000E+000	0.0000000E+000	-20.0712	0.0000000E+000	0.0000000E+000	0.0000000E+000	20.0712	2.73689	69.9288	-2.91109e-07	-2.80926e-06	3.57946e-09	-2.81284e-06	0.283968	28631.2	36.4808	28667.7
3163.08	6.68432	2.3713	7.09248	-19.5324	5.64761	0.283514	-0.00935827	21.2189	2.37193	1	10	0.00524918	0.000740105	0	2.22724e-05	1.07189e-06	1.07979e-05	-55.8081	0.0145896	0.00819887	0.012068	-19.6021	7.10424	6.69252	2.38337	0.132881	0.0471402	0.140994	19.5324	2371.93	6686.08	7094.34	-70.4676	0.0000000E+000	0.0000000E+000	0.0000000E+000	70.4676	0.0000000E+000	0.0000000E+000	0.0000000E+000	-70.4676	0.0000000E+000	0.0000000E+000	0.0000000E+000	-19.5324	0.0000000E+000	0.0000000E+000	0.0000000E+000	19.5324	2.81884	70.4676	-5.62879e-07	-2.6532e-06	-1.00311e-11	-2.65319e-06	0.283513	30295.6	0.11454	30295.5
1000.32	8.4953	3.23085	9.08892	-20.8223	7.0018	0.283536	-0.000907613	49.2453	6.22262	1	10	0.00514571	0.000566152	0	2.21236e-05	-0.000189682	8.43854e-06	62.3175	0.0149051	0.00692449	-0.013199	-20.729	9.09071	8.50222	3.21765	0.102838	0.0391104	0.110024	20.8223	6222.61	16362	17505.3	-69.1777	0.0000000E+000	0.0000000E+000	0.0000000E+000	69.1777	0.0000000E+000	0.0000000E+000	0.0000000E+000	-69.1777	0.0000000E+000	0.0000000E+000	0.0000000E+000	-20.8223	0.0000000E+000	0.0000000E+000	0.0000000E+000	20.8223	2.62943	69.1777	-4.60758e-07	-2.57341e-07	1.72158e-10	-2.57513e-07	0.283726	312398	208.99	312607
316.316	10.9925	4.64446	11.9334	-22.9047	8.35206	0.28354	-0.00127617	108.334	16.4099	1	10	0.00510904	0.00042813	0	2.21529e-05	-0.000170607	1.26774e-05	-21.2329	0.0296111	0.027601	0.0107239	-22.9005	11.963	11.0201	4.65519	0.0771913	0.0326143	0.0837985	22.9047	16409.9	38838.9	42163.4	-67.0953	0.0000000E+000	0.0000000E+000	0.0000000E+000	67.0953	0.0000000E+000	0.0000000E+000	0.0000000E+000	-67.0953	0.0000000E+000	0.0000000E+000	0.0000000E+000	-22.9047	0.0000000E+000	0.0000000E+000	0.0000000E+000	22.9047	2.36679	67.0953	1.43575e-08	-3.61844e-07	2.17723e-10	-3.62062e-07	0.28371	222180	133.687	222314
100.032	15.1136	6.96628	16.6418	-24.7463	9.6998	0.283541	-0.00122405	228.391	40.0203	1	10	0.0051027	0.000306619	0	2.11745e-05	0.000249052	7.10077e-06	-26.392	0.0231583	0.0207446	0.0102941	-24.7486	16.665	15.1344	6.97658	0.0545716	0.0251536	0.0600896	24.7463	40020.3	86825.5	95604.9	-65.2537	0.0000000E+000	0.0000000E+000	0.0000000E+000	65.2537	0.0000000E+000	0.0000000E+000	0.0000000E+000	-65.2537	0.0000000E+000	0.0000000E+000	0.0000000E+000	-24.7463	0.0000000E+000	0.0000000E+000	0.0000000E+000	24.7463	2.16954	65.2537	2.45969e-07	-3.4707e-07	-3.04854e-10	-3.46765e-07	0.283292	231641	203.465	231437
[...]
1.00006	34.8512	3.22871	35.0004	-5.29293	19.44	0.283588	-0.00196819	49290.6	419.444	1	12	0.00510075	0.000145734	0	1.24063e-05	-9.43052e-05	3.26519e-06	31.6227	0.0224051	0.0190784	-0.0117475	-5.27091	35.0183	34.8703	3.21696	0.0284493	0.00263561	0.0285711	5.29293	419444	4.52755e+06	4.54694e+06	-84.7071	0.0000000E+000	0.0000000E+000	0.0000000E+000	84.7071	0.0000000E+000	0.0000000E+000	0.0000000E+000	-84.7071	0.0000000E+000	0.0000000E+000	0.0000000E+000	-5.29293	0.0000000E+000	0.0000000E+000	0.0000000E+000	5.29293	10.7942	84.7071	-5.8488e-06	-5.58155e-07	1.85611e-10	-5.5834e-07	0.283682	144086	47.9147	144134
0.316193	36.4155	2.99977	36.5389	-4.70916	33.7837	0.28359	-0.00251418	167795	1130.95	1	12	0.00510109	0.000139607	0	5.84747e-07	-9.43052e-05	2.24042e-06	-50.7476	0.016048	0.0101542	0.0124271	-4.72727	36.55	36.4257	3.01219	0.0272757	0.00224686	0.0273681	4.70916	1.13095e+06	1.37292e+07	1.37757e+07	-85.2908	0.0000000E+000	0.0000000E+000	0.0000000E+000	85.2908	0.0000000E+000	0.0000000E+000	0.0000000E+000	-85.2908	0.0000000E+000	0.0000000E+000	0.0000000E+000	-4.70916	0.0000000E+000	0.0000000E+000	0.0000000E+000	4.70916	12.1395	85.2908	7.64153e-07	-7.12995e-07	2.371e-10	-7.13232e-07	0.283684	112796	37.5094	112834
0.0999041	38.097	4.54868	38.3675	-6.80874	78.9917	0.283593	-0.000690052	350228	4922.6	1	12	0.00510075	0.000132944	0	4.66731e-05	-0.000265984	1.69454e-06	-19.5158	0.0127462	0.0120139	0.0042581	-6.81293	38.38	38.109	4.55294	0.0258799	0.00308999	0.0260637	6.80874	4.9226e+06	4.12287e+07	4.15215e+07	-83.1913	0.0000000E+000	0.0000000E+000	0.0000000E+000	83.1913	0.0000000E+000	0.0000000E+000	0.0000000E+000	-83.1913	0.0000000E+000	0.0000000E+000	0.0000000E+000	-6.80874	0.0000000E+000	0.0000000E+000	0.0000000E+000	6.80874	8.37538	83.1913	1.75295e-05	-1.95694e-07	1.83543e-10	-1.95877e-07	0.283859	410973	385.455	411358
0.0315922	40.9703	9.15439	41.9805	-12.5953	221.875	0.283597	7.71087e-05	550314	26168.2	1	12	0.00509948	0.000121473	0	-9.42747e-05	-0.000380437	1.48008e-06	61.3276	0.0121845	0.00584614	-0.0106904	-12.5793	41.9839	40.9761	9.1437	0.0232473	0.00519438	0.0238206	12.5953	2.61682e+07	1.17115e+08	1.20003e+08	-77.4047	0.0000000E+000	0.0000000E+000	0.0000000E+000	77.4047	0.0000000E+000	0.0000000E+000	0.0000000E+000	-77.4047	0.0000000E+000	0.0000000E+000	0.0000000E+000	-12.5953	0.0000000E+000	0.0000000E+000	0.0000000E+000	12.5953	4.47548	77.4047	-0.00010339	2.18678e-08	-2.9335e-11	2.18972e-08	0.283978	3.67789e+06	4933.77	3.68282e+06
0.0100092	46.8569	20.4536	51.1265	-23.5819	673.098	0.283594	-0.000859614	777412	124423	1	12	0.00510509	9.98521e-05	0	-0.000321611	-0.000246909	2.96369e-06	18.269	0.0296808	0.0281847	-0.0093043	-23.5597	51.1486	46.8851	20.4443	0.0179259	0.00782489	0.0195593	23.5819	1.24423e+08	2.85038e+08	3.11011e+08	-66.4181	0.0000000E+000	0.0000000E+000	0.0000000E+000	66.4181	0.0000000E+000	0.0000000E+000	0.0000000E+000	-66.4181	0.0000000E+000	0.0000000E+000	0.0000000E+000	-23.5819	0.0000000E+000	0.0000000E+000	0.0000000E+000	23.5819	2.29088	66.4181	4.0404e-05	-2.43782e-07	2.12246e-10	-2.43994e-07	0.283841	329909	287.232	330196

File: 19160_R306_UA713_SOC00_C08.mpt
EC-Lab ASCII FILE
Nb header lines : 65

Potentio Electrochemical Impedance Spectroscopy

Run on channel : 8 (SN 65398)
Grouped channel(s) : 5, 6, 7, 8
User :
CE vs. WE compliance from -10 V to 10 V
Electrode connection : standard
Potential control : Ewe
Ewe ctrl range : min = -10.00 V, max = 10.00 V
Safety Limits :
	Do not start on E overload
Acquisition started on : 11/12/2025 13:01:01.674
Loaded Setting File :  C:\Users\Celltest\OneDrive - store-dot.com\Documents\EC-Lab\Data\@Biologic Test Protocols\anode half cell EIS SOC00.mps
Saved on :
	File : 19157_R306_UA713_SOC00_C08.mpr
	Directory : C:\Users\Celltest\OneDrive - store-dot.com\Documents\EC-Lab\Data\Charmaine\
	Host : 169.254.61.224
Device : VMP-3e (SN .003165)
Address : USB
EC-LAB for windows v11.62 (software)
Internet server v27.00 (firmware)
Command interpretor v12.03 (firmware)
Electrode material :
Initial state :
Electrolyte :
Comments :
Electrode surface area : 0.001 cm²
Characteristic mass : 0.001 g
Equivalent Weight : 0.000 g/eq.
Density : 0.000 g/cm3
Volume (V) : 0.001 cm³
Record Ece
Cycle Definition : Charge/Discharge alternance
Mode                Single sine
E (V)               0.0000
vs.                 Eoc
tE (h:m:s)          0:00:0.0000
record              0
dI                  0.000
unit dI             mA
dt (s)              0.000
fi                  100.000
unit fi             kHz
ff                  10.000
unit ff             mHz
Nd                  6
Points              per decade
spacing             Logarithmic
Va (mV)             5.0
pw                  0.10
Na                  2
corr                0
E range min (V)     -10.000
E range max (V)     10.000
I Range             Auto
Bandwidth           5
nc cycles           0
goto Ns'            0
nr cycles           0
inc. cycle          0

freq/Hz	Re(Z)/Ohm	-Im(Z)/Ohm	|Z|/Ohm	Phase(Z)/deg	time/s	<Ewe>/V	<I>/mA	Cs/µF	Cp/µF	cycle number	I Range	|Ewe|/V	|I|/A	Ns	(Q-Qo)/mA.h	<Ece>/V	|Ece|/V	Phase(Zce)/deg	|Zce|/Ohm	Re(Zce)/Ohm	-Im(Zce)/Ohm	Phase(Zwe-ce)/deg	|Zwe-ce|/Ohm	Re(Zwe-ce)/Ohm	-Im(Zwe-ce)/Ohm	Re(Y)/Ohm-1	Im(Y)/Ohm-1	|Y|/Ohm-1	Phase(Y)/deg	Re(C)/nF	Im(C)/nF	|C|/nF	Phase(C)/deg	Re(M)	Im(M)	|M|	Phase(M)/deg	Re(Permittivity)	Im(Permittivity)	|Permittivity|	Phase(Permittivity)/deg	Re(Resistivity)/Ohm.cm	Im(Resistivity)/Ohm.cm	|Resistivity|/Ohm.cm	Phase(Resistivity)/deg	Re(Conductivity)/mS/cm	Im(Conductivity)/mS/cm	|Conductivity|/mS/cm	Phase(Conductivity)/deg	Tan(Delta)	Loss Angle(Delta)/deg	dq/mA.h	Pwe/W	Pce/W	Pwe-ce/W	<Ewe-Ece>/V	Rwe/Ohm	Rce/Ohm	Rwe-ce/Ohm		Ewe-Ece/V
100004	2.20913	0.829192	2.35962	-20.5735	1.91055	0.286535	-0.049923	1.91933	0.237014	1	9	0.00450497	0.00190919	0	-8.3778e-06	-2.46612e-05	4.20637e-05	102.601	0.0220322	-0.0048065	-0.0215015	-20.1234	2.34764	2.20432	0.807691	0.396768	0.148926	0.423797	20.5735	237.014	631.452	674.468	-69.4265	0.0000000E+000	0.0000000E+000	0.0000000E+000	69.4265	0.0000000E+000	0.0000000E+000	0.0000000E+000	-69.4265	0.0000000E+000	0.0000000E+000	0.0000000E+000	-20.5735	0.0000000E+000	0.0000000E+000	0.0000000E+000	20.5735	2.6642	69.4265	-8.3778e-06	-1.43047e-05	1.23116e-09	-1.43059e-05	0.286559	5739.53	0.493984	5740.02
31621.1	3.02323	1.27849	3.28245	-22.923	3.30955	0.286525	-0.0455704	3.9368	0.597236	1	9	0.00511183	0.00155732	0	-3.06652e-05	-2.46612e-05	6.40617e-06	-55.4099	0.00411358	0.00233529	0.00338644	-22.9616	3.28592	3.02556	1.28188	0.280592	0.11866	0.304651	22.923	597.236	1412.27	1533.36	-67.077	0.0000000E+000	0.0000000E+000	0.0000000E+000	67.077	0.0000000E+000	0.0000000E+000	0.0000000E+000	-67.077	0.0000000E+000	0.0000000E+000	0.0000000E+000	-22.923	0.0000000E+000	0.0000000E+000	0.0000000E+000	22.923	2.36468	67.077	-5.36684e-06	-1.3057e-05	1.12382e-09	-1.30582e-05	0.28655	6287.53	0.541167	6288.07
10002.2	4.07712	1.56931	4.36871	-21.052	4.49056	0.28663	-0.0220628	10.1395	1.30835	1	10	0.00455557	0.00104277	0	-4.48387e-05	-6.28373e-05	1.88752e-05	-37.9455	0.018101	0.0142744	0.0111305	-21.1207	4.38603	4.09139	1.58044	0.213623	0.0822246	0.228901	21.052	1308.35	3399.15	3642.26	-68.948	0.0000000E+000	0.0000000E+000	0.0000000E+000	68.948	0.0000000E+000	0.0000000E+000	0.0000000E+000	-68.948	0.0000000E+000	0.0000000E+000	0.0000000E+000	-21.052	0.0000000E+000	0.0000000E+000	0.0000000E+000	21.052	2.59804	68.948	-4.66746e-06	-6.32387e-06	1.38637e-09	-6.32525e-06	0.286693	12991.5	2.8481	12994.4
3163.08	5.25626	2.01174	5.62809	-20.9434	5.39067	0.286521	-0.0226655	25.0114	3.19565	1	10	0.00464648	0.000825588	0	-5.07616e-05	0.000108955	8.09447e-06	67.4245	0.0098045	0.00376396	-0.00905322	-20.8437	5.62838	5.26003	2.00269	0.165941	0.0635111	0.17768	20.9434	3195.65	8349.58	8940.23	-69.0566	0.0000000E+000	0.0000000E+000	0.0000000E+000	69.0566	0.0000000E+000	0.0000000E+000	0.0000000E+000	-69.0566	0.0000000E+000	0.0000000E+000	0.0000000E+000	-20.9434	0.0000000E+000	0.0000000E+000	0.0000000E+000	20.9434	2.61279	69.0566	-2.88483e-06	-6.49413e-06	-2.46952e-09	-6.49166e-06	0.286412	12641.3	4.8071	12636.5
1000.32	6.78265	2.81289	7.3428	-22.5247	6.74378	0.28659	-0.00204945	56.5624	8.30063	1	10	0.00453014	0.00061695	0	-5.18681e-05	0.000185307	1.41429e-05	18.9588	0.022924	0.0216804	-0.00744773	-22.4065	7.35999	6.80433	2.80545	0.125799	0.0521711	0.136188	22.5247	8300.63	20015.1	21668	-67.4753	0.0000000E+000	0.0000000E+000	0.0000000E+000	67.4753	0.0000000E+000	0.0000000E+000	0.0000000E+000	-67.4753	0.0000000E+000	0.0000000E+000	0.0000000E+000	-22.5247	0.0000000E+000	0.0000000E+000	0.0000000E+000	22.5247	2.41127	67.4753	6.78516e-08	-5.87352e-07	-3.79778e-10	-5.86972e-07	0.286405	139837	90.4181	139747
316.316	8.98042	4.19321	9.91115	-25.0292	8.09307	0.286562	-0.00409543	119.992	21.4782	1	10	0.00449311	0.000453339	0	-5.30479e-05	0.000280748	1.37726e-05	-19.6252	0.0303803	0.0286155	0.0102037	-25.0127	9.9414	9.00903	4.20342	0.0914215	0.0426873	0.100896	25.0292	21478.2	45998.9	50766.2	-64.9708	0.0000000E+000	0.0000000E+000	0.0000000E+000	64.9708	0.0000000E+000	0.0000000E+000	0.0000000E+000	-64.9708	0.0000000E+000	0.0000000E+000	0.0000000E+000	-25.0292	0.0000000E+000	0.0000000E+000	0.0000000E+000	25.0292	2.14166	64.9708	-1.31378e-07	-1.17359e-06	-1.14978e-09	-1.17245e-06	0.286281	69971	68.5514	69902.5
100.032	12.7801	6.48032	14.3292	-26.8878	9.65179	0.286577	-0.00232846	245.519	50.2148	1	10	0.00488058	0.000340603	0	-5.40688e-05	0.000166219	1.06428e-05	14.5288	0.0312469	0.0302477	-0.00783883	-26.8053	14.3527	12.8104	6.47248	0.062243	0.031561	0.0697874	26.8878	50214.8	99031.1	111035	-63.1122	0.0000000E+000	0.0000000E+000	0.0000000E+000	63.1122	0.0000000E+000	0.0000000E+000	0.0000000E+000	-63.1122	0.0000000E+000	0.0000000E+000	0.0000000E+000	-26.8878	0.0000000E+000	0.0000000E+000	0.0000000E+000	26.8878	1.97215	63.1122	-6.15177e-07	-6.67283e-07	-3.87034e-10	-6.66896e-07	0.286411	123076	71.3861	123005
[...]
1.00006	31.2049	2.95436	31.3444	-5.40842	19.7016	0.286626	-0.000481124	53867.8	478.559	1	12	0.00487523	0.000155537	0	-5.29047e-05	5.16911e-05	1.63301e-06	-138.136	0.0104992	-0.00781904	0.00700681	-5.42253	31.3373	31.1971	2.96137	0.0317616	0.00300706	0.0319036	5.40842	478559	5.05469e+06	5.07729e+06	-84.5916	0.0000000E+000	0.0000000E+000	0.0000000E+000	84.5916	0.0000000E+000	0.0000000E+000	0.0000000E+000	-84.5916	0.0000000E+000	0.0000000E+000	0.0000000E+000	-5.40842	0.0000000E+000	0.0000000E+000	0.0000000E+000	5.40842	10.5623	84.5916	-3.02879e-07	-1.37903e-07	-2.48698e-11	-1.37878e-07	0.286574	595742	107.438	595634
0.316193	32.5861	2.63232	32.6923	-4.61835	34.047	0.286624	-0.000770661	191218	1239.7	1	12	0.00487185	0.000149021	0	-7.88609e-05	8.98672e-05	2.69407e-06	-46.2343	0.0180784	0.012505	0.0130558	-4.63938	32.7058	32.5986	2.64537	0.030489	0.00246291	0.0305883	4.61835	1.2397e+06	1.53465e+07	1.53965e+07	-85.3817	0.0000000E+000	0.0000000E+000	0.0000000E+000	85.3817	0.0000000E+000	0.0000000E+000	0.0000000E+000	-85.3817	0.0000000E+000	0.0000000E+000	0.0000000E+000	-4.61835	0.0000000E+000	0.0000000E+000	0.0000000E+000	4.61835	12.3792	85.3817	-1.03085e-05	-2.2089e-07	-6.92571e-11	-2.2082e-07	0.286534	371919	116.611	371802
0.0999041	33.9023	4.15319	34.1558	-6.98419	79.2562	0.28661	-0.00154635	383580	5671.4	1	12	0.00487487	0.000142725	0	-4.2941e-05	-5.57311e-06	2.01746e-06	-1.77152	0.0141353	0.0141286	0.000436978	-6.98204	34.1698	33.9164	4.15362	0.0290604	0.00356003	0.0292776	6.98419	5.6714e+06	4.62954e+07	4.66415e+07	-83.0158	0.0000000E+000	0.0000000E+000	0.0000000E+000	83.0158	0.0000000E+000	0.0000000E+000	0.0000000E+000	-83.0158	0.0000000E+000	0.0000000E+000	0.0000000E+000	-6.98419	0.0000000E+000	0.0000000E+000	0.0000000E+000	6.98419	8.16296	83.0158	3.00855e-05	-4.43201e-07	8.618e-12	-4.43209e-07	0.286616	185346	3.60403	185349
0.0315922	36.5485	8.65203	37.5586	-13.3183	222.14	0.286617	0.000767711	582267	30898.7	1	12	0.00487072	0.000129683	0	4.50629e-05	0.000166219	2.26533e-06	3.84007	0.0174682	0.017429	-0.00116987	-13.3105	37.5753	36.5659	8.65086	0.025909	0.00613337	0.0266251	13.3183	3.08986e+07	1.30524e+08	1.34132e+08	-76.6817	0.0000000E+000	0.0000000E+000	0.0000000E+000	76.6817	0.0000000E+000	0.0000000E+000	0.0000000E+000	-76.6817	0.0000000E+000	0.0000000E+000	0.0000000E+000	-13.3183	0.0000000E+000	0.0000000E+000	0.0000000E+000	13.3183	4.22427	76.6817	-3.54669e-06	2.20039e-07	1.27608e-10	2.19912e-07	0.286451	373340	216.513	373124
0.0100092	41.8378	19.1769	46.0234	-24.625	673.362	0.286617	-0.000385935	829170	143960	1	12	0.00487015	0.000105819	0	-0.00055113	0.000108955	1.59035e-06	29.3545	0.0150289	0.0130993	-0.00736736	-24.6098	46.0323	41.8509	19.1695	0.019752	0.00905359	0.0217281	24.625	1.4396e+08	3.14075e+08	3.45496e+08	-65.375	0.0000000E+000	0.0000000E+000	0.0000000E+000	65.375	0.0000000E+000	0.0000000E+000	0.0000000E+000	-65.375	0.0000000E+000	0.0000000E+000	0.0000000E+000	-24.625	0.0000000E+000	0.0000000E+000	0.0000000E+000	24.625	2.18168	65.375	-0.00025895	-1.10615e-07	-4.20496e-11	-1.10573e-07	0.286508	742656	282.315	742373