Folder: EIS/txt (part 37)

File: 17492_R280_UC81_SOC50_C01.mpt
EC-Lab ASCII FILE
Nb header lines : 64

Potentio Electrochemical Impedance Spectroscopy

Run on channel : 1 (SN 66354)
User :
CE vs. WE compliance from -10 V to 10 V
Electrode connection : standard
Potential control : Ewe
Ewe ctrl range : min = -10.00 V, max = 10.00 V
Safety Limits :
	Do not start on E overload
Acquisition started on : 09/15/2025 12:21:46.045
Loaded Setting File :  C:\Users\Celltest\OneDrive - store-dot.com\Documents\EC-Lab\Data\Michael\R278\UC78_17221_EIS_50SOC.mps
Saved on :
	File : 17492_R280-G001, UC81 half-cell_C01.mpr
	Directory : C:\Users\Celltest\OneDrive - store-dot.com\Documents\EC-Lab\Data\John\
	Host : 169.254.61.224
Device : VMP-3e (SN .003165)
Address : USB
EC-LAB for windows v11.62 (software)
Internet server v27.00 (firmware)
Command interpretor v12.03 (firmware)
Electrode material :
Initial state :
Electrolyte :
Comments :
Electrode surface area : 0.001 cm²
Characteristic mass : 0.001 g
Equivalent Weight : 0.000 g/eq.
Density : 0.000 g/cm3
Volume (V) : 0.001 cm³
Record Ece
Cycle Definition : Charge/Discharge alternance
Mode                Multi sine
E (V)               0.0000
vs.                 Eoc
tE (h:m:s)          0:00:0.0000
record              0
dI                  0.000
unit dI             mA
dt (s)              0.000
fi                  1.000
unit fi             MHz
ff                  0.100
unit ff             mHz
Nd                  10
Points              per decade
spacing             Logarithmic
Va (mV)             5.0
pw                  0.10
Na                  2
corr                0
E range min (V)     -10.000
E range max (V)     10.000
I Range             Auto
Bandwidth           5
nc cycles           0
goto Ns'            0
nr cycles           0
inc. cycle          0

freq/Hz	Re(Z)/Ohm	-Im(Z)/Ohm	|Z|/Ohm	Phase(Z)/deg	time/s	<Ewe>/V	<I>/mA	Cs/µF	Cp/µF	cycle number	I Range	|Ewe|/V	|I|/A	Ns	(Q-Qo)/mA.h	<Ece>/V	|Ece|/V	Phase(Zce)/deg	|Zce|/Ohm	Re(Zce)/Ohm	-Im(Zce)/Ohm	Phase(Zwe-ce)/deg	|Zwe-ce|/Ohm	Re(Zwe-ce)/Ohm	-Im(Zwe-ce)/Ohm	Re(Y)/Ohm-1	Im(Y)/Ohm-1	|Y|/Ohm-1	Phase(Y)/deg	Re(C)/nF	Im(C)/nF	|C|/nF	Phase(C)/deg	Re(M)	Im(M)	|M|	Phase(M)/deg	Re(Permittivity)	Im(Permittivity)	|Permittivity|	Phase(Permittivity)/deg	Re(Resistivity)/Ohm.cm	Im(Resistivity)/Ohm.cm	|Resistivity|/Ohm.cm	Phase(Resistivity)/deg	Re(Conductivity)/mS/cm	Im(Conductivity)/mS/cm	|Conductivity|/mS/cm	Phase(Conductivity)/deg	Tan(Delta)	Loss Angle(Delta)/deg	dq/mA.h	Pwe/W	Pce/W	Pwe-ce/W	<Ewe-Ece>/V	Rwe/Ohm	Rce/Ohm	Rwe-ce/Ohm		Ewe-Ece/V
1.00002e+06	1.05744	-0.196558	1.07556	10.53	2.69355	3.78442	0.0934665	-0.809696	-0.0270418	1	9	0.000216888	0.000201652	0	-3.85972e-06	-0.000315441	0.000192965	-7.93698	0.956925	0.947758	0.132136	1.84013	2.00624	2.0052	-0.064422	0.914093	-0.169912	0.929751	-10.53	-27.0418	145.48	147.972	-100.53	0.0000000E+000	0.0000000E+000	0.0000000E+000	100.53	0.0000000E+000	0.0000000E+000	0.0000000E+000	-100.53	0.0000000E+000	0.0000000E+000	0.0000000E+000	10.53	0.0000000E+000	0.0000000E+000	0.0000000E+000	-10.53	5.37982	79.47	-3.85972e-06	0.000353716	-2.94832e-08	0.000353746	3.78473	40489.6	3.37491	40493
251206	0.856191	0.0871597	0.860616	-5.81265	4.99453	3.78413	0.0638121	7.26899	0.0745568	1	9	0.00224982	0.0026142	0	3.72703e-05	0.000142415	6.21234e-05	114.828	0.0237639	-0.0099785	-0.0215673	-4.4323	0.848751	0.846212	0.0655924	1.15598	0.117679	1.16196	5.81265	74.5567	732.389	736.174	-84.1873	0.0000000E+000	0.0000000E+000	0.0000000E+000	84.1873	0.0000000E+000	0.0000000E+000	0.0000000E+000	-84.1873	0.0000000E+000	0.0000000E+000	0.0000000E+000	-5.81265	0.0000000E+000	0.0000000E+000	0.0000000E+000	5.81265	9.82324	84.1873	5.44194e-06	0.000241473	9.08777e-09	0.000241464	3.78399	59301.1	2.23178	59298.9
63093.8	1.02379	0.207586	1.04462	-11.462	7.29452	3.78407	0.0531947	12.1517	0.479855	1	9	0.0052686	0.00504353	0	6.90188e-05	8.87343e-06	3.60759e-05	97.8827	0.0071529	-0.00098099	-0.00708532	-11.091	1.04228	1.02281	0.2005	0.93819	0.190229	0.957282	11.462	479.855	2366.6	2414.75	-78.538	0.0000000E+000	0.0000000E+000	0.0000000E+000	78.538	0.0000000E+000	0.0000000E+000	0.0000000E+000	-78.538	0.0000000E+000	0.0000000E+000	0.0000000E+000	-11.462	0.0000000E+000	0.0000000E+000	0.0000000E+000	11.462	4.9319	78.538	-6.04637e-06	0.000201292	4.7202e-10	0.000201292	3.78406	71136.2	0.166811	71136
15847.7	1.23621	0.366803	1.28948	-16.5264	9.47252	3.78406	0.0561377	27.3792	2.21542	1	9	0.00484511	0.00375741	0	0.000102631	0.00010426	1.20404e-05	42.6642	0.00320446	0.00235636	-0.00217166	-16.4043	1.29113	1.23857	0.364632	0.743467	0.220598	0.775504	16.5264	2215.42	7466.48	7788.23	-73.4736	0.0000000E+000	0.0000000E+000	0.0000000E+000	73.4736	0.0000000E+000	0.0000000E+000	0.0000000E+000	-73.4736	0.0000000E+000	0.0000000E+000	0.0000000E+000	-16.5264	0.0000000E+000	0.0000000E+000	0.0000000E+000	16.5264	3.37024	73.4736	5.65918e-06	0.000212429	5.85292e-09	0.000212423	3.78396	67406.8	1.85722	67404.9
3983.6	1.6041	0.634642	1.72508	-21.5856	11.321	3.78391	-0.0698192	62.9529	8.52029	1	9	0.00462018	0.00267824	0	0.000118983	4.70281e-05	6.33636e-06	-91.4011	0.00236586	-5.78481e-05	0.00236516	-21.6593	1.7259	1.60404	0.637007	0.539029	0.21326	0.579683	21.5856	8520.29	21535.6	23159.8	-68.4144	0.0000000E+000	0.0000000E+000	0.0000000E+000	68.4144	0.0000000E+000	0.0000000E+000	0.0000000E+000	-68.4144	0.0000000E+000	0.0000000E+000	0.0000000E+000	-21.5856	0.0000000E+000	0.0000000E+000	0.0000000E+000	21.5856	2.52756	68.4144	-6.57378e-06	-0.000264189	-3.28346e-09	-0.000264186	3.78386	54195.8	0.673569	54195.1
1000.32	2.2675	1.15913	2.54659	-27.0758	14.1638	3.78389	-0.00685939	137.262	28.4378	1	9	0.00495842	0.00194708	0	9.84367e-05	0.000199647	4.93612e-06	20.8606	0.00253514	0.00236896	-0.000902753	-27.0335	2.54829	2.26986	1.15823	0.349646	0.178737	0.392682	27.0758	28437.8	55630.1	62477.3	-62.9241	0.0000000E+000	0.0000000E+000	0.0000000E+000	62.9241	0.0000000E+000	0.0000000E+000	0.0000000E+000	-62.9241	0.0000000E+000	0.0000000E+000	0.0000000E+000	-27.0758	0.0000000E+000	0.0000000E+000	0.0000000E+000	27.0758	1.9562	62.9241	-2.42262e-06	-2.59552e-05	-1.36945e-09	-2.59538e-05	3.78369	551637	29.1056	551608
251.044	3.7682	1.86783	4.20573	-26.3668	17.1101	3.78395	-0.0478171	339.416	66.946	1	10	0.00496108	0.0011796	0	7.44186e-05	4.70281e-05	6.57614e-06	-6.46883	0.00557489	0.00553939	0.000628082	-26.341	4.21097	3.77374	1.86846	0.213036	0.105598	0.237771	26.3668	66946	135058	150740	-63.6332	0.0000000E+000	0.0000000E+000	0.0000000E+000	63.6332	0.0000000E+000	0.0000000E+000	0.0000000E+000	-63.6332	0.0000000E+000	0.0000000E+000	0.0000000E+000	-26.3668	0.0000000E+000	0.0000000E+000	0.0000000E+000	26.3668	2.01742	63.6332	-5.41182e-06	-0.000180937	-2.24874e-09	-0.000180935	3.78391	79133.9	0.983499	79133
63.0823	5.74248	1.42607	5.9169	-13.9466	19.832	3.78396	-0.0445746	1769.18	102.77	1	10	0.0049328	0.000833679	0	4.23395e-05	-0.000200977	6.1534e-06	31.0212	0.00738102	0.00632536	-0.00380385	-13.8961	5.92213	5.7488	1.42227	0.164025	0.0407336	0.169007	13.9466	102770	413831	426401	-76.0534	0.0000000E+000	0.0000000E+000	0.0000000E+000	76.0534	0.0000000E+000	0.0000000E+000	0.0000000E+000	-76.0534	0.0000000E+000	0.0000000E+000	0.0000000E+000	-13.9466	0.0000000E+000	0.0000000E+000	0.0000000E+000	13.9466	4.02678	76.0534	-5.83857e-06	-0.000168669	8.95848e-09	-0.000168678	3.78416	84890.5	4.50877	84895
[...]
0.0602816	7.89442	1.26124	7.99453	-9.07706	240.584	3.78398	-0.0220795	2.09333e+06	52101.1	1	11	0.00502814	0.000628947	0	-0.00412619	2.79507e-05	3.90288e-07	33.2928	0.000620542	0.000518697	-0.000340627	-9.07407	7.99499	7.89494	1.2609	0.123519	0.0197338	0.125085	9.07706	5.21011e+07	3.26114e+08	3.30249e+08	-80.9229	0.0000000E+000	0.0000000E+000	0.0000000E+000	80.9229	0.0000000E+000	0.0000000E+000	0.0000000E+000	-80.9229	0.0000000E+000	0.0000000E+000	0.0000000E+000	-9.07706	0.0000000E+000	0.0000000E+000	0.0000000E+000	9.07706	6.25925	80.9229	0.000000000000000E+000	-8.35484e-05	-6.17139e-10	-8.35478e-05	3.78395	171380	1.26591	171378
0.00796479	11.4889	3.40076	11.9816	-16.489	20329.5	3.78399	0.00124543	5.87584e+06	473359	1	11	0.00502162	0.00041911	0	-0.0159465	0.000275956	5.86878e-07	-18.5438	0.0014003	0.00132759	0.000445335	-16.4892	11.983	11.4902	3.40121	0.0800287	0.0236889	0.0834611	16.489	4.73359e+08	1.59916e+09	1.66775e+09	-73.511	0.0000000E+000	0.0000000E+000	0.0000000E+000	73.511	0.0000000E+000	0.0000000E+000	0.0000000E+000	-73.511	0.0000000E+000	0.0000000E+000	0.0000000E+000	-16.489	0.0000000E+000	0.0000000E+000	0.0000000E+000	16.489	3.37832	73.511	-0.0118204	4.71269e-06	3.43683e-10	4.71235e-06	3.78371	3.0383e+06	221.575	3.03808e+06
0.0019912	14.7897	4.74832	15.5332	-17.7996	20329.5	3.78399	0.00124543	1.68332e+07	1.57298e+06	1	11	0.00503514	0.000324153	0	-0.0159465	0.000275956	7.1161e-07	-23.6925	0.00219529	0.00201026	0.000882128	-17.8004	15.5354	14.7917	4.7492	0.0612965	0.0196797	0.0643782	17.7996	1.57298e+09	4.89939e+09	5.1457e+09	-72.2004	0.0000000E+000	0.0000000E+000	0.0000000E+000	72.2004	0.0000000E+000	0.0000000E+000	0.0000000E+000	-72.2004	0.0000000E+000	0.0000000E+000	0.0000000E+000	-17.7996	0.0000000E+000	0.0000000E+000	0.0000000E+000	17.7996	3.11471	72.2004	0.000000000000000E+000	4.71269e-06	3.43683e-10	4.71235e-06	3.78371	3.0383e+06	221.575	3.03808e+06
0.000497799	16.7248	7.87778	18.4872	-25.2216	20329.5	3.78399	0.00124543	4.05847e+07	7.36931e+06	1	11	0.0050371	0.000272464	0	-0.0159465	0.000275956	5.79714e-07	-9.0935	0.00212767	0.00210093	0.00033627	-25.2198	18.4893	16.7269	7.87811	0.0489347	0.0230495	0.0540914	25.2216	7.36931e+09	1.56453e+10	1.7294e+10	-64.7784	0.0000000E+000	0.0000000E+000	0.0000000E+000	64.7784	0.0000000E+000	0.0000000E+000	0.0000000E+000	-64.7784	0.0000000E+000	0.0000000E+000	0.0000000E+000	-25.2216	0.0000000E+000	0.0000000E+000	0.0000000E+000	25.2216	2.12303	64.7784	0.000000000000000E+000	4.71269e-06	3.43683e-10	4.71235e-06	3.78371	3.0383e+06	221.575	3.03808e+06
9.95598e-05	19.794	34.731	39.9756	-60.3202	20329.5	3.78399	0.00124543	4.60276e+07	3.47428e+07	1	11	0.00503697	0.000126001	0	-0.0159465	0.000275956	1.20954e-06	-5.5158	0.00959941	0.00955496	0.000922699	-60.309	39.9811	19.8035	34.7319	0.0123864	0.0217334	0.0250153	60.3202	3.47428e+10	1.98007e+10	3.99891e+10	-29.6798	0.0000000E+000	0.0000000E+000	0.0000000E+000	29.6798	0.0000000E+000	0.0000000E+000	0.0000000E+000	-29.6798	0.0000000E+000	0.0000000E+000	0.0000000E+000	-60.3202	0.0000000E+000	0.0000000E+000	0.0000000E+000	60.3202	0.569923	29.6798	0.000000000000000E+000	4.71269e-06	3.43683e-10	4.71235e-06	3.78371	3.0383e+06	221.575	3.03808e+06

File: 17493_R280_UC81_SOC50_C02.mpt
EC-Lab ASCII FILE
Nb header lines : 64

Potentio Electrochemical Impedance Spectroscopy

Run on channel : 2 (SN 66139)
User :
CE vs. WE compliance from -10 V to 10 V
Electrode connection : standard
Potential control : Ewe
Ewe ctrl range : min = -10.00 V, max = 10.00 V
Safety Limits :
	Do not start on E overload
Acquisition started on : 09/15/2025 12:22:00.780
Loaded Setting File :  C:\Users\Celltest\OneDrive - store-dot.com\Documents\EC-Lab\Data\John\17492_R280-G001, UC81 half-cell.mps
Saved on :
	File : 17493_R280-G001, UC81 half-cell_C02.mpr
	Directory : C:\Users\Celltest\OneDrive - store-dot.com\Documents\EC-Lab\Data\John\
	Host : 169.254.61.224
Device : VMP-3e (SN .003165)
Address : USB
EC-LAB for windows v11.62 (software)
Internet server v27.00 (firmware)
Command interpretor v12.03 (firmware)
Electrode material :
Initial state :
Electrolyte :
Comments :
Electrode surface area : 0.001 cm²
Characteristic mass : 0.001 g
Equivalent Weight : 0.000 g/eq.
Density : 0.000 g/cm3
Volume (V) : 0.001 cm³
Record Ece
Cycle Definition : Charge/Discharge alternance
Mode                Multi sine
E (V)               0.0000
vs.                 Eoc
tE (h:m:s)          0:00:0.0000
record              0
dI                  0.000
unit dI             mA
dt (s)              0.000
fi                  1.000
unit fi             MHz
ff                  0.100
unit ff             mHz
Nd                  10
Points              per decade
spacing             Logarithmic
Va (mV)             5.0
pw                  0.10
Na                  2
corr                0
E range min (V)     -10.000
E range max (V)     10.000
I Range             Auto
Bandwidth           5
nc cycles           0
goto Ns'            0
nr cycles           0
inc. cycle          0

freq/Hz	Re(Z)/Ohm	-Im(Z)/Ohm	|Z|/Ohm	Phase(Z)/deg	time/s	<Ewe>/V	<I>/mA	Cs/µF	Cp/µF	cycle number	I Range	|Ewe|/V	|I|/A	Ns	(Q-Qo)/mA.h	<Ece>/V	|Ece|/V	Phase(Zce)/deg	|Zce|/Ohm	Re(Zce)/Ohm	-Im(Zce)/Ohm	Phase(Zwe-ce)/deg	|Zwe-ce|/Ohm	Re(Zwe-ce)/Ohm	-Im(Zwe-ce)/Ohm	Re(Y)/Ohm-1	Im(Y)/Ohm-1	|Y|/Ohm-1	Phase(Y)/deg	Re(C)/nF	Im(C)/nF	|C|/nF	Phase(C)/deg	Re(M)	Im(M)	|M|	Phase(M)/deg	Re(Permittivity)	Im(Permittivity)	|Permittivity|	Phase(Permittivity)/deg	Re(Resistivity)/Ohm.cm	Im(Resistivity)/Ohm.cm	|Resistivity|/Ohm.cm	Phase(Resistivity)/deg	Re(Conductivity)/mS/cm	Im(Conductivity)/mS/cm	|Conductivity|/mS/cm	Phase(Conductivity)/deg	Tan(Delta)	Loss Angle(Delta)/deg	dq/mA.h	Pwe/W	Pce/W	Pwe-ce/W	<Ewe-Ece>/V	Rwe/Ohm	Rce/Ohm	Rwe-ce/Ohm		Ewe-Ece/V
1.00002e+06	0.961497	-0.285517	1.00299	16.5388	2.23453	3.78309	-0.0478588	-0.557417	-0.0451697	1	9	0.000207726	0.000207106	0	-4.37447e-05	0.00017889	0.000177867	-0.00576255	0.858822	0.858822	8.63763e-05	8.91156	1.84256	1.82032	-0.28543	0.955766	-0.283815	0.997015	-16.5388	-45.1697	152.112	158.677	-106.539	0.0000000E+000	0.0000000E+000	0.0000000E+000	106.539	0.0000000E+000	0.0000000E+000	0.0000000E+000	-106.539	0.0000000E+000	0.0000000E+000	0.0000000E+000	16.5388	0.0000000E+000	0.0000000E+000	0.0000000E+000	-16.5388	3.36757	73.4612	-4.37447e-05	-0.000181054	-8.56144e-09	-0.000181045	3.78291	79046.9	3.73786	79043.2
251206	1.01066	0.0925018	1.01489	-5.22947	4.53553	3.78309	-0.0410055	6.8492	0.0568989	1	9	0.00263068	0.00259209	0	-6.67891e-05	7.07199e-06	2.86121e-05	76.7753	0.0110382	0.00252523	-0.0107455	-4.61332	1.01648	1.01319	0.0817563	0.981229	0.0898077	0.98533	5.22947	56.8988	621.67	624.269	-84.7705	0.0000000E+000	0.0000000E+000	0.0000000E+000	84.7705	0.0000000E+000	0.0000000E+000	0.0000000E+000	-84.7705	0.0000000E+000	0.0000000E+000	0.0000000E+000	-5.22947	0.0000000E+000	0.0000000E+000	0.0000000E+000	5.22947	10.9259	84.7705	-3.14367e-06	-0.000155128	-2.8999e-10	-0.000155127	3.78309	92258.3	0.172465	92258.2
63093.8	1.18993	0.228198	1.21162	-10.856	6.70951	3.783	-0.0487153	11.054	0.392116	1	9	0.00533768	0.00440542	0	-0.000140189	0.00017889	1.44229e-05	67.2068	0.00327389	0.00126832	-0.00301823	-10.7047	1.2123	1.1912	0.22518	0.810572	0.155447	0.825343	10.856	392.116	2044.68	2081.94	-79.144	0.0000000E+000	0.0000000E+000	0.0000000E+000	79.144	0.0000000E+000	0.0000000E+000	0.0000000E+000	-79.144	0.0000000E+000	0.0000000E+000	0.0000000E+000	-10.856	0.0000000E+000	0.0000000E+000	0.0000000E+000	10.856	5.21447	79.144	-1.77173e-05	-0.00018429	-8.71466e-09	-0.000184281	3.78282	77655.2	3.67214	77651.5
15847.7	1.42801	0.413787	1.48675	-16.1597	8.88552	3.783	-0.0418249	24.2704	1.87998	1	9	0.00477985	0.00321496	0	-0.000188102	2.61628e-05	7.26493e-06	23.9331	0.00225973	0.00206543	-0.000916703	-16.1037	1.48848	1.43008	0.412871	0.646031	0.187197	0.672606	16.1597	1879.98	6487.95	6754.84	-73.8403	0.0000000E+000	0.0000000E+000	0.0000000E+000	73.8403	0.0000000E+000	0.0000000E+000	0.0000000E+000	-73.8403	0.0000000E+000	0.0000000E+000	0.0000000E+000	-16.1597	0.0000000E+000	0.0000000E+000	0.0000000E+000	16.1597	3.45108	73.8403	-1.98419e-06	-0.000158223	-1.09426e-09	-0.000158222	3.78297	90448.6	0.625533	90448
3983.6	1.84965	0.721834	1.98551	-21.3185	10.7341	3.78285	-0.121457	55.3486	7.31542	1	9	0.00459868	0.00231612	0	-0.000211825	-5.02005e-05	6.37889e-06	-87.3763	0.00275412	0.000126073	0.00275124	-21.3911	1.98663	1.84977	0.724586	0.469187	0.183103	0.50365	21.3185	7315.42	18745.2	20122.1	-68.6815	0.0000000E+000	0.0000000E+000	0.0000000E+000	68.6815	0.0000000E+000	0.0000000E+000	0.0000000E+000	-68.6815	0.0000000E+000	0.0000000E+000	0.0000000E+000	-21.3185	0.0000000E+000	0.0000000E+000	0.0000000E+000	21.3185	2.56242	68.6815	-1.08661e-05	-0.000459453	6.09719e-09	-0.000459459	3.7829	31145.7	0.413321	31146.1
1000.32	2.61153	1.29066	2.91306	-26.2994	13.5768	3.78291	-0.0490878	123.273	24.1989	1	9	0.00493698	0.00169477	0	-0.000264216	0.000255253	4.63354e-06	-33.8732	0.00273402	0.00226998	0.00152382	-26.3064	2.91577	2.6138	1.29219	0.307749	0.152095	0.343282	26.2994	24198.9	48964.1	54617.5	-63.7006	0.0000000E+000	0.0000000E+000	0.0000000E+000	63.7006	0.0000000E+000	0.0000000E+000	0.0000000E+000	-63.7006	0.0000000E+000	0.0000000E+000	0.0000000E+000	-26.2994	0.0000000E+000	0.0000000E+000	0.0000000E+000	26.2994	2.0234	63.7006	-5.12913e-06	-0.000185695	-1.25298e-08	-0.000185682	3.78265	77064	5.19992	77058.8
251.044	4.2338	1.97344	4.67114	-24.991	16.523	3.78291	-0.0785609	321.251	57.3388	1	10	0.00494279	0.00105815	0	-0.000323475	0.000140708	1.69992e-05	-143.799	0.016065	-0.0129637	0.0094883	-25.1639	4.66342	4.22084	1.98293	0.194037	0.0904438	0.21408	24.991	57338.8	123014	135721	-65.009	0.0000000E+000	0.0000000E+000	0.0000000E+000	65.009	0.0000000E+000	0.0000000E+000	0.0000000E+000	-65.009	0.0000000E+000	0.0000000E+000	0.0000000E+000	-24.991	0.0000000E+000	0.0000000E+000	0.0000000E+000	24.991	2.14539	65.009	-1.04094e-05	-0.000297188	-1.10541e-08	-0.000297177	3.78277	48152.5	1.79107	48150.8
63.0823	6.28923	1.50072	6.46581	-13.4208	19.245	3.78292	-0.0726043	1681.17	90.5667	1	10	0.00491057	0.000759468	0	-0.00038261	0.00040798	4.18517e-06	-109.975	0.00551066	-0.00188253	0.00517914	-13.4694	6.46518	6.28735	1.5059	0.150436	0.0358968	0.15466	13.4208	90566.7	379547	390202	-76.5792	0.0000000E+000	0.0000000E+000	0.0000000E+000	76.5792	0.0000000E+000	0.0000000E+000	0.0000000E+000	-76.5792	0.0000000E+000	0.0000000E+000	0.0000000E+000	-13.4208	0.0000000E+000	0.0000000E+000	0.0000000E+000	13.4208	4.1908	76.5792	-8.8928e-06	-0.000274656	-2.96211e-08	-0.000274627	3.78252	52103.3	5.61923	52097.7
[...]
0.0602816	8.55997	1.38325	8.67102	-9.17937	239.999	3.78294	-0.0401475	1.90868e+06	48573.1	1	11	0.00500052	0.000576693	0	-0.00565167	0.000331616	5.86677e-07	109.174	0.00101731	-0.000334122	-0.000960878	-9.17346	8.67053	8.55964	1.38229	0.11385	0.0183976	0.115327	9.17937	4.85731e+07	3.00585e+08	3.04484e+08	-80.8206	0.0000000E+000	0.0000000E+000	0.0000000E+000	80.8206	0.0000000E+000	0.0000000E+000	0.0000000E+000	-80.8206	0.0000000E+000	0.0000000E+000	0.0000000E+000	-9.17937	0.0000000E+000	0.0000000E+000	0.0000000E+000	9.17937	6.1883	80.8206	0.000000000000000E+000	-0.000151876	-1.33136e-08	-0.000151862	3.78261	94226	8.25994	94217.8
0.00796479	12.4377	3.75851	12.9932	-16.8141	20328.9	3.78297	0.000282107	5.31656e+06	444865	1	11	0.00499488	0.000384422	0	-0.0264149	0.00017889	3.29835e-07	-45.7784	0.000858002	0.000598401	0.000614884	-16.8159	12.994	12.4383	3.75912	0.0736729	0.0222629	0.0769632	16.8141	4.44865e+08	1.47216e+09	1.5379e+09	-73.1859	0.0000000E+000	0.0000000E+000	0.0000000E+000	73.1859	0.0000000E+000	0.0000000E+000	0.0000000E+000	-73.1859	0.0000000E+000	0.0000000E+000	0.0000000E+000	-16.8141	0.0000000E+000	0.0000000E+000	0.0000000E+000	16.8141	3.30922	73.1859	-0.0207633	1.0672e-06	5.04661e-11	1.06715e-06	3.78279	1.34097e+07	634.119	1.3409e+07
0.0019912	16.1961	5.28791	17.0375	-18.0815	20328.9	3.78297	0.000282107	1.51155e+07	1.45607e+06	1	11	0.00500798	0.000293939	0	-0.0264149	0.00017889	3.43786e-07	-95.5789	0.00116958	-0.000113701	0.00116404	-18.0854	17.0377	16.196	5.28908	0.0557956	0.0182169	0.0586942	18.0815	1.45607e+09	4.45971e+09	4.69139e+09	-71.9185	0.0000000E+000	0.0000000E+000	0.0000000E+000	71.9185	0.0000000E+000	0.0000000E+000	0.0000000E+000	-71.9185	0.0000000E+000	0.0000000E+000	0.0000000E+000	-18.0815	0.0000000E+000	0.0000000E+000	0.0000000E+000	18.0815	3.06285	71.9185	0.000000000000000E+000	1.0672e-06	5.04661e-11	1.06715e-06	3.78279	1.34097e+07	634.119	1.3409e+07
0.000497799	18.7148	8.18388	20.4259	-23.6195	20328.9	3.78297	0.000282107	3.90667e+07	6.27135e+06	1	11	0.00501019	0.000245286	0	-0.0264149	0.00017889	1.48623e-06	-19.0627	0.00605918	0.0057269	0.00197894	-23.6182	20.432	18.7205	8.18586	0.044856	0.0196153	0.0489573	23.6195	6.27135e+09	1.43412e+10	1.56525e+10	-66.3805	0.0000000E+000	0.0000000E+000	0.0000000E+000	66.3805	0.0000000E+000	0.0000000E+000	0.0000000E+000	-66.3805	0.0000000E+000	0.0000000E+000	0.0000000E+000	-23.6195	0.0000000E+000	0.0000000E+000	0.0000000E+000	23.6195	2.28679	66.3805	0.000000000000000E+000	1.0672e-06	5.04661e-11	1.06715e-06	3.78279	1.34097e+07	634.119	1.3409e+07
9.95598e-05	22.3866	35.1461	41.6702	-57.5046	20329	3.78297	0.000282107	4.5484e+07	3.23565e+07	1	11	0.00501287	0.000120299	0	-0.0264149	0.00017889	2.01478e-06	105.202	0.0167481	-0.00439168	-0.0161621	-57.4978	41.6542	22.3822	35.13	0.0128925	0.0202407	0.0239979	57.5046	3.23565e+10	2.06097e+10	3.83628e+10	-32.4954	0.0000000E+000	0.0000000E+000	0.0000000E+000	32.4954	0.0000000E+000	0.0000000E+000	0.0000000E+000	-32.4954	0.0000000E+000	0.0000000E+000	0.0000000E+000	-57.5046	0.0000000E+000	0.0000000E+000	0.0000000E+000	57.5046	0.636957	32.4954	0.000000000000000E+000	1.0672e-06	5.04661e-11	1.06715e-06	3.78279	1.34097e+07	634.119	1.3409e+07