Folder: EIS/txt (part 77)

File: 18347_R257_UA646_SOC00_C02.mpt
EC-Lab ASCII FILE
Nb header lines : 65

Potentio Electrochemical Impedance Spectroscopy

Run on channel : 2 (SN 66139)
User :
CE vs. WE compliance from -10 V to 10 V
Electrode connection : standard
Potential control : Ewe
Ewe ctrl range : min = -10.00 V, max = 10.00 V
Safety Limits :
	Do not start on E overload
Acquisition started on : 10/13/2025 14:39:37.044
Technique started on : 10/13/2025 14:39:38.956
Loaded Setting File :  C:\Users\Celltest\OneDrive - store-dot.com\Documents\EC-Lab\Data\@Biologic Test Protocols\anode half cell EIS SOC00.mps
Saved on :
	File : 18347_R257_UA646_SOC00_C02.mpr
	Directory : C:\Users\Celltest\OneDrive - store-dot.com\Documents\EC-Lab\Data\John\
	Host : 169.254.61.224
Device : VMP-3e (SN .003165)
Address : USB
EC-LAB for windows v11.62 (software)
Internet server v27.00 (firmware)
Command interpretor v12.03 (firmware)
Electrode material :
Initial state :
Electrolyte :
Comments :
Electrode surface area : 0.001 cm²
Characteristic mass : 0.001 g
Equivalent Weight : 0.000 g/eq.
Density : 0.000 g/cm3
Volume (V) : 0.001 cm³
Record Ece
Cycle Definition : Charge/Discharge alternance
Mode                Single sine
E (V)               0.0000
vs.                 Eoc
tE (h:m:s)          0:00:0.0000
record              0
dI                  0.000
unit dI             mA
dt (s)              0.000
fi                  100.000
unit fi             kHz
ff                  10.000
unit ff             mHz
Nd                  6
Points              per decade
spacing             Logarithmic
Va (mV)             5.0
pw                  0.10
Na                  2
corr                0
E range min (V)     -10.000
E range max (V)     10.000
I Range             Auto
Bandwidth           5
nc cycles           0
goto Ns'            0
nr cycles           0
inc. cycle          0

freq/Hz	Re(Z)/Ohm	-Im(Z)/Ohm	|Z|/Ohm	Phase(Z)/deg	time/s	<Ewe>/V	<I>/mA	Cs/µF	Cp/µF	cycle number	I Range	|Ewe|/V	|I|/A	Ns	(Q-Qo)/mA.h	<Ece>/V	|Ece|/V	Phase(Zce)/deg	|Zce|/Ohm	Re(Zce)/Ohm	-Im(Zce)/Ohm	Phase(Zwe-ce)/deg	|Zwe-ce|/Ohm	Re(Zwe-ce)/Ohm	-Im(Zwe-ce)/Ohm	Re(Y)/Ohm-1	Im(Y)/Ohm-1	|Y|/Ohm-1	Phase(Y)/deg	Re(C)/nF	Im(C)/nF	|C|/nF	Phase(C)/deg	Re(M)	Im(M)	|M|	Phase(M)/deg	Re(Permittivity)	Im(Permittivity)	|Permittivity|	Phase(Permittivity)/deg	Re(Resistivity)/Ohm.cm	Im(Resistivity)/Ohm.cm	|Resistivity|/Ohm.cm	Phase(Resistivity)/deg	Re(Conductivity)/mS/cm	Im(Conductivity)/mS/cm	|Conductivity|/mS/cm	Phase(Conductivity)/deg	Tan(Delta)	Loss Angle(Delta)/deg	dq/mA.h	Pwe/W	Pce/W	Pwe-ce/W	<Ewe-Ece>/V	Rwe/Ohm	Rce/Ohm	Rwe-ce/Ohm		Ewe-Ece/V
100004	1.27103	0.455527	1.3502	-19.7172	1.91156	0.246858	-0.00625501	3.49373	0.397671	1	9	0.00460729	0.0034123	0	-2.85656e-06	0.000248523	2.49976e-05	87.3032	0.00732571	0.00034468	-0.0073176	-19.4195	1.34807	1.27138	0.44821	0.697208	0.249873	0.740632	19.7172	397.671	1109.6	1178.71	-70.2828	0.0000000E+000	0.0000000E+000	0.0000000E+000	70.2828	0.0000000E+000	0.0000000E+000	0.0000000E+000	-70.2828	0.0000000E+000	0.0000000E+000	0.0000000E+000	-19.7172	0.0000000E+000	0.0000000E+000	0.0000000E+000	19.7172	2.79025	70.2828	-2.85656e-06	-1.5441e-06	-1.55452e-09	-1.54254e-06	0.246609	39465.7	39.7319	39425.9
31621.1	1.67685	0.650069	1.79845	-21.1899	3.43254	0.246856	-0.00297738	7.74253	1.01159	1	9	0.00498156	0.00276992	0	-2.87867e-05	1.94333e-05	8.88336e-06	-13.2328	0.00320708	0.00312193	0.000734128	-21.1758	1.80163	1.67997	0.650803	0.518439	0.200985	0.556035	21.1899	1011.59	2609.4	2798.62	-68.8101	0.0000000E+000	0.0000000E+000	0.0000000E+000	68.8101	0.0000000E+000	0.0000000E+000	0.0000000E+000	-68.8101	0.0000000E+000	0.0000000E+000	0.0000000E+000	-21.1899	0.0000000E+000	0.0000000E+000	0.0000000E+000	21.1899	2.5795	68.8101	-1.06619e-05	-7.34985e-07	-5.78603e-11	-7.34927e-07	0.246837	82910.7	6.52699	82904.2
10002.2	2.18558	0.877744	2.35525	-21.8808	4.33355	0.246853	-0.00659026	18.1282	2.51779	1	9	0.00451733	0.00191799	0	-2.92958e-05	-0.000133293	1.07464e-05	-101.314	0.00560296	-0.00109925	0.00549407	-22.0147	2.35628	2.18448	0.883238	0.393998	0.158232	0.424584	21.8808	2517.79	6269.27	6755.96	-68.1192	0.0000000E+000	0.0000000E+000	0.0000000E+000	68.1192	0.0000000E+000	0.0000000E+000	0.0000000E+000	-68.1192	0.0000000E+000	0.0000000E+000	0.0000000E+000	-21.8808	0.0000000E+000	0.0000000E+000	0.0000000E+000	21.8808	2.48999	68.1192	5.91201e-07	-1.62683e-06	8.78439e-10	-1.6277e-06	0.246986	37457.2	20.2258	37477.4
3163.08	2.84375	1.28954	3.12247	-24.3927	5.35568	0.246637	-0.047449	39.0189	6.65502	1	9	0.00462516	0.00148125	0	-3.73266e-05	7.67059e-05	4.61016e-06	-17.3286	0.00311234	0.00297108	0.000927015	-24.3857	3.12556	2.84672	1.29047	0.291672	0.132263	0.32026	24.3927	6655.02	14675.9	16114.3	-65.6073	0.0000000E+000	0.0000000E+000	0.0000000E+000	65.6073	0.0000000E+000	0.0000000E+000	0.0000000E+000	-65.6073	0.0000000E+000	0.0000000E+000	0.0000000E+000	-24.3927	0.0000000E+000	0.0000000E+000	0.0000000E+000	24.3927	2.20524	65.6073	-5.71288e-06	-1.17027e-05	-3.63962e-09	-1.1699e-05	0.24656	5197.94	1.61659	5196.32
1000.32	3.68478	2.03082	4.20736	-28.8608	6.95478	0.24679	-0.0218407	78.3447	18.253	1	10	0.00463187	0.0011009	0	-3.24487e-05	-1.87484e-05	2.79746e-05	-43.7522	0.0254107	0.0183551	0.0175725	-28.9492	4.23192	3.70314	2.04839	0.208158	0.114724	0.237679	28.8608	18253	33118.8	37815.7	-61.1392	0.0000000E+000	0.0000000E+000	0.0000000E+000	61.1392	0.0000000E+000	0.0000000E+000	0.0000000E+000	-61.1392	0.0000000E+000	0.0000000E+000	0.0000000E+000	-28.8608	0.0000000E+000	0.0000000E+000	0.0000000E+000	28.8608	1.81443	61.1392	-2.61637e-06	-5.39006e-06	4.09477e-10	-5.39047e-06	0.246808	11299.5	0.858414	11300.4
316.316	5.15569	4.01098	6.53216	-37.8819	8.30509	0.246785	-0.0230924	125.444	47.2972	1	10	0.00456944	0.000699529	0	-3.95448e-05	3.85242e-05	1.2234e-05	-95.5852	0.017489	-0.00170213	0.0174059	-38.0114	6.54153	5.15399	4.02839	0.120829	0.0940019	0.153089	37.8819	47297.2	60795.6	77026.8	-52.1181	0.0000000E+000	0.0000000E+000	0.0000000E+000	52.1181	0.0000000E+000	0.0000000E+000	0.0000000E+000	-52.1181	0.0000000E+000	0.0000000E+000	0.0000000E+000	-37.8819	0.0000000E+000	0.0000000E+000	0.0000000E+000	37.8819	1.28539	52.1181	-2.18395e-06	-5.69885e-06	-8.89615e-10	-5.69796e-06	0.246746	10686.8	1.66826	10685.2
100.032	9.4359	7.36451	11.9696	-37.9712	9.65279	0.246795	-0.0212633	216.042	81.783	1	10	0.00455595	0.000380625	0	-4.70824e-05	-5.69301e-05	1.11705e-05	-88.9117	0.0293478	0.000557397	0.0293426	-38.0802	11.9882	9.43646	7.39385	0.0658599	0.0514022	0.0835447	37.9712	81782.9	104786	132923	-52.0288	0.0000000E+000	0.0000000E+000	0.0000000E+000	52.0288	0.0000000E+000	0.0000000E+000	0.0000000E+000	-52.0288	0.0000000E+000	0.0000000E+000	0.0000000E+000	-37.9712	0.0000000E+000	0.0000000E+000	0.0000000E+000	37.9712	1.28127	52.0288	-2.4606e-06	-5.24768e-06	1.21052e-09	-5.24889e-06	0.246852	11606.6	2.67738	11609.3
[...]
1.00006	27.7448	3.39293	27.9515	-6.97213	19.7037	0.246832	-0.0067385	46904.8	691.126	1	12	0.00454763	0.000162697	0	-7.17999e-05	-3.78392e-05	2.31975e-06	-7.63537	0.0142581	0.0141317	0.00189444	-6.97246	27.9658	27.7589	3.39483	0.0355117	0.00434275	0.0357763	6.97213	691126	5.6515e+06	5.6936e+06	-83.0279	0.0000000E+000	0.0000000E+000	0.0000000E+000	83.0279	0.0000000E+000	0.0000000E+000	0.0000000E+000	-83.0279	0.0000000E+000	0.0000000E+000	0.0000000E+000	-6.97213	0.0000000E+000	0.0000000E+000	0.0000000E+000	6.97213	8.17723	83.0279	-9.76796e-06	-1.66328e-06	2.5498e-10	-1.66354e-06	0.24687	36630.2	5.61537	36635.8
0.316193	29.8143	3.39758	30.0073	-6.50127	34.047	0.246837	-0.00769607	148149	1899.26	1	12	0.00454663	0.000151518	0	-0.000112475	0.000382159	1.83105e-06	-67.7449	0.0120847	0.00457686	0.0111845	-6.5215	30.0131	29.8189	3.40877	0.033111	0.00377326	0.0333253	6.50127	1.89926e+06	1.66663e+07	1.67742e+07	-83.4987	0.0000000E+000	0.0000000E+000	0.0000000E+000	83.4987	0.0000000E+000	0.0000000E+000	0.0000000E+000	-83.4987	0.0000000E+000	0.0000000E+000	0.0000000E+000	-6.50127	0.0000000E+000	0.0000000E+000	0.0000000E+000	6.50127	8.77515	83.4987	-1.28669e-05	-1.89967e-06	-2.94113e-09	-1.89673e-06	0.246455	32073.1	49.6564	32023.5
0.0999041	31.9622	4.64397	32.2979	-8.26696	79.2561	0.246834	-0.00763974	343042	7092.16	1	12	0.0045465	0.000140768	0	-0.000134665	-0.000133293	1.55411e-06	-84.084	0.0110402	0.00113791	0.0109814	-8.28595	32.3006	31.9634	4.65495	0.0306401	0.00445186	0.0309618	8.26696	7.09216e+06	4.8812e+07	4.93245e+07	-81.733	0.0000000E+000	0.0000000E+000	0.0000000E+000	81.733	0.0000000E+000	0.0000000E+000	0.0000000E+000	-81.733	0.0000000E+000	0.0000000E+000	0.0000000E+000	-8.26696	0.0000000E+000	0.0000000E+000	0.0000000E+000	8.26696	6.88253	81.733	-1.12356e-05	-1.88574e-06	1.01833e-09	-1.88676e-06	0.246967	32309.2	17.4474	32326.6
0.0315922	35.2369	8.05415	36.1456	-12.875	222.141	0.246829	-0.00841589	625490	31056.2	1	12	0.00454688	0.000125793	0	-0.000543092	7.67059e-05	1.37046e-06	-34.5307	0.0108945	0.00897517	0.00617555	-12.8814	36.1557	35.2458	8.06033	0.0269703	0.00616465	0.0276659	12.875	3.10562e+07	1.35871e+08	1.39375e+08	-77.125	0.0000000E+000	0.0000000E+000	0.0000000E+000	77.125	0.0000000E+000	0.0000000E+000	0.0000000E+000	-77.125	0.0000000E+000	0.0000000E+000	0.0000000E+000	-12.875	0.0000000E+000	0.0000000E+000	0.0000000E+000	12.875	4.37499	77.125	-0.000246749	-2.07729e-06	-6.45548e-10	-2.07664e-06	0.246752	29329	9.11441	29319.8
0.0100092	41.356	15.2415	44.0752	-20.231	673.362	0.246814	-0.0121717	1.04326e+06	124756	1	12	0.00454625	0.000103148	0	-0.00225813	0.000420341	1.68085e-06	-0.89081	0.0162956	0.0162936	0.000253346	-20.224	44.0906	41.3723	15.2418	0.0212888	0.00784584	0.0226885	20.231	1.24756e+08	3.38511e+08	3.60768e+08	-69.769	0.0000000E+000	0.0000000E+000	0.0000000E+000	69.769	0.0000000E+000	0.0000000E+000	0.0000000E+000	-69.769	0.0000000E+000	0.0000000E+000	0.0000000E+000	-20.231	0.0000000E+000	0.0000000E+000	0.0000000E+000	20.231	2.71338	69.769	-0.000719537	-3.00414e-06	-5.11625e-09	-2.99902e-06	0.246394	20277.7	34.5344	20243.2

File: 18348_R257_UA646_SOC00_C03.mpt
EC-Lab ASCII FILE
Nb header lines : 65

Potentio Electrochemical Impedance Spectroscopy

Run on channel : 3 (SN 65921)
User :
CE vs. WE compliance from -10 V to 10 V
Electrode connection : standard
Potential control : Ewe
Ewe ctrl range : min = -10.00 V, max = 10.00 V
Safety Limits :
	Do not start on E overload
Acquisition started on : 10/13/2025 14:39:47.632
Technique started on : 10/13/2025 14:39:49.359
Loaded Setting File :  C:\Users\Celltest\OneDrive - store-dot.com\Documents\EC-Lab\Data\@Biologic Test Protocols\anode half cell EIS SOC00.mps
Saved on :
	File : 18348_R257_UA646_SOC00_C03.mpr
	Directory : C:\Users\Celltest\OneDrive - store-dot.com\Documents\EC-Lab\Data\John\
	Host : 169.254.61.224
Device : VMP-3e (SN .003165)
Address : USB
EC-LAB for windows v11.62 (software)
Internet server v27.00 (firmware)
Command interpretor v12.03 (firmware)
Electrode material :
Initial state :
Electrolyte :
Comments :
Electrode surface area : 0.001 cm²
Characteristic mass : 0.001 g
Equivalent Weight : 0.000 g/eq.
Density : 0.000 g/cm3
Volume (V) : 0.001 cm³
Record Ece
Cycle Definition : Charge/Discharge alternance
Mode                Single sine
E (V)               0.0000
vs.                 Eoc
tE (h:m:s)          0:00:0.0000
record              0
dI                  0.000
unit dI             mA
dt (s)              0.000
fi                  100.000
unit fi             kHz
ff                  10.000
unit ff             mHz
Nd                  6
Points              per decade
spacing             Logarithmic
Va (mV)             5.0
pw                  0.10
Na                  2
corr                0
E range min (V)     -10.000
E range max (V)     10.000
I Range             Auto
Bandwidth           5
nc cycles           0
goto Ns'            0
nr cycles           0
inc. cycle          0

freq/Hz	Re(Z)/Ohm	-Im(Z)/Ohm	|Z|/Ohm	Phase(Z)/deg	time/s	<Ewe>/V	<I>/mA	Cs/µF	Cp/µF	cycle number	I Range	|Ewe|/V	|I|/A	Ns	(Q-Qo)/mA.h	<Ece>/V	|Ece|/V	Phase(Zce)/deg	|Zce|/Ohm	Re(Zce)/Ohm	-Im(Zce)/Ohm	Phase(Zwe-ce)/deg	|Zwe-ce|/Ohm	Re(Zwe-ce)/Ohm	-Im(Zwe-ce)/Ohm	Re(Y)/Ohm-1	Im(Y)/Ohm-1	|Y|/Ohm-1	Phase(Y)/deg	Re(C)/nF	Im(C)/nF	|C|/nF	Phase(C)/deg	Re(M)	Im(M)	|M|	Phase(M)/deg	Re(Permittivity)	Im(Permittivity)	|Permittivity|	Phase(Permittivity)/deg	Re(Resistivity)/Ohm.cm	Im(Resistivity)/Ohm.cm	|Resistivity|/Ohm.cm	Phase(Resistivity)/deg	Re(Conductivity)/mS/cm	Im(Conductivity)/mS/cm	|Conductivity|/mS/cm	Phase(Conductivity)/deg	Tan(Delta)	Loss Angle(Delta)/deg	dq/mA.h	Pwe/W	Pce/W	Pwe-ce/W	<Ewe-Ece>/V	Rwe/Ohm	Rce/Ohm	Rwe-ce/Ohm		Ewe-Ece/V
100004	1.34407	0.513532	1.43883	-20.9105	1.72655	0.251289	0.0106223	3.09911	0.394777	1	9	0.00472939	0.00328696	0	-3.70046e-06	-0.000137797	3.29042e-05	98.5827	0.0100105	-0.00149394	-0.00989841	-20.5623	1.43393	1.34257	0.503633	0.649235	0.248055	0.695009	20.9105	394.777	1033.25	1106.1	-69.0895	0.0000000E+000	0.0000000E+000	0.0000000E+000	69.0895	0.0000000E+000	0.0000000E+000	0.0000000E+000	-69.0895	0.0000000E+000	0.0000000E+000	0.0000000E+000	-20.9105	0.0000000E+000	0.0000000E+000	0.0000000E+000	20.9105	2.6173	69.0895	-3.70046e-06	2.66926e-06	-1.46372e-09	2.67073e-06	0.251427	23656.8	12.9725	23669.7
31621.1	1.8086	0.755777	1.96016	-22.6791	3.24953	0.251283	0.00957805	6.65961	0.990042	1	9	0.00508879	0.00259611	0	3.86161e-05	-9.96091e-05	1.37554e-05	-0.535354	0.00529846	0.00529823	4.95065e-05	-22.6209	1.96507	1.8139	0.755827	0.470716	0.196703	0.510163	22.6791	990.042	2369.2	2567.74	-67.3209	0.0000000E+000	0.0000000E+000	0.0000000E+000	67.3209	0.0000000E+000	0.0000000E+000	0.0000000E+000	-67.3209	0.0000000E+000	0.0000000E+000	0.0000000E+000	-22.6791	0.0000000E+000	0.0000000E+000	0.0000000E+000	22.6791	2.39303	67.3209	1.72646e-05	2.4068e-06	-9.54061e-10	2.40776e-06	0.251383	26235.3	10.3997	26245.7
10002.2	2.4237	1.02657	2.63215	-22.9553	4.27652	0.251277	0.0045061	15.5001	2.35772	1	9	0.00494966	0.00188047	0	3.72803e-05	0.000301366	5.24789e-06	10.2222	0.00279074	0.00274644	-0.000495264	-22.9221	2.63448	2.42645	1.02607	0.349832	0.148173	0.379918	22.9553	2357.72	5566.52	6045.24	-67.0447	0.0000000E+000	0.0000000E+000	0.0000000E+000	67.0447	0.0000000E+000	0.0000000E+000	0.0000000E+000	-67.0447	0.0000000E+000	0.0000000E+000	0.0000000E+000	-22.9553	0.0000000E+000	0.0000000E+000	0.0000000E+000	22.9553	2.36097	67.0447	9.27828e-07	1.13228e-06	1.35799e-09	1.13092e-06	0.250975	55763.7	66.8797	55696.9
3163.08	3.20554	1.4847	3.53268	-24.852	5.17362	0.251047	-0.0307736	33.89	5.98604	1	9	0.00453943	0.00128498	0	3.39734e-05	1.49552e-05	7.13692e-06	-22.5967	0.00555409	0.00512772	0.00213411	-24.8484	3.53823	3.21067	1.48683	0.256858	0.118968	0.283071	24.852	5986.04	12924.2	14243.1	-65.148	0.0000000E+000	0.0000000E+000	0.0000000E+000	65.148	0.0000000E+000	0.0000000E+000	0.0000000E+000	-65.148	0.0000000E+000	0.0000000E+000	0.0000000E+000	-24.852	0.0000000E+000	0.0000000E+000	0.0000000E+000	24.852	2.15905	65.148	-2.48976e-06	-7.72562e-06	-4.60228e-10	-7.72516e-06	0.251032	8157.84	0.485976	8157.36
1000.32	4.18659	2.35018	4.80114	-29.3081	6.77283	0.251221	-0.015606	67.6985	16.2216	1	10	0.00457724	0.000953367	0	3.45735e-05	0.00012952	2.269e-05	49.918	0.0237998	0.0153243	-0.0182098	-29.0293	4.80564	4.20191	2.33197	0.181624	0.101956	0.208284	29.3081	16221.6	28897.1	33138.8	-60.6919	0.0000000E+000	0.0000000E+000	0.0000000E+000	60.6919	0.0000000E+000	0.0000000E+000	0.0000000E+000	-60.6919	0.0000000E+000	0.0000000E+000	0.0000000E+000	-29.3081	0.0000000E+000	0.0000000E+000	0.0000000E+000	29.3081	1.78139	60.6919	-2.54178e-06	-3.92055e-06	-2.02128e-09	-3.91853e-06	0.251091	16097.7	8.29935	16089.4
316.316	5.82243	4.53288	7.37887	-37.9015	8.33804	0.251227	-0.016527	111	41.8884	1	10	0.0048697	0.000659952	0	2.86469e-05	9.13315e-05	1.13989e-05	-32.7124	0.0172724	0.0145329	0.00933437	-37.8894	7.39607	5.83697	4.54221	0.106936	0.083252	0.135522	37.9015	41888.4	53805.2	68188.2	-52.0985	0.0000000E+000	0.0000000E+000	0.0000000E+000	52.0985	0.0000000E+000	0.0000000E+000	0.0000000E+000	-52.0985	0.0000000E+000	0.0000000E+000	0.0000000E+000	-37.9015	0.0000000E+000	0.0000000E+000	0.0000000E+000	37.9015	1.28449	52.0985	-1.36958e-06	-4.15204e-06	-1.50944e-09	-4.15054e-06	0.251136	15201	5.52619	15195.5
100.032	10.5061	8.50054	13.5143	-38.9766	9.68581	0.251205	-0.0165121	187.169	74.0524	1	10	0.00485583	0.00035931	0	2.24622e-05	-4.13882e-06	1.30306e-05	80.8483	0.0362657	0.00576802	-0.0358041	-38.843	13.4963	10.5118	8.46473	0.0575244	0.0465434	0.0739956	38.9766	74052.4	91523.7	117730	-51.0234	0.0000000E+000	0.0000000E+000	0.0000000E+000	51.0234	0.0000000E+000	0.0000000E+000	0.0000000E+000	-51.0234	0.0000000E+000	0.0000000E+000	0.0000000E+000	-38.9766	0.0000000E+000	0.0000000E+000	0.0000000E+000	38.9766	1.23593	51.0234	-1.65073e-06	-4.14793e-06	6.83407e-11	-4.148e-06	0.251209	15213.4	0.250653	15213.6
[...]
1.00006	33.3953	4.0003	33.634	-6.8307	19.7426	0.251251	-0.00827404	39783.2	562.765	1	12	0.00484744	0.000144123	0	3.13941e-06	-6.1421e-05	4.10629e-06	6.81798	0.0284915	0.0282901	-0.00338239	-6.81926	33.6617	33.4236	3.99691	0.0295208	0.00353618	0.0297318	6.8307	562765	4.69807e+06	4.73166e+06	-83.1693	0.0000000E+000	0.0000000E+000	0.0000000E+000	83.1693	0.0000000E+000	0.0000000E+000	0.0000000E+000	-83.1693	0.0000000E+000	0.0000000E+000	0.0000000E+000	-6.8307	0.0000000E+000	0.0000000E+000	0.0000000E+000	6.8307	8.3482	83.1693	-5.46228e-06	-2.07886e-06	5.082e-10	-2.07937e-06	0.251312	30366.2	7.42334	30373.6
0.316193	35.7438	4.03363	35.9707	-6.43849	34.0831	0.251252	-0.007957	124788	1569.15	1	12	0.00484896	0.000134803	0	-5.10678e-05	0.000110426	9.54677e-07	40.8	0.00708201	0.00536105	-0.00462753	-6.43021	35.9755	35.7492	4.029	0.027625	0.00311744	0.0278004	6.43849	1.56915e+06	1.3905e+07	1.39933e+07	-83.5615	0.0000000E+000	0.0000000E+000	0.0000000E+000	83.5615	0.0000000E+000	0.0000000E+000	0.0000000E+000	-83.5615	0.0000000E+000	0.0000000E+000	0.0000000E+000	-6.43849	0.0000000E+000	0.0000000E+000	0.0000000E+000	6.43849	8.86145	83.5615	-2.55369e-05	-1.99921e-06	-8.78657e-10	-1.99834e-06	0.251142	31576.2	13.8778	31562.4
0.0999041	38.4188	5.77258	38.85	-8.54501	79.292	0.251252	-0.00892974	275973	6092.91	1	12	0.00484854	0.000124801	0	-0.000127698	0.00012952	3.62608e-06	13.746	0.0290548	0.0282226	-0.00690393	-8.52877	38.8769	38.447	5.76567	0.0254543	0.00382461	0.02574	8.54501	6.0929e+06	4.05507e+07	4.10058e+07	-81.455	0.0000000E+000	0.0000000E+000	0.0000000E+000	81.455	0.0000000E+000	0.0000000E+000	0.0000000E+000	-81.455	0.0000000E+000	0.0000000E+000	0.0000000E+000	-8.54501	0.0000000E+000	0.0000000E+000	0.0000000E+000	8.54501	6.65539	81.455	-2.12884e-05	-2.24361e-06	-1.15658e-09	-2.24246e-06	0.251122	28136.5	14.5043	28122
0.0315922	42.94	9.31281	43.9383	-12.2368	222.176	0.251251	-0.00890787	540953	24301.6	1	12	0.00484864	0.000110351	0	-0.000362949	-9.96091e-05	2.81466e-06	-4.77735	0.0255064	0.0254177	0.00212427	-12.2325	43.9636	42.9654	9.31493	0.0222421	0.00482386	0.0227592	12.2368	2.43016e+07	1.12051e+08	1.14656e+08	-77.7632	0.0000000E+000	0.0000000E+000	0.0000000E+000	77.7632	0.0000000E+000	0.0000000E+000	0.0000000E+000	-77.7632	0.0000000E+000	0.0000000E+000	0.0000000E+000	-12.2368	0.0000000E+000	0.0000000E+000	0.0000000E+000	12.2368	4.61086	77.7632	-0.000149438	-2.23811e-06	8.87305e-10	-2.239e-06	0.251351	28205.5	11.1822	28216.7
0.0100092	49.6859	16.4708	52.3448	-18.3403	673.396	0.25125	-0.011584	965399	95585	1	12	0.00484617	9.25815e-05	0	-0.00218696	0.00022499	2.67796e-06	92.6793	0.0289254	-0.00135214	-0.0288938	-18.3107	52.3345	49.6846	16.4419	0.0181337	0.00601129	0.0191041	18.3403	9.5585e+07	2.88342e+08	3.03772e+08	-71.6597	0.0000000E+000	0.0000000E+000	0.0000000E+000	71.6597	0.0000000E+000	0.0000000E+000	0.0000000E+000	-71.6597	0.0000000E+000	0.0000000E+000	0.0000000E+000	-18.3403	0.0000000E+000	0.0000000E+000	0.0000000E+000	18.3403	3.01661	71.6597	-0.000914973	-2.91047e-06	-2.60627e-09	-2.90786e-06	0.251025	21689.5	19.4226	21670.1