Folder: EIS/txt (part 155)

File: 19063_R307_UA701_3p24_SOC00_C02.mpt
EC-Lab ASCII FILE
Nb header lines : 65

Potentio Electrochemical Impedance Spectroscopy

Run on channel : 2 (SN 66139)
Grouped channel(s) : 1, 2, 3, 4, 5
User :
CE vs. WE compliance from -10 V to 10 V
Electrode connection : standard
Potential control : Ewe
Ewe ctrl range : min = -10.00 V, max = 10.00 V
Safety Limits :
	Do not start on E overload
Acquisition started on : 11/12/2025 10:25:43.761
Loaded Setting File :  C:\Users\Celltest\OneDrive - store-dot.com\Documents\EC-Lab\Data\@Biologic Test Protocols\anode half cell EIS SOC00.mps
Saved on :
	File : 19062_R307_UA701_3p24_SOC00_C02.mpr
	Directory : C:\Users\Celltest\OneDrive - store-dot.com\Documents\EC-Lab\Data\Anna\
	Host : 169.254.61.224
Device : VMP-3e (SN .003165)
Address : USB
EC-LAB for windows v11.62 (software)
Internet server v27.00 (firmware)
Command interpretor v12.03 (firmware)
Electrode material :
Initial state :
Electrolyte :
Comments :
Electrode surface area : 0.001 cm²
Characteristic mass : 0.001 g
Equivalent Weight : 0.000 g/eq.
Density : 0.000 g/cm3
Volume (V) : 0.001 cm³
Record Ece
Cycle Definition : Charge/Discharge alternance
Mode                Single sine
E (V)               0.0000
vs.                 Eoc
tE (h:m:s)          0:00:0.0000
record              0
dI                  0.000
unit dI             mA
dt (s)              0.000
fi                  100.000
unit fi             kHz
ff                  10.000
unit ff             mHz
Nd                  6
Points              per decade
spacing             Logarithmic
Va (mV)             5.0
pw                  0.10
Na                  2
corr                0
E range min (V)     -10.000
E range max (V)     10.000
I Range             Auto
Bandwidth           5
nc cycles           0
goto Ns'            0
nr cycles           0
inc. cycle          0

freq/Hz	Re(Z)/Ohm	-Im(Z)/Ohm	|Z|/Ohm	Phase(Z)/deg	time/s	<Ewe>/V	<I>/mA	Cs/µF	Cp/µF	cycle number	I Range	|Ewe|/V	|I|/A	Ns	(Q-Qo)/mA.h	<Ece>/V	|Ece|/V	Phase(Zce)/deg	|Zce|/Ohm	Re(Zce)/Ohm	-Im(Zce)/Ohm	Phase(Zwe-ce)/deg	|Zwe-ce|/Ohm	Re(Zwe-ce)/Ohm	-Im(Zwe-ce)/Ohm	Re(Y)/Ohm-1	Im(Y)/Ohm-1	|Y|/Ohm-1	Phase(Y)/deg	Re(C)/nF	Im(C)/nF	|C|/nF	Phase(C)/deg	Re(M)	Im(M)	|M|	Phase(M)/deg	Re(Permittivity)	Im(Permittivity)	|Permittivity|	Phase(Permittivity)/deg	Re(Resistivity)/Ohm.cm	Im(Resistivity)/Ohm.cm	|Resistivity|/Ohm.cm	Phase(Resistivity)/deg	Re(Conductivity)/mS/cm	Im(Conductivity)/mS/cm	|Conductivity|/mS/cm	Phase(Conductivity)/deg	Tan(Delta)	Loss Angle(Delta)/deg	dq/mA.h	Pwe/W	Pce/W	Pwe-ce/W	<Ewe-Ece>/V	Rwe/Ohm	Rce/Ohm	Rwe-ce/Ohm		Ewe-Ece/V
100004	0.973842	0.399698	1.05268	-22.3149	1.72554	0.257653	0.0160926	3.98173	0.574046	1	9	0.00473023	0.00449353	0	1.59643e-07	5.43696e-05	1.43897e-05	91.1437	0.00320231	-6.39183e-05	-0.00320167	-22.1548	1.0514	0.973778	0.396496	0.878819	0.360697	0.94996	22.3149	574.046	1398.63	1511.85	-67.6851	0.0000000E+000	0.0000000E+000	0.0000000E+000	67.6851	0.0000000E+000	0.0000000E+000	0.0000000E+000	-67.6851	0.0000000E+000	0.0000000E+000	0.0000000E+000	-22.3149	0.0000000E+000	0.0000000E+000	0.0000000E+000	22.3149	2.43645	67.6851	1.59643e-07	4.1463e-06	8.74947e-10	4.14542e-06	0.257599	16010.7	3.37855	16007.3
31621.1	1.3238	0.563957	1.43892	-23.0747	3.24852	0.257626	0.00592441	8.92476	1.37093	1	9	0.00504949	0.00350922	0	-1.02005e-05	0.000168915	9.38063e-06	32.167	0.00267314	0.00226281	-0.00142315	-22.9873	1.44045	1.32606	0.562534	0.639364	0.272378	0.694965	23.0747	1370.93	3218.04	3497.89	-66.9253	0.0000000E+000	0.0000000E+000	0.0000000E+000	66.9253	0.0000000E+000	0.0000000E+000	0.0000000E+000	-66.9253	0.0000000E+000	0.0000000E+000	0.0000000E+000	-23.0747	0.0000000E+000	0.0000000E+000	0.0000000E+000	23.0747	2.34734	66.9253	1.19317e-05	1.52628e-06	1.00072e-09	1.52528e-06	0.257457	43485.5	28.5117	43457
10002.2	1.76237	0.774845	1.92518	-23.7333	4.27552	0.257639	0.0158318	20.5357	3.32656	1	9	0.00492046	0.00255584	0	-1.5091e-05	0.000531641	4.4391e-06	-34.9908	0.00173685	0.0014229	0.000995984	-23.7433	1.92688	1.76379	0.775841	0.475503	0.209061	0.519432	23.7333	3326.56	7566.18	8265.17	-66.2667	0.0000000E+000	0.0000000E+000	0.0000000E+000	66.2667	0.0000000E+000	0.0000000E+000	0.0000000E+000	-66.2667	0.0000000E+000	0.0000000E+000	0.0000000E+000	-23.7333	0.0000000E+000	0.0000000E+000	0.0000000E+000	23.7333	2.27448	66.2667	2.80105e-06	4.07889e-06	8.41683e-09	4.07047e-06	0.257107	16273.5	33.5806	16239.9
3163.08	2.32965	1.15433	2.59995	-26.3581	5.35064	0.257442	-0.0665934	43.5894	8.59226	1	9	0.00498362	0.00191681	0	-2.52626e-05	0.000111642	7.1433e-06	-66.1452	0.00372666	0.00150714	0.0034083	-26.4106	2.60282	2.33116	1.15774	0.344635	0.170764	0.384622	26.3581	8592.26	17340.8	19352.8	-63.6419	0.0000000E+000	0.0000000E+000	0.0000000E+000	63.6419	0.0000000E+000	0.0000000E+000	0.0000000E+000	-63.6419	0.0000000E+000	0.0000000E+000	0.0000000E+000	-26.3581	0.0000000E+000	0.0000000E+000	0.0000000E+000	26.3581	2.01819	63.6419	-1.21236e-05	-1.71439e-05	-7.43463e-09	-1.71365e-05	0.25733	3865.88	1.67647	3864.2
1000.32	3.09162	1.94416	3.6521	-32.1637	6.94886	0.257551	-0.020481	81.8368	23.1914	1	10	0.00495714	0.00135734	0	-2.97526e-05	0.000245278	9.93044e-06	79.2917	0.00731612	0.0013594	-0.00718872	-32.0568	3.64943	3.09298	1.93697	0.231793	0.145763	0.273815	32.1637	23191.4	36879.1	43565	-57.8363	0.0000000E+000	0.0000000E+000	0.0000000E+000	57.8363	0.0000000E+000	0.0000000E+000	0.0000000E+000	-57.8363	0.0000000E+000	0.0000000E+000	0.0000000E+000	-32.1637	0.0000000E+000	0.0000000E+000	0.0000000E+000	32.1637	1.59021	57.8363	-1.99442e-06	-5.27489e-06	-5.02354e-09	-5.26987e-06	0.257306	12575.1	11.9759	12563.1
316.316	4.51898	3.87591	5.95347	-40.6195	8.29907	0.257533	-0.0222319	129.815	55.0214	1	10	0.0048182	0.00080931	0	-3.83833e-05	0.000168915	9.42472e-06	47.1221	0.0116454	0.00792396	-0.00853379	-40.5075	5.95394	4.5269	3.86737	0.127497	0.109354	0.167969	40.6195	55021.4	64150.3	84514	-49.3805	0.0000000E+000	0.0000000E+000	0.0000000E+000	49.3805	0.0000000E+000	0.0000000E+000	0.0000000E+000	-49.3805	0.0000000E+000	0.0000000E+000	0.0000000E+000	-40.6195	0.0000000E+000	0.0000000E+000	0.0000000E+000	40.6195	1.16592	49.3805	-3.26045e-06	-5.72545e-06	-3.75529e-09	-5.72169e-06	0.257364	11584	7.59786	11576.4
100.032	8.6355	7.02749	11.1336	-39.1384	9.64581	0.25754	-0.0200116	226.402	90.2005	1	10	0.00478692	0.000429951	0	-4.56522e-05	0.000130733	1.07114e-05	-108.348	0.0249131	-0.00784242	0.0236466	-39.2582	11.1425	8.62766	7.05114	0.069665	0.0566928	0.0898181	39.1384	90200.5	110840	142904	-50.8616	0.0000000E+000	0.0000000E+000	0.0000000E+000	50.8616	0.0000000E+000	0.0000000E+000	0.0000000E+000	-50.8616	0.0000000E+000	0.0000000E+000	0.0000000E+000	-39.1384	0.0000000E+000	0.0000000E+000	0.0000000E+000	39.1384	1.22882	50.8616	-2.37349e-06	-5.1538e-06	-2.61618e-09	-5.15119e-06	0.25741	12869.5	6.53285	12863
[...]
1.00006	26.847	3.09938	27.0253	-6.58542	19.6978	0.257571	-0.00385156	51347.3	675.346	1	12	0.00479128	0.000177289	0	-6.38216e-05	-0.000117448	3.67466e-06	-81.4191	0.020727	0.0030926	0.0204949	-6.62783	27.0307	26.8501	3.11988	0.0367582	0.0042436	0.0370024	6.58542	675346	5.84988e+06	5.88874e+06	-83.4146	0.0000000E+000	0.0000000E+000	0.0000000E+000	83.4146	0.0000000E+000	0.0000000E+000	0.0000000E+000	-83.4146	0.0000000E+000	0.0000000E+000	0.0000000E+000	-6.58542	0.0000000E+000	0.0000000E+000	0.0000000E+000	6.58542	8.66205	83.4146	2.5354e-07	-9.92051e-07	4.52359e-10	-9.92503e-07	0.257688	66874.4	30.4936	66904.9
0.316193	28.5203	2.72377	28.65	-5.45537	34.04	0.257571	-0.00193839	184798	1670.27	1	12	0.00478957	0.000167175	0	-5.83585e-05	0.000302551	2.54627e-06	6.53468	0.0152312	0.0151322	-0.00173338	-5.44904	28.6649	28.5354	2.72204	0.0347459	0.00331833	0.034904	5.45537	1.67027e+06	1.74892e+07	1.75688e+07	-84.5446	0.0000000E+000	0.0000000E+000	0.0000000E+000	84.5446	0.0000000E+000	0.0000000E+000	0.0000000E+000	-84.5446	0.0000000E+000	0.0000000E+000	0.0000000E+000	-5.45537	0.0000000E+000	0.0000000E+000	0.0000000E+000	5.45537	10.4709	84.5446	-2.84829e-06	-4.99275e-07	-5.86462e-10	-4.98689e-07	0.257269	132879	156.083	132723
0.0999041	29.9215	3.85122	30.1683	-7.33427	79.2479	0.257564	-0.00135473	413655	6741.14	1	12	0.0047921	0.000158845	0	-0.000156212	-0.000270175	2.08796e-06	-11.9714	0.0131446	0.0128587	0.00272649	-7.33629	30.1814	29.9344	3.85395	0.0328761	0.00423152	0.0331473	7.33427	6.74114e+06	5.23742e+07	5.28063e+07	-82.6657	0.0000000E+000	0.0000000E+000	0.0000000E+000	82.6657	0.0000000E+000	0.0000000E+000	0.0000000E+000	-82.6657	0.0000000E+000	0.0000000E+000	0.0000000E+000	-7.33427	0.0000000E+000	0.0000000E+000	0.0000000E+000	7.33427	7.76935	82.6657	-4.84264e-05	-3.48931e-07	3.66015e-10	-3.49297e-07	0.257835	190122	199.43	190321
0.0315922	32.3233	8.12109	33.3279	-14.1034	222.131	0.257558	-0.00179689	620334	36833.2	1	12	0.00478669	0.000143624	0	-0.000161667	0.00028346	2.18141e-06	-2.63901	0.0151884	0.0151722	0.00069932	-14.0982	33.3428	32.3385	8.12179	0.0291005	0.00731138	0.0300049	14.1034	3.68332e+07	1.46602e+08	1.51159e+08	-75.8966	0.0000000E+000	0.0000000E+000	0.0000000E+000	75.8966	0.0000000E+000	0.0000000E+000	0.0000000E+000	-75.8966	0.0000000E+000	0.0000000E+000	0.0000000E+000	-14.1034	0.0000000E+000	0.0000000E+000	0.0000000E+000	14.1034	3.98017	75.8966	6.00846e-05	-4.62803e-07	-5.09346e-10	-4.62293e-07	0.257274	143335	157.75	143177
0.0100092	37.5235	17.9873	41.612	-25.6112	673.355	0.25756	0.000388228	884008	165178	1	12	0.00478846	0.000115074	0	0.000284953	0.000130733	2.23136e-06	-14.3401	0.0193907	0.0187865	0.00480261	-25.606	41.631	37.5423	17.9921	0.0216704	0.0103879	0.0240315	25.6112	1.65178e+08	3.44579e+08	3.82123e+08	-64.3888	0.0000000E+000	0.0000000E+000	0.0000000E+000	64.3888	0.0000000E+000	0.0000000E+000	0.0000000E+000	-64.3888	0.0000000E+000	0.0000000E+000	0.0000000E+000	-25.6112	0.0000000E+000	0.0000000E+000	0.0000000E+000	25.6112	2.08611	64.3888	8.94784e-05	9.99921e-08	5.07543e-11	9.99414e-08	0.257429	663424	336.742	663087

File: 19064_R307_UA701_3p24_SOC00_C03.mpt
EC-Lab ASCII FILE
Nb header lines : 65

Potentio Electrochemical Impedance Spectroscopy

Run on channel : 3 (SN 65921)
Grouped channel(s) : 1, 2, 3, 4, 5
User :
CE vs. WE compliance from -10 V to 10 V
Electrode connection : standard
Potential control : Ewe
Ewe ctrl range : min = -10.00 V, max = 10.00 V
Safety Limits :
	Do not start on E overload
Acquisition started on : 11/12/2025 10:25:43.761
Loaded Setting File :  C:\Users\Celltest\OneDrive - store-dot.com\Documents\EC-Lab\Data\@Biologic Test Protocols\anode half cell EIS SOC00.mps
Saved on :
	File : 19062_R307_UA701_3p24_SOC00_C03.mpr
	Directory : C:\Users\Celltest\OneDrive - store-dot.com\Documents\EC-Lab\Data\Anna\
	Host : 169.254.61.224
Device : VMP-3e (SN .003165)
Address : USB
EC-LAB for windows v11.62 (software)
Internet server v27.00 (firmware)
Command interpretor v12.03 (firmware)
Electrode material :
Initial state :
Electrolyte :
Comments :
Electrode surface area : 0.001 cm²
Characteristic mass : 0.001 g
Equivalent Weight : 0.000 g/eq.
Density : 0.000 g/cm3
Volume (V) : 0.001 cm³
Record Ece
Cycle Definition : Charge/Discharge alternance
Mode                Single sine
E (V)               0.0000
vs.                 Eoc
tE (h:m:s)          0:00:0.0000
record              0
dI                  0.000
unit dI             mA
dt (s)              0.000
fi                  100.000
unit fi             kHz
ff                  10.000
unit ff             mHz
Nd                  6
Points              per decade
spacing             Logarithmic
Va (mV)             5.0
pw                  0.10
Na                  2
corr                0
E range min (V)     -10.000
E range max (V)     10.000
I Range             Auto
Bandwidth           5
nc cycles           0
goto Ns'            0
nr cycles           0
inc. cycle          0

freq/Hz	Re(Z)/Ohm	-Im(Z)/Ohm	|Z|/Ohm	Phase(Z)/deg	time/s	<Ewe>/V	<I>/mA	Cs/µF	Cp/µF	cycle number	I Range	|Ewe|/V	|I|/A	Ns	(Q-Qo)/mA.h	<Ece>/V	|Ece|/V	Phase(Zce)/deg	|Zce|/Ohm	Re(Zce)/Ohm	-Im(Zce)/Ohm	Phase(Zwe-ce)/deg	|Zwe-ce|/Ohm	Re(Zwe-ce)/Ohm	-Im(Zwe-ce)/Ohm	Re(Y)/Ohm-1	Im(Y)/Ohm-1	|Y|/Ohm-1	Phase(Y)/deg	Re(C)/nF	Im(C)/nF	|C|/nF	Phase(C)/deg	Re(M)	Im(M)	|M|	Phase(M)/deg	Re(Permittivity)	Im(Permittivity)	|Permittivity|	Phase(Permittivity)/deg	Re(Resistivity)/Ohm.cm	Im(Resistivity)/Ohm.cm	|Resistivity|/Ohm.cm	Phase(Resistivity)/deg	Re(Conductivity)/mS/cm	Im(Conductivity)/mS/cm	|Conductivity|/mS/cm	Phase(Conductivity)/deg	Tan(Delta)	Loss Angle(Delta)/deg	dq/mA.h	Pwe/W	Pce/W	Pwe-ce/W	<Ewe-Ece>/V	Rwe/Ohm	Rce/Ohm	Rwe-ce/Ohm		Ewe-Ece/V
100004	0.989185	0.413695	1.07221	-22.6956	1.72554	0.262687	0.0115174	3.84701	0.572699	1	9	0.00501717	0.00467929	0	2.61514e-06	-0.000244628	4.31708e-05	94.7495	0.00922594	-0.000763901	-0.00919426	-22.2563	1.06799	0.988421	0.404501	0.860437	0.359851	0.932655	22.6956	572.699	1369.38	1484.31	-67.3044	0.0000000E+000	0.0000000E+000	0.0000000E+000	67.3044	0.0000000E+000	0.0000000E+000	0.0000000E+000	-67.3044	0.0000000E+000	0.0000000E+000	0.0000000E+000	-22.6956	0.0000000E+000	0.0000000E+000	0.0000000E+000	22.6956	2.3911	67.3044	2.61514e-06	3.02546e-06	-2.81747e-09	3.02828e-06	0.262932	22807.9	21.24	22829.2
31621.1	1.33565	0.542858	1.44175	-22.1187	3.24652	0.262683	0.0290826	9.27163	1.31446	1	9	0.0051235	0.00355366	0	9.30533e-06	9.90647e-05	1.4642e-05	52.6793	0.00412026	0.00249801	-0.00327666	-21.9608	1.44284	1.33815	0.539581	0.642555	0.261158	0.693599	22.1187	1314.46	3234.09	3491.01	-67.8813	0.0000000E+000	0.0000000E+000	0.0000000E+000	67.8813	0.0000000E+000	0.0000000E+000	0.0000000E+000	-67.8813	0.0000000E+000	0.0000000E+000	0.0000000E+000	-22.1187	0.0000000E+000	0.0000000E+000	0.0000000E+000	22.1187	2.4604	67.8813	-7.84989e-06	7.6395e-06	2.88106e-09	7.63662e-06	0.262584	9032.31	3.40632	9028.9
10002.2	1.74859	0.723263	1.89226	-22.4713	4.27154	0.262691	0.0235631	22.0002	3.21408	1	9	0.00486167	0.00256923	0	3.11655e-05	-3.45937e-05	9.28327e-06	-133.924	0.00361325	-0.00250652	0.00260248	-22.5732	1.89095	1.74608	0.725866	0.488341	0.201992	0.528468	22.4713	3214.08	7770.47	8408.95	-67.5287	0.0000000E+000	0.0000000E+000	0.0000000E+000	67.5287	0.0000000E+000	0.0000000E+000	0.0000000E+000	-67.5287	0.0000000E+000	0.0000000E+000	0.0000000E+000	-22.4713	0.0000000E+000	0.0000000E+000	0.0000000E+000	22.4713	2.41763	67.5287	3.09692e-06	6.18982e-06	-8.15136e-10	6.19063e-06	0.262725	11148.4	1.46813	11149.8
3163.08	2.26231	1.07044	2.50278	-25.3217	5.29467	0.26244	-0.0679926	47.0054	8.59858	1	9	0.00486064	0.0019421	0	2.56105e-05	-0.000263722	1.01127e-05	-65.2998	0.00520708	0.00217589	0.00473067	-25.3982	2.50677	2.26449	1.07517	0.361167	0.17089	0.399556	25.3217	8598.58	18172.6	20104.2	-64.6783	0.0000000E+000	0.0000000E+000	0.0000000E+000	64.6783	0.0000000E+000	0.0000000E+000	0.0000000E+000	-64.6783	0.0000000E+000	0.0000000E+000	0.0000000E+000	-25.3217	0.0000000E+000	0.0000000E+000	0.0000000E+000	25.3217	2.11344	64.6783	-6.76356e-06	-1.7844e-05	1.79312e-08	-1.78619e-05	0.262704	3859.83	3.87869	3863.71
1000.32	2.98029	1.83564	3.50024	-31.6301	6.8928	0.262605	-0.0199986	86.6748	23.8382	1	10	0.00487896	0.00139389	0	4.09025e-05	4.17825e-05	6.80975e-06	-2.83546	0.00488542	0.00487944	0.000241672	-31.5916	3.50452	2.98517	1.83589	0.243255	0.149828	0.285695	31.6301	23838.2	38702.9	45455.1	-58.3699	0.0000000E+000	0.0000000E+000	0.0000000E+000	58.3699	0.0000000E+000	0.0000000E+000	0.0000000E+000	-58.3699	0.0000000E+000	0.0000000E+000	0.0000000E+000	-31.6301	0.0000000E+000	0.0000000E+000	0.0000000E+000	31.6301	1.62356	58.3699	2.40648e-06	-5.25174e-06	-8.35593e-10	-5.25091e-06	0.262564	13131.2	2.08927	13129.1
316.316	4.40785	3.614	5.70002	-39.3484	8.24203	0.262609	-0.0150877	139.223	55.9674	1	10	0.0047581	0.000834753	0	3.34801e-05	2.26885e-05	1.03797e-05	-8.39069	0.0124345	0.0123014	0.00181446	-39.2842	5.71068	4.42016	3.61582	0.135667	0.111234	0.175438	39.3484	55967.4	68261.2	88272	-50.6516	0.0000000E+000	0.0000000E+000	0.0000000E+000	50.6516	0.0000000E+000	0.0000000E+000	0.0000000E+000	-50.6516	0.0000000E+000	0.0000000E+000	0.0000000E+000	-39.3484	0.0000000E+000	0.0000000E+000	0.0000000E+000	39.3484	1.21966	50.6516	-1.74799e-06	-3.96215e-06	-3.42317e-10	-3.96181e-06	0.262586	17405.5	1.50378	17404
100.032	8.25166	6.23027	10.3395	-37.054	9.5888	0.262614	-0.0192268	255.372	92.7225	1	10	0.00472019	0.000456518	0	2.7919e-05	0.000137253	7.2649e-06	-27.1595	0.0159137	0.0141591	0.00726411	-37.0389	10.3552	8.26582	6.23754	0.077186	0.0582779	0.096716	37.054	92722.5	122806	153879	-52.946	0.0000000E+000	0.0000000E+000	0.0000000E+000	52.946	0.0000000E+000	0.0000000E+000	0.0000000E+000	-52.946	0.0000000E+000	0.0000000E+000	0.0000000E+000	-37.054	0.0000000E+000	0.0000000E+000	0.0000000E+000	37.054	1.32445	52.946	-2.70613e-06	-5.04922e-06	-2.63893e-09	-5.04658e-06	0.262477	13658.8	7.13864	13651.7
[...]
1.00006	23.6646	2.38542	23.7845	-5.75603	19.637	0.262642	-0.00579594	66715.7	671.069	1	12	0.00472309	0.000198578	0	-5.94904e-06	-7.27818e-05	3.85688e-06	-21.9277	0.0194225	0.0180174	0.00725306	-5.76905	23.8032	23.6826	2.39267	0.0418321	0.00421672	0.0420441	5.75603	671069	6.65737e+06	6.6911e+06	-84.244	0.0000000E+000	0.0000000E+000	0.0000000E+000	84.244	0.0000000E+000	0.0000000E+000	0.0000000E+000	-84.244	0.0000000E+000	0.0000000E+000	0.0000000E+000	-5.75603	0.0000000E+000	0.0000000E+000	0.0000000E+000	5.75603	9.92054	84.244	-1.1069e-05	-1.52226e-06	4.21839e-10	-1.52268e-06	0.262715	45314.9	12.5574	45327.4
0.316193	24.7859	2.29803	24.8922	-5.29706	33.979	0.262651	-0.00519037	219034	1866.8	1	12	0.00472397	0.000189777	0	-5.50659e-06	3.59442e-06	3.76241e-06	25.3103	0.0198254	0.0179223	-0.00847576	-5.27384	24.9093	24.8038	2.28956	0.0400017	0.00370877	0.0401732	5.29706	1.8668e+06	2.01347e+07	2.02211e+07	-84.7029	0.0000000E+000	0.0000000E+000	0.0000000E+000	84.7029	0.0000000E+000	0.0000000E+000	0.0000000E+000	-84.7029	0.0000000E+000	0.0000000E+000	0.0000000E+000	-5.29706	0.0000000E+000	0.0000000E+000	0.0000000E+000	5.29706	10.7857	84.7029	7.04539e-06	-1.36326e-06	-1.86564e-11	-1.36324e-06	0.262648	50603.6	0.692517	50602.9
0.0999041	26.0879	3.79595	26.3626	-8.27881	79.1869	0.262636	-0.000767345	419678	8701.25	1	12	0.00472255	0.000179138	0	-1.28909e-05	-0.00011097	2.67847e-06	-3.47522	0.014952	0.0149245	0.000906342	-8.27609	26.3775	26.1028	3.79686	0.0375372	0.00546191	0.0379325	8.27881	8.70125e+06	5.97997e+07	6.04295e+07	-81.7212	0.0000000E+000	0.0000000E+000	0.0000000E+000	81.7212	0.0000000E+000	0.0000000E+000	0.0000000E+000	-81.7212	0.0000000E+000	0.0000000E+000	0.0000000E+000	-8.27881	0.0000000E+000	0.0000000E+000	0.0000000E+000	8.27881	6.87255	81.7212	-2.06041e-05	-2.01532e-07	8.51523e-11	-2.01617e-07	0.262747	342265	144.615	342410
0.0315922	28.5894	7.83681	29.644	-15.3292	222.071	0.262636	-0.00132776	642837	44926.8	1	12	0.00472359	0.000159344	0	-0.00031215	-7.27818e-05	1.08481e-06	18.5756	0.00680796	0.0064533	-0.00216871	-15.3218	29.6497	28.5958	7.83464	0.0325335	0.00891796	0.0337336	15.3292	4.49268e+07	1.63897e+08	1.69943e+08	-74.6708	0.0000000E+000	0.0000000E+000	0.0000000E+000	74.6708	0.0000000E+000	0.0000000E+000	0.0000000E+000	-74.6708	0.0000000E+000	0.0000000E+000	0.0000000E+000	-15.3292	0.0000000E+000	0.0000000E+000	0.0000000E+000	15.3292	3.64809	74.6708	-0.000134737	-3.48718e-07	9.66368e-11	-3.48815e-07	0.262709	197804	54.8155	197859
0.0100092	32.9389	17.6386	37.3643	-28.1688	673.29	0.262636	-0.000621328	901483	200896	1	12	0.00472606	0.000126486	0	2.97742e-05	-0.00011097	1.73017e-06	-12.4306	0.0136788	0.0133581	0.00294445	-28.1631	37.3775	32.9523	17.6416	0.0235936	0.0126343	0.0267635	28.1688	2.00896e+08	3.7516e+08	4.25564e+08	-61.8312	0.0000000E+000	0.0000000E+000	0.0000000E+000	61.8312	0.0000000E+000	0.0000000E+000	0.0000000E+000	-61.8312	0.0000000E+000	0.0000000E+000	0.0000000E+000	-28.1688	0.0000000E+000	0.0000000E+000	0.0000000E+000	28.1688	1.86743	61.8312	0.000319923	-1.63183e-07	6.89487e-11	-1.63252e-07	0.262747	422701	178.601	422880