Folder: EIS/txt (part 193)

File: 19505_R316_UA716_SOC00_C07.mpt
EC-Lab ASCII FILE
Nb header lines : 65

Potentio Electrochemical Impedance Spectroscopy

Run on channel : 7 (SN 66126)
User :
CE vs. WE compliance from -10 V to 10 V
Electrode connection : standard
Potential control : Ewe
Ewe ctrl range : min = -10.00 V, max = 10.00 V
Safety Limits :
	Do not start on E overload
Acquisition started on : 12/04/2025 15:15:11.338
Technique started on : 12/04/2025 15:15:13.393
Loaded Setting File :  NONE
Saved on :
	File : 19505_R316_UA716_SOC00_C07.mpr
	Directory : C:\Users\Celltest\OneDrive - store-dot.com\Documents\EC-Lab\Data\Charmaine\
	Host : 169.254.61.224
Device : VMP-3e (SN .003165)
Address : USB
EC-LAB for windows v11.62 (software)
Internet server v27.00 (firmware)
Command interpretor v12.03 (firmware)
Electrode material :
Initial state :
Electrolyte :
Comments :
Electrode surface area : 0.001 cm²
Characteristic mass : 0.001 g
Equivalent Weight : 0.000 g/eq.
Density : 0.000 g/cm3
Volume (V) : 0.001 cm³
Record Ece
Cycle Definition : Charge/Discharge alternance
Mode                Single sine
E (V)               0.0000
vs.                 Eoc
tE (h:m:s)          0:00:0.0000
record              0
dI                  0.000
unit dI             mA
dt (s)              0.000
fi                  100.000
unit fi             kHz
ff                  10.000
unit ff             mHz
Nd                  6
Points              per decade
spacing             Logarithmic
Va (mV)             5.0
pw                  0.10
Na                  2
corr                0
E range min (V)     -10.000
E range max (V)     10.000
I Range             Auto
Bandwidth           5
nc cycles           0
goto Ns'            0
nr cycles           0
inc. cycle          0

freq/Hz	Re(Z)/Ohm	-Im(Z)/Ohm	|Z|/Ohm	Phase(Z)/deg	time/s	<Ewe>/V	<I>/mA	Cs/µF	Cp/µF	cycle number	I Range	|Ewe|/V	|I|/A	Ns	(Q-Qo)/mA.h	<Ece>/V	|Ece|/V	Phase(Zce)/deg	|Zce|/Ohm	Re(Zce)/Ohm	-Im(Zce)/Ohm	Phase(Zwe-ce)/deg	|Zwe-ce|/Ohm	Re(Zwe-ce)/Ohm	-Im(Zwe-ce)/Ohm	Re(Y)/Ohm-1	Im(Y)/Ohm-1	|Y|/Ohm-1	Phase(Y)/deg	Re(C)/nF	Im(C)/nF	|C|/nF	Phase(C)/deg	Re(M)	Im(M)	|M|	Phase(M)/deg	Re(Permittivity)	Im(Permittivity)	|Permittivity|	Phase(Permittivity)/deg	Re(Resistivity)/Ohm.cm	Im(Resistivity)/Ohm.cm	|Resistivity|/Ohm.cm	Phase(Resistivity)/deg	Re(Conductivity)/mS/cm	Im(Conductivity)/mS/cm	|Conductivity|/mS/cm	Phase(Conductivity)/deg	Tan(Delta)	Loss Angle(Delta)/deg	dq/mA.h	Pwe/W	Pce/W	Pwe-ce/W	<Ewe-Ece>/V	Rwe/Ohm	Rce/Ohm	Rwe-ce/Ohm		Ewe-Ece/V
100004	1.47678	0.447902	1.54321	-16.8723	2.05456	0.217961	0.0771977	3.55321	0.29932	1	9	0.00492242	0.00318972	0	1.20748e-05	-0.000285059	4.11085e-05	68.9785	0.0128878	0.00462309	-0.0120301	-16.3954	1.5442	1.48141	0.435872	0.620104	0.188075	0.647998	16.8723	299.32	986.89	1031.28	-73.1277	0.0000000E+000	0.0000000E+000	0.0000000E+000	73.1277	0.0000000E+000	0.0000000E+000	0.0000000E+000	-73.1277	0.0000000E+000	0.0000000E+000	0.0000000E+000	-16.8723	0.0000000E+000	0.0000000E+000	0.0000000E+000	16.8723	3.29711	73.1277	1.20748e-05	1.68261e-05	-2.20059e-08	1.68481e-05	0.218246	2823.41	3.69259	2827.1
31621.1	1.85979	0.657724	1.97267	-19.4764	3.20355	0.217988	0.0732134	7.65242	0.850707	1	9	0.00537179	0.00272311	0	4.09821e-05	0.0001346	1.23831e-05	9.96505	0.00454742	0.00447881	-0.000786919	-19.4116	1.97663	1.86427	0.656937	0.477921	0.16902	0.506928	19.4764	850.707	2405.46	2551.46	-70.5236	0.0000000E+000	0.0000000E+000	0.0000000E+000	70.5236	0.0000000E+000	0.0000000E+000	0.0000000E+000	-70.5236	0.0000000E+000	0.0000000E+000	0.0000000E+000	-19.4764	0.0000000E+000	0.0000000E+000	0.0000000E+000	19.4764	2.82761	70.5236	4.54245e-06	1.59596e-05	9.85452e-09	1.59498e-05	0.217853	2977.43	1.83846	2975.59
10002.2	2.37487	0.930474	2.55065	-21.3952	4.35856	0.217969	0.0821873	17.1009	2.27576	1	9	0.00519295	0.00203593	0	5.90164e-05	1.07189e-06	7.36087e-06	117.694	0.00361548	-0.00168028	-0.00320131	-21.342	2.54792	2.37319	0.927273	0.365039	0.143022	0.392057	21.3952	2275.76	5808.48	6238.4	-68.6048	0.0000000E+000	0.0000000E+000	0.0000000E+000	68.6048	0.0000000E+000	0.0000000E+000	0.0000000E+000	-68.6048	0.0000000E+000	0.0000000E+000	0.0000000E+000	-21.3952	0.0000000E+000	0.0000000E+000	0.0000000E+000	21.3952	2.55233	68.6048	5.09409e-06	1.79143e-05	8.8096e-11	1.79142e-05	0.217968	2652.1	0.0130421	2652.09
3163.08	3.04221	1.37284	3.33763	-24.2879	5.50668	0.217925	0.0580956	36.6514	6.20089	1	9	0.00505985	0.001516	0	8.35388e-05	3.92227e-05	3.51693e-06	39.7912	0.00231987	0.00178254	-0.0014847	-24.2521	3.33864	3.044	1.37135	0.273095	0.123238	0.299614	24.2879	6200.89	13741.2	15075.5	-65.7121	0.0000000E+000	0.0000000E+000	0.0000000E+000	65.7121	0.0000000E+000	0.0000000E+000	0.0000000E+000	-65.7121	0.0000000E+000	0.0000000E+000	0.0000000E+000	-24.2879	0.0000000E+000	0.0000000E+000	0.0000000E+000	24.2879	2.216	65.7121	6.948e-06	1.26605e-05	2.27867e-09	1.26582e-05	0.217886	3751.14	0.675142	3750.47
1000.32	4.04134	2.21734	4.60967	-28.752	7.10482	0.217944	-0.000498097	71.7545	16.6025	1	10	0.00492113	0.00106757	0	8.66458e-05	0.0001346	5.02361e-06	104.383	0.00470566	-0.00116893	-0.00455816	-28.7093	4.60645	4.04017	2.21278	0.190189	0.10435	0.216935	28.752	16602.5	30259.9	34515.3	-61.248	0.0000000E+000	0.0000000E+000	0.0000000E+000	61.248	0.0000000E+000	0.0000000E+000	0.0000000E+000	-61.248	0.0000000E+000	0.0000000E+000	0.0000000E+000	-28.752	0.0000000E+000	0.0000000E+000	0.0000000E+000	28.752	1.82261	61.248	-7.94584e-07	-1.08557e-07	-6.70438e-11	-1.0849e-07	0.21781	437554	270.228	437283
316.316	5.49933	4.1626	6.89709	-37.1231	8.45403	0.217934	-0.00185319	120.875	44.0283	1	10	0.00479262	0.000694876	0	8.65306e-05	5.82982e-05	1.04572e-05	-119.418	0.015049	-0.00739167	0.0131086	-37.2469	6.89912	5.49194	4.1757	0.115605	0.0875049	0.144989	37.1231	44028.3	58167.1	72951.3	-52.8769	0.0000000E+000	0.0000000E+000	0.0000000E+000	52.8769	0.0000000E+000	0.0000000E+000	0.0000000E+000	-52.8769	0.0000000E+000	0.0000000E+000	0.0000000E+000	-37.1231	0.0000000E+000	0.0000000E+000	0.0000000E+000	37.1231	1.32113	52.8769	-7.59495e-07	-4.03874e-07	-1.08038e-10	-4.03766e-07	0.217876	117600	31.4582	117568
100.032	9.06734	8.61635	12.5083	-43.5391	9.80182	0.217934	-0.00177502	184.654	87.6206	1	10	0.00473573	0.000378606	0	8.57827e-05	-0.00032321	1.44671e-05	-34.5509	0.0382115	0.0314719	0.0216712	-43.5118	12.5461	9.09881	8.63802	0.0579538	0.0550713	0.0799468	43.5391	87620.6	92206.8	127199	-46.4609	0.0000000E+000	0.0000000E+000	0.0000000E+000	46.4609	0.0000000E+000	0.0000000E+000	0.0000000E+000	-46.4609	0.0000000E+000	0.0000000E+000	0.0000000E+000	-43.5391	0.0000000E+000	0.0000000E+000	0.0000000E+000	43.5391	1.05234	46.4609	-3.58392e-07	-3.86838e-07	5.73705e-10	-3.87411e-07	0.218257	122778	182.088	122960
31.6296	19.3824	13.2016	23.4512	-34.2594	11.3715	0.217944	-0.000992147	381.153	120.788	1	11	0.00474518	0.000202343	0	8.55038e-05	-9.43052e-05	6.04452e-06	91.9529	0.0298727	-0.00101802	-0.0298553	-34.2004	23.4336	19.3814	13.1718	0.0352433	0.0240047	0.0426417	34.2594	120788	177339	214566	-55.7406	0.0000000E+000	0.0000000E+000	0.0000000E+000	55.7406	0.0000000E+000	0.0000000E+000	0.0000000E+000	-55.7406	0.0000000E+000	0.0000000E+000	0.0000000E+000	-34.2594	0.0000000E+000	0.0000000E+000	0.0000000E+000	34.2594	1.46818	55.7406	-9.24702e-08	-2.16233e-07	9.35647e-11	-2.16326e-07	0.218039	219669	95.0516	219764
[...]
1.00006	37.5393	3.10599	37.6675	-4.72987	19.5408	0.217956	-0.000638961	51238	348.384	1	12	0.00473309	0.000125654	0	8.0991e-05	-0.000208758	1.27373e-06	161.994	0.0101368	-0.00964034	-0.0031334	-4.72632	37.6577	37.5296	3.10286	0.0264576	0.0021891	0.0265481	4.72987	348384	4.2106e+06	4.22498e+06	-85.2701	0.0000000E+000	0.0000000E+000	0.0000000E+000	85.2701	0.0000000E+000	0.0000000E+000	0.0000000E+000	-85.2701	0.0000000E+000	0.0000000E+000	0.0000000E+000	-4.72987	0.0000000E+000	0.0000000E+000	0.0000000E+000	4.72987	12.0861	85.2701	-9.71464e-07	-1.39266e-07	1.33388e-10	-1.39399e-07	0.218165	341111	326.715	341438
0.316193	38.8636	2.6519	38.9539	-3.9036	33.883	0.217959	0.000228494	189806	879.677	1	12	0.00473243	0.000121488	0	0.000101407	-0.000265984	1.54927e-06	-60.7073	0.0127524	0.0062394	0.0111218	-3.91929	38.9609	38.8698	2.66303	0.0256118	0.00174765	0.0256714	3.9036	879677	1.28916e+07	1.29216e+07	-86.0964	0.0000000E+000	0.0000000E+000	0.0000000E+000	86.0964	0.0000000E+000	0.0000000E+000	0.0000000E+000	-86.0964	0.0000000E+000	0.0000000E+000	0.0000000E+000	-3.9036	0.0000000E+000	0.0000000E+000	0.0000000E+000	3.9036	14.655	86.0964	1.02772e-05	4.98023e-08	-6.07758e-11	4.98631e-08	0.218225	953894	1164.07	955058
0.0999041	40.6571	3.64237	40.8199	-5.11932	79.0909	0.217964	0.00121032	437374	3482.38	1	12	0.00472903	0.000115851	0	8.10775e-05	-0.000227833	2.35846e-06	12.6426	0.0203577	0.0198641	-0.00445567	-5.11061	40.8393	40.677	3.63791	0.0244001	0.00218595	0.0244978	5.11932	3.48238e+06	3.88713e+07	3.9027e+07	-84.8807	0.0000000E+000	0.0000000E+000	0.0000000E+000	84.8807	0.0000000E+000	0.0000000E+000	0.0000000E+000	-84.8807	0.0000000E+000	0.0000000E+000	0.0000000E+000	-5.11932	0.0000000E+000	0.0000000E+000	0.0000000E+000	5.11932	11.1623	84.8807	-2.5345e-05	2.63805e-07	-2.7575e-10	2.64081e-07	0.218192	180088	188.243	180277
0.0315922	42.9815	6.76892	43.5112	-8.94969	221.974	0.21797	0.00037417	744253	18011.8	1	12	0.00473327	0.000108783	0	-1.46168e-05	-5.61544e-05	2.93371e-06	-2.53253	0.0269685	0.0269421	0.00119165	-8.94573	43.538	43.0084	6.77011	0.0227028	0.00357533	0.0229826	8.94969	1.80118e+07	1.14372e+08	1.15781e+08	-81.0503	0.0000000E+000	0.0000000E+000	0.0000000E+000	81.0503	0.0000000E+000	0.0000000E+000	0.0000000E+000	-81.0503	0.0000000E+000	0.0000000E+000	0.0000000E+000	-8.94969	0.0000000E+000	0.0000000E+000	0.0000000E+000	8.94969	6.34983	81.0503	-1.60928e-05	8.15579e-08	-2.10113e-11	8.15789e-08	0.218026	582542	150.077	582692
0.0100092	47.5686	14.1254	49.6215	-16.5387	673.198	0.217973	0.00158908	1.12569e+06	91218.6	1	12	0.00473448	9.54119e-05	0	0.00063891	-0.000113381	3.8856e-06	-13.1907	0.0407244	0.03965	0.00929302	-16.536	49.6622	47.6082	14.1347	0.0193188	0.00573669	0.0201525	16.5387	9.12187e+07	3.07186e+08	3.20444e+08	-73.4613	0.0000000E+000	0.0000000E+000	0.0000000E+000	73.4613	0.0000000E+000	0.0000000E+000	0.0000000E+000	-73.4613	0.0000000E+000	0.0000000E+000	0.0000000E+000	-16.5387	0.0000000E+000	0.0000000E+000	0.0000000E+000	16.5387	3.36758	73.4613	0.000362917	3.46378e-07	-1.80171e-10	3.46558e-07	0.218087	137169	71.3497	137241

File: 19506_R316_UA717_SOC00_C08.mpt
EC-Lab ASCII FILE
Nb header lines : 65

Potentio Electrochemical Impedance Spectroscopy

Run on channel : 8 (SN 65398)
User :
CE vs. WE compliance from -10 V to 10 V
Electrode connection : standard
Potential control : Ewe
Ewe ctrl range : min = -10.00 V, max = 10.00 V
Safety Limits :
	Do not start on E overload
Acquisition started on : 12/04/2025 15:15:31.968
Technique started on : 12/04/2025 15:15:34.022
Loaded Setting File :  NONE
Saved on :
	File : 19506_R316_UA717_SOC00_C08.mpr
	Directory : C:\Users\Celltest\OneDrive - store-dot.com\Documents\EC-Lab\Data\Charmaine\
	Host : 169.254.61.224
Device : VMP-3e (SN .003165)
Address : USB
EC-LAB for windows v11.62 (software)
Internet server v27.00 (firmware)
Command interpretor v12.03 (firmware)
Electrode material :
Initial state :
Electrolyte :
Comments :
Electrode surface area : 0.001 cm²
Characteristic mass : 0.001 g
Equivalent Weight : 0.000 g/eq.
Density : 0.000 g/cm3
Volume (V) : 0.001 cm³
Record Ece
Cycle Definition : Charge/Discharge alternance
Mode                Single sine
E (V)               0.0000
vs.                 Eoc
tE (h:m:s)          0:00:0.0000
record              0
dI                  0.000
unit dI             mA
dt (s)              0.000
fi                  100.000
unit fi             kHz
ff                  10.000
unit ff             mHz
Nd                  6
Points              per decade
spacing             Logarithmic
Va (mV)             5.0
pw                  0.10
Na                  2
corr                0
E range min (V)     -10.000
E range max (V)     10.000
I Range             Auto
Bandwidth           5
nc cycles           0
goto Ns'            0
nr cycles           0
inc. cycle          0

freq/Hz	Re(Z)/Ohm	-Im(Z)/Ohm	|Z|/Ohm	Phase(Z)/deg	time/s	<Ewe>/V	<I>/mA	Cs/µF	Cp/µF	cycle number	I Range	|Ewe|/V	|I|/A	Ns	(Q-Qo)/mA.h	<Ece>/V	|Ece|/V	Phase(Zce)/deg	|Zce|/Ohm	Re(Zce)/Ohm	-Im(Zce)/Ohm	Phase(Zwe-ce)/deg	|Zwe-ce|/Ohm	Re(Zwe-ce)/Ohm	-Im(Zwe-ce)/Ohm	Re(Y)/Ohm-1	Im(Y)/Ohm-1	|Y|/Ohm-1	Phase(Y)/deg	Re(C)/nF	Im(C)/nF	|C|/nF	Phase(C)/deg	Re(M)	Im(M)	|M|	Phase(M)/deg	Re(Permittivity)	Im(Permittivity)	|Permittivity|	Phase(Permittivity)/deg	Re(Resistivity)/Ohm.cm	Im(Resistivity)/Ohm.cm	|Resistivity|/Ohm.cm	Phase(Resistivity)/deg	Re(Conductivity)/mS/cm	Im(Conductivity)/mS/cm	|Conductivity|/mS/cm	Phase(Conductivity)/deg	Tan(Delta)	Loss Angle(Delta)/deg	dq/mA.h	Pwe/W	Pce/W	Pwe-ce/W	<Ewe-Ece>/V	Rwe/Ohm	Rce/Ohm	Rwe-ce/Ohm		Ewe-Ece/V
100004	1.41802	0.54957	1.52079	-21.1845	2.05356	0.278262	0.0292434	2.89588	0.378173	1	9	0.00489157	0.00321647	0	2.00932e-06	-0.000310982	4.21252e-05	56.3236	0.0130967	0.00726215	-0.0108989	-20.7037	1.52367	1.42528	0.538672	0.613118	0.237622	0.657554	21.1845	378.173	975.771	1046.49	-68.8155	0.0000000E+000	0.0000000E+000	0.0000000E+000	68.8155	0.0000000E+000	0.0000000E+000	0.0000000E+000	-68.8155	0.0000000E+000	0.0000000E+000	0.0000000E+000	-21.1845	0.0000000E+000	0.0000000E+000	0.0000000E+000	21.1845	2.58022	68.8155	2.00932e-06	8.13732e-06	-9.09416e-09	8.14641e-06	0.278573	9515.39	10.6343	9526.02
31621.1	1.91304	0.831012	2.08574	-23.4798	3.20254	0.278251	0.0206496	6.05669	0.961454	1	9	0.00526734	0.0025254	0	1.28796e-05	8.98672e-05	9.83521e-06	4.79936	0.00389451	0.00388086	-0.000325841	-23.4292	2.08917	1.91693	0.830686	0.439748	0.191023	0.479446	23.4798	961.454	2213.33	2413.14	-66.5202	0.0000000E+000	0.0000000E+000	0.0000000E+000	66.5202	0.0000000E+000	0.0000000E+000	0.0000000E+000	-66.5202	0.0000000E+000	0.0000000E+000	0.0000000E+000	-23.4798	0.0000000E+000	0.0000000E+000	0.0000000E+000	23.4798	2.30207	66.5202	3.98443e-06	5.74579e-06	1.85573e-09	5.74393e-06	0.278161	13474.9	4.35199	13470.5
10002.2	2.58451	1.12829	2.82006	-23.584	4.35752	0.278244	0.0301734	14.1027	2.2575	1	9	0.00525867	0.00186474	0	1.53929e-05	-0.000291894	8.8664e-06	42.2288	0.00475476	0.00352075	-0.00319564	-23.496	2.82201	2.58803	1.12509	0.324984	0.141874	0.354603	23.584	2257.5	5171.13	5642.42	-66.416	0.0000000E+000	0.0000000E+000	0.0000000E+000	66.416	0.0000000E+000	0.0000000E+000	0.0000000E+000	-66.416	0.0000000E+000	0.0000000E+000	0.0000000E+000	-23.584	0.0000000E+000	0.0000000E+000	0.0000000E+000	23.584	2.29065	66.416	5.97744e-07	8.39557e-06	-8.80743e-09	8.40438e-06	0.278536	9221.5	9.67388	9231.18
3163.08	3.43243	1.6028	3.78821	-25.0306	5.72067	0.278213	-0.00877513	31.3929	5.6198	1	10	0.00525052	0.00138602	0	2.05467e-05	-0.000177366	4.80017e-06	-1.85536	0.00346328	0.00346147	0.000112129	-25.01	3.79139	3.43589	1.60291	0.239185	0.111689	0.263977	25.0306	5619.8	12034.9	13282.4	-64.9694	0.0000000E+000	0.0000000E+000	0.0000000E+000	64.9694	0.0000000E+000	0.0000000E+000	0.0000000E+000	-64.9694	0.0000000E+000	0.0000000E+000	0.0000000E+000	-25.0306	0.0000000E+000	0.0000000E+000	0.0000000E+000	25.0306	2.14152	64.9694	1.07642e-06	-2.44136e-06	1.55641e-09	-2.44292e-06	0.278391	31704.7	20.2123	31725
1000.32	4.50389	2.51577	5.15888	-29.1867	7.07381	0.27822	-0.00344071	63.2428	15.0397	1	10	0.0051175	0.000991979	0	1.87598e-05	1.35149e-05	6.44744e-06	6.26224	0.00649958	0.00646079	-0.000708969	-29.1449	5.16418	4.51035	2.51506	0.16923	0.0945277	0.19384	29.1867	15039.7	26925.1	30840.8	-60.8133	0.0000000E+000	0.0000000E+000	0.0000000E+000	60.8133	0.0000000E+000	0.0000000E+000	0.0000000E+000	-60.8133	0.0000000E+000	0.0000000E+000	0.0000000E+000	-29.1867	0.0000000E+000	0.0000000E+000	0.0000000E+000	29.1867	1.79026	60.8133	-7.21095e-07	-9.57273e-07	-4.6501e-11	-9.57226e-07	0.278206	80861.2	3.92796	80857.2
316.316	6.01741	4.90293	7.76195	-39.1728	8.42309	0.27823	-0.00328448	102.623	40.9461	1	10	0.0049493	0.000637636	0	1.70698e-05	-0.000120101	5.39129e-06	64.7974	0.00845512	0.00360036	-0.00765026	-39.1123	7.75992	6.02101	4.89528	0.0998774	0.0813793	0.128834	39.1728	40946.1	50253.5	64822.9	-50.8272	0.0000000E+000	0.0000000E+000	0.0000000E+000	50.8272	0.0000000E+000	0.0000000E+000	0.0000000E+000	-50.8272	0.0000000E+000	0.0000000E+000	0.0000000E+000	-39.1728	0.0000000E+000	0.0000000E+000	0.0000000E+000	39.1728	1.22731	50.8271	-6.03893e-07	-9.13839e-07	3.94471e-10	-9.14234e-07	0.27835	84710.4	36.5664	84747
100.032	10.1877	10.6688	14.7517	-46.3213	9.76979	0.278233	-0.0019081	149.131	78.0032	1	10	0.00488335	0.000331037	0	1.68834e-05	0.000318924	1.18442e-05	87.2867	0.0357791	0.00169371	-0.035739	-46.2205	14.727	10.1894	10.633	0.046816	0.0490266	0.0677889	46.3213	78003.2	74486.1	107855	-43.6787	0.0000000E+000	0.0000000E+000	0.0000000E+000	43.6787	0.0000000E+000	0.0000000E+000	0.0000000E+000	-43.6787	0.0000000E+000	0.0000000E+000	0.0000000E+000	-46.3213	0.0000000E+000	0.0000000E+000	0.0000000E+000	46.3213	0.95491	43.6787	-5.6467e-07	-5.30897e-07	-6.08538e-10	-5.30289e-07	0.277915	145817	167.142	145650
31.6296	22.7651	17.0894	28.4657	-36.895	11.3396	0.278232	-0.00291086	294.443	106.123	1	11	0.00486388	0.000170868	0	1.5868e-05	0.000223484	2.8234e-06	61.2963	0.0165238	0.00793607	-0.0144933	-36.862	28.4633	22.773	17.0749	0.0280948	0.0210903	0.03513	36.895	106123	141369	176769	-53.105	0.0000000E+000	0.0000000E+000	0.0000000E+000	53.105	0.0000000E+000	0.0000000E+000	0.0000000E+000	-53.105	0.0000000E+000	0.0000000E+000	0.0000000E+000	-36.895	0.0000000E+000	0.0000000E+000	0.0000000E+000	36.895	1.33212	53.105	-1.85619e-07	-8.09894e-07	-6.5053e-10	-8.09244e-07	0.278008	95584	76.7757	95507.2
[...]
1.00006	50.3975	5.88453	50.7399	-6.65982	19.512	0.278254	-0.0013462	27044.6	363.751	1	12	0.0048637	9.58555e-05	0	9.25921e-06	0.000338012	4.06366e-06	-8.02741	0.0423936	0.0419782	0.00592013	-6.66097	50.7823	50.4395	5.89045	0.0195754	0.00228566	0.0197083	6.65982	363751	3.11532e+06	3.13648e+06	-83.3402	0.0000000E+000	0.0000000E+000	0.0000000E+000	83.3402	0.0000000E+000	0.0000000E+000	0.0000000E+000	-83.3402	0.0000000E+000	0.0000000E+000	0.0000000E+000	-6.65982	0.0000000E+000	0.0000000E+000	0.0000000E+000	6.65982	8.56442	83.3402	-3.44187e-07	-3.74586e-07	-4.55033e-10	-3.74131e-07	0.277916	206695	251.085	206444
0.316193	53.3256	4.87146	53.5477	-5.21966	33.8542	0.278245	-0.00118817	103326	855.156	1	12	0.00486306	9.08173e-05	0	1.89049e-05	0.000108955	3.56102e-06	11.9057	0.0392108	0.0383673	-0.00808928	-5.20731	53.5852	53.364	4.86337	0.0185975	0.00169894	0.0186749	5.21966	855156	9.361e+06	9.39998e+06	-84.7803	0.0000000E+000	0.0000000E+000	0.0000000E+000	84.7803	0.0000000E+000	0.0000000E+000	0.0000000E+000	-84.7803	0.0000000E+000	0.0000000E+000	0.0000000E+000	-5.21966	0.0000000E+000	0.0000000E+000	0.0000000E+000	5.21966	10.9465	84.7803	3.71776e-06	-3.30602e-07	-1.29457e-10	-3.30473e-07	0.278136	234179	91.6999	234087
0.0999041	56.0577	6.07138	56.3856	-6.18138	79.0624	0.278241	-0.000330013	262391	3042.21	1	12	0.00486183	8.62247e-05	0	-1.91377e-05	-8.19253e-05	3.23477e-06	8.06083	0.0375156	0.037145	-0.0052606	-6.172	56.4219	56.0949	6.06612	0.0176319	0.00190964	0.017735	6.18138	3.0422e+06	2.8089e+07	2.82533e+07	-83.8186	0.0000000E+000	0.0000000E+000	0.0000000E+000	83.8186	0.0000000E+000	0.0000000E+000	0.0000000E+000	-83.8186	0.0000000E+000	0.0000000E+000	0.0000000E+000	-6.18138	0.0000000E+000	0.0000000E+000	0.0000000E+000	6.18138	9.23311	83.8186	-2.52477e-05	-9.18232e-08	2.70364e-11	-9.18503e-08	0.278323	843122	248.249	843370
0.0315922	60.306	10.4203	61.1996	-9.80337	221.947	0.278236	-0.00103339	483459	14016	1	12	0.00486621	7.95137e-05	0	-0.000106089	5.16911e-05	4.5924e-06	-36.894	0.0577561	0.0461903	0.0346731	-9.82797	61.251	60.3522	10.455	0.0161014	0.00278217	0.01634	9.80337	1.4016e+07	8.11154e+07	8.23174e+07	-80.1966	0.0000000E+000	0.0000000E+000	0.0000000E+000	80.1966	0.0000000E+000	0.0000000E+000	0.0000000E+000	-80.1966	0.0000000E+000	0.0000000E+000	0.0000000E+000	-9.80337	0.0000000E+000	0.0000000E+000	0.0000000E+000	9.80337	5.78735	80.1966	-1.35297e-05	-2.87527e-07	-5.34172e-11	-2.87474e-07	0.278184	269245	50.0207	269195
0.0100092	66.8977	20.0415	69.8352	-16.6774	673.171	0.278235	5.77924e-06	793399	65343.7	1	12	0.00486684	6.96903e-05	0	0.000219283	-5.57311e-06	3.32321e-06	-4.68319	0.0476854	0.0475262	0.00389333	-16.6693	69.8819	66.9452	20.0454	0.0137171	0.00410943	0.0143194	16.6774	6.53437e+07	2.18114e+08	2.27692e+08	-73.3226	0.0000000E+000	0.0000000E+000	0.0000000E+000	73.3226	0.0000000E+000	0.0000000E+000	0.0000000E+000	-73.3226	0.0000000E+000	0.0000000E+000	0.0000000E+000	-16.6774	0.0000000E+000	0.0000000E+000	0.0000000E+000	16.6774	3.33796	73.3226	0.00016541	1.60799e-09	-3.22083e-14	1.60802e-09	0.278241	4.81439e+07	964.332	4.81448e+07