Folder: EIS/txt (part 58)

File: 17703_R287_UA661_SOC00_C02.mpt
EC-Lab ASCII FILE

Nb header lines : 63

Potentio Electrochemical Impedance Spectroscopy

Run on channel : 2 (SN 66139)
User :
CE vs. WE compliance from -10 V to 10 V
Electrode connection : standard
Potential control : Ewe
Ewe ctrl range : min = -10.00 V, max = 10.00 V
Safety Limits :
	Do not start on E overload
Acquisition started on : 09/22/2025 10:02:49.569
Loaded Setting File :  C:\Users\Celltest\OneDrive - store-dot.com\Documents\EC-Lab\Data\Gyutae\17737_R277_UA674_SOC00_C01.mpr
Saved on :
	File : 17703_R287_UA661_SOC00_C02.mpr
	Directory : C:\Users\Celltest\OneDrive - store-dot.com\Documents\EC-Lab\Data\Charmaine\
	Host : 169.254.61.224
Device : VMP-3e (SN .003165)
Address : USB
EC-LAB for windows v11.62 (software)
Internet server v27.00 (firmware)
Command interpretor v12.03 (firmware)
Electrode material :
Initial state :
Electrolyte :
Comments :
Electrode surface area : 0.001 cm²
Characteristic mass : 0.001 g
Equivalent Weight : 0.000 g/eq.
Density : 0.000 g/cm3
Volume (V) : 0.001 cm³
Cycle Definition : Charge/Discharge alternance
Mode                Single sine
E (V)               0.0000
vs.                 Eoc
tE (h:m:s)          0:00:0.0000
record              0
dI                  0.000
unit dI             mA
dt (s)              0.000
fi                  100.000
unit fi             kHz
ff                  10.000
unit ff             mHz
Nd                  6
Points              per decade
spacing             Logarithmic
Va (mV)             5.0
pw                  0.10
Na                  2
corr                0
E range min (V)     -10.000
E range max (V)     10.000
I Range             Auto
Bandwidth           5
nc cycles           0
goto Ns'            0
nr cycles           0
inc. cycle          0

freq/Hz	Re(Z)/Ohm	-Im(Z)/Ohm	|Z|/Ohm	Phase(Z)/deg	time/s	<Ewe>/V	<I>/mA	Cs/µF	Cp/µF	cycle number	I Range	|Ewe|/V	|I|/A	Ns	(Q-Qo)/mA.h	Re(Y)/Ohm-1	Im(Y)/Ohm-1	|Y|/Ohm-1	Phase(Y)/deg	Re(C)/nF	Im(C)/nF	|C|/nF	Phase(C)/deg	Re(M)	Im(M)	|M|	Phase(M)/deg	Re(Permittivity)	Im(Permittivity)	|Permittivity|	Phase(Permittivity)/deg	Re(Resistivity)/Ohm.cm	Im(Resistivity)/Ohm.cm	|Resistivity|/Ohm.cm	Phase(Resistivity)/deg	Re(Conductivity)/mS/cm	Im(Conductivity)/mS/cm	|Conductivity|/mS/cm	Phase(Conductivity)/deg	Tan(Delta)	Loss Angle(Delta)/deg	dq/mA.h	Pwe/W	Rwe/Ohm
100004	1.31741	0.29781	1.35066	-12.738	2.06748	0.282716	0.0191467	5.34398	0.259809	1	9	0.00455631	0.00337341	0	-2.19025e-06	0.722159	0.163249	0.740381	12.738	259.809	1149.31	1178.31	-77.262	0.0000000E+000	0.0000000E+000	0.0000000E+000	77.262	0.0000000E+000	0.0000000E+000	0.0000000E+000	-77.262	0.0000000E+000	0.0000000E+000	0.0000000E+000	-12.738	0.0000000E+000	0.0000000E+000	0.0000000E+000	12.738	4.42368	77.262	-2.19025e-06	5.41308e-06	14765.8
46420.4	1.46613	0.374518	1.51321	-14.3296	3.22448	0.282713	0.0193143	9.15459	0.560772	1	9	0.00508302	0.0033591	0	-5.76408e-06	0.640287	0.163559	0.660847	14.3296	560.772	2195.26	2265.75	-75.6704	0.0000000E+000	0.0000000E+000	0.0000000E+000	75.6704	0.0000000E+000	0.0000000E+000	0.0000000E+000	-75.6704	0.0000000E+000	0.0000000E+000	0.0000000E+000	-14.3296	0.0000000E+000	0.0000000E+000	0.0000000E+000	14.3296	3.91471	75.6704	-5.41707e-06	5.46041e-06	14637.5
21544.7	1.65272	0.492104	1.72443	-16.5811	4.23949	0.282713	0.0153662	15.0115	1.22249	1	9	0.005179	0.00300331	0	-1.84439e-06	0.555787	0.165487	0.579901	16.5811	1222.49	4105.71	4283.85	-73.4189	0.0000000E+000	0.0000000E+000	0.0000000E+000	73.4189	0.0000000E+000	0.0000000E+000	0.0000000E+000	-73.4189	0.0000000E+000	0.0000000E+000	0.0000000E+000	-16.5811	0.0000000E+000	0.0000000E+000	0.0000000E+000	16.5811	3.35849	73.4189	6.69829e-06	4.34424e-06	18398.3
10002.2	1.88582	0.63138	1.9887	-18.5108	5.1135	0.282712	0.0149751	25.2019	2.54024	1	9	0.00483797	0.00243273	0	4.70746e-06	0.476825	0.159643	0.50284	18.5108	2540.24	7587.22	8001.17	-71.4892	0.0000000E+000	0.0000000E+000	0.0000000E+000	71.4892	0.0000000E+000	0.0000000E+000	0.0000000E+000	-71.4892	0.0000000E+000	0.0000000E+000	0.0000000E+000	-18.5108	0.0000000E+000	0.0000000E+000	0.0000000E+000	18.5108	2.98681	71.4892	1.56692e-06	4.23365e-06	18878.8
4641.49	2.19118	0.847617	2.34941	-21.1481	6.18567	0.282728	0.0668587	40.4542	5.26558	1	9	0.0049513	0.00210747	0	4.97344e-06	0.396973	0.153562	0.425639	21.1481	5265.58	13612.1	14595	-68.8519	0.0000000E+000	0.0000000E+000	0.0000000E+000	68.8519	0.0000000E+000	0.0000000E+000	0.0000000E+000	-68.8519	0.0000000E+000	0.0000000E+000	0.0000000E+000	-21.1481	0.0000000E+000	0.0000000E+000	0.0000000E+000	21.1481	2.5851	68.8519	9.57484e-06	1.89029e-05	4228.75
2155.69	2.57868	1.13815	2.81869	-23.8152	7.1197	0.282726	0.0586459	64.8684	10.5765	1	9	0.00483932	0.00171687	0	1.91481e-05	0.324567	0.143254	0.354775	23.8152	10576.5	23962.8	26193.1	-66.1848	0.0000000E+000	0.0000000E+000	0.0000000E+000	66.1848	0.0000000E+000	0.0000000E+000	0.0000000E+000	-66.1848	0.0000000E+000	0.0000000E+000	0.0000000E+000	-23.8152	0.0000000E+000	0.0000000E+000	0.0000000E+000	23.8152	2.26568	66.1848	5.18471e-06	1.65807e-05	4820.89
1000.32	3.07627	1.60113	3.468	-27.4959	8.31071	0.282683	-0.013824	99.3701	21.1811	1	10	0.00491697	0.00141781	0	2.72686e-05	0.25578	0.133127	0.288351	27.4959	21181.1	40695.6	45877.8	-62.5041	0.0000000E+000	0.0000000E+000	0.0000000E+000	62.5041	0.0000000E+000	0.0000000E+000	0.0000000E+000	-62.5041	0.0000000E+000	0.0000000E+000	0.0000000E+000	-27.4959	0.0000000E+000	0.0000000E+000	0.0000000E+000	27.4959	1.92131	62.5041	6.66792e-07	-3.90782e-06	20448.7
463.961	3.79083	2.3758	4.47379	-32.0763	9.24522	0.282678	-0.0136229	144.387	40.719	1	10	0.00485282	0.00108472	0	2.37901e-05	0.189401	0.118702	0.223524	32.0763	40719	64971.3	76676.6	-57.9237	0.0000000E+000	0.0000000E+000	0.0000000E+000	57.9237	0.0000000E+000	0.0000000E+000	0.0000000E+000	-57.9237	0.0000000E+000	0.0000000E+000	0.0000000E+000	-32.0763	0.0000000E+000	0.0000000E+000	0.0000000E+000	32.0763	1.5956	57.9237	-2.06143e-06	-3.85088e-06	20750.2
215.345	4.89584	3.58808	6.06989	-36.2371	10.1794	0.282676	-0.0146343	205.98	71.9758	1	10	0.00480786	0.000792084	0	1.96214e-05	0.132882	0.0973869	0.164748	36.2371	71975.8	98209.1	121760	-53.7629	0.0000000E+000	0.0000000E+000	0.0000000E+000	53.7629	0.0000000E+000	0.0000000E+000	0.0000000E+000	-53.7629	0.0000000E+000	0.0000000E+000	0.0000000E+000	-36.2371	0.0000000E+000	0.0000000E+000	0.0000000E+000	36.2371	1.36447	53.7629	-1.8628e-06	-4.13676e-06	19316
100.032	6.80567	5.38627	8.67923	-38.3595	11.1107	0.28268	-0.01472	295.388	113.765	1	10	0.00479516	0.000552487	0	1.66077e-05	0.0903459	0.0715033	0.115218	38.3595	113765	143744	183316	-51.6405	0.0000000E+000	0.0000000E+000	0.0000000E+000	51.6405	0.0000000E+000	0.0000000E+000	0.0000000E+000	-51.6405	0.0000000E+000	0.0000000E+000	0.0000000E+000	-38.3595	0.0000000E+000	0.0000000E+000	0.0000000E+000	38.3595	1.26352	51.6405	-1.37074e-06	-4.16103e-06	19203.8
46.4415	10.142	7.36035	12.5314	-35.9695	12.0445	0.282664	-0.0179013	465.602	160.626	1	10	0.00479377	0.000382542	0	1.36496e-05	0.0645844	0.0468707	0.0797998	35.9695	160626	221330	273473	-54.0305	0.0000000E+000	0.0000000E+000	0.0000000E+000	54.0305	0.0000000E+000	0.0000000E+000	0.0000000E+000	-54.0305	0.0000000E+000	0.0000000E+000	0.0000000E+000	-35.9695	0.0000000E+000	0.0000000E+000	0.0000000E+000	35.9695	1.37793	54.0305	-1.71738e-06	-5.06006e-06	15790.1
[...]
0.464091	31.9286	4.51535	32.2463	-8.0494	29.0495	0.282712	-0.00347336	75949.7	1489.19	1	12	0.00479356	0.000148655	0	2.29914e-06	0.0307058	0.00434242	0.0310113	8.0494	1.48919e+06	1.05302e+07	1.0635e+07	-81.9506	0.0000000E+000	0.0000000E+000	0.0000000E+000	81.9506	0.0000000E+000	0.0000000E+000	0.0000000E+000	-81.9506	0.0000000E+000	0.0000000E+000	0.0000000E+000	-8.0494	0.0000000E+000	0.0000000E+000	0.0000000E+000	8.0494	7.07112	81.9506	5.56437e-06	-9.81959e-07	81394.4
0.215268	33.7001	4.14273	33.9538	-7.00816	45.5285	0.282717	-0.00209917	178466	2656.75	1	12	0.00479459	0.000141209	0	1.51172e-06	0.0292318	0.00359344	0.0294518	7.00816	2.65675e+06	2.16121e+07	2.17747e+07	-82.9918	0.0000000E+000	0.0000000E+000	0.0000000E+000	82.9918	0.0000000E+000	0.0000000E+000	0.0000000E+000	-82.9918	0.0000000E+000	0.0000000E+000	0.0000000E+000	-7.00816	0.0000000E+000	0.0000000E+000	0.0000000E+000	7.00816	8.13476	82.9918	-4.88899e-06	-5.93472e-07	134680
0.0999041	35.1021	4.49262	35.3884	-7.29348	80.9349	0.282712	-0.00136645	354599	5714.98	1	12	0.00479423	0.000135474	0	-6.51885e-05	0.0280292	0.00358738	0.0282578	7.29348	5.71497e+06	4.46527e+07	4.50169e+07	-82.7065	0.0000000E+000	0.0000000E+000	0.0000000E+000	82.7065	0.0000000E+000	0.0000000E+000	0.0000000E+000	-82.7065	0.0000000E+000	0.0000000E+000	0.0000000E+000	-7.29348	0.0000000E+000	0.0000000E+000	0.0000000E+000	7.29348	7.81327	82.7065	-4.47654e-05	-3.86311e-07	206895
0.0464052	36.8151	5.82863	37.2736	-8.99649	157.17	0.282714	-0.00180149	588420	14388.5	1	12	0.00479297	0.000128589	0	-0.00019545	0.0264986	0.0041953	0.0268286	8.99649	1.43885e+07	9.08816e+07	9.20136e+07	-81.0035	0.0000000E+000	0.0000000E+000	0.0000000E+000	81.0035	0.0000000E+000	0.0000000E+000	0.0000000E+000	-81.0035	0.0000000E+000	0.0000000E+000	0.0000000E+000	-8.99649	0.0000000E+000	0.0000000E+000	0.0000000E+000	8.99649	6.31625	81.0035	-6.76504e-05	-5.09307e-07	156934
0.0215268	38.9678	8.82244	39.9541	-12.7569	321.401	0.282707	-0.00211352	838016	40860.9	1	12	0.00479441	0.000119998	0	-0.000175541	0.0244109	0.00552672	0.0250287	12.7569	4.08609e+07	1.80478e+08	1.85046e+08	-77.2431	0.0000000E+000	0.0000000E+000	0.0000000E+000	77.2431	0.0000000E+000	0.0000000E+000	0.0000000E+000	-77.2431	0.0000000E+000	0.0000000E+000	0.0000000E+000	-12.7569	0.0000000E+000	0.0000000E+000	0.0000000E+000	12.7569	4.4169	77.2431	5.05129e-05	-5.97506e-07	133761
0.0146812	40.3783	10.7242	41.7782	-14.874	464.596	0.282709	-0.00131677	1.01087e+06	66607.8	1	12	0.00479297	0.000114724	0	-1.56112e-05	0.0231339	0.0061442	0.023936	14.874	6.66077e+07	2.50789e+08	2.59484e+08	-75.1261	0.0000000E+000	0.0000000E+000	0.0000000E+000	75.1261	0.0000000E+000	0.0000000E+000	0.0000000E+000	-75.1261	0.0000000E+000	0.0000000E+000	0.0000000E+000	-14.874	0.0000000E+000	0.0000000E+000	0.0000000E+000	14.874	3.76516	75.1261	0.00015993	-3.72262e-07	214699

0.0100092	42.3531	13.1968	44.3615	-17.3065	674.616	0.282709	-0.000554806	1.20491e+06	106630	1	12	0.00479368	0.000108059	0	0.000210202	0.0215215	0.00670589	0.0225421	17.3065	1.0663e+08	3.42212e+08	3.5844e+08	-72.6935	0.0000000E+000	0.0000000E+000	0.0000000E+000	72.6935	0.0000000E+000	0.0000000E+000	0.0000000E+000	-72.6935	0.0000000E+000	0.0000000E+000	0.0000000E+000	-17.3065	0.0000000E+000	0.0000000E+000	0.0000000E+000	17.3065	3.20935	72.6935	0.000225813	-1.56848e-07	509564

File: 17704_R287_UA661_SOC00_C03.mpt
EC-Lab ASCII FILE

Nb header lines : 63

Potentio Electrochemical Impedance Spectroscopy

Run on channel : 3 (SN 65921)
User :
CE vs. WE compliance from -10 V to 10 V
Electrode connection : standard
Potential control : Ewe
Ewe ctrl range : min = -10.00 V, max = 10.00 V
Safety Limits :
	Do not start on E overload
Acquisition started on : 09/22/2025 10:02:59.869
Loaded Setting File :  C:\Users\Celltest\OneDrive - store-dot.com\Documents\EC-Lab\Data\Gyutae\17738_R277_UA674_SOC00_C02.mpr
Saved on :
	File : 17704_R287_UA661_SOC00_C03.mpr
	Directory : C:\Users\Celltest\OneDrive - store-dot.com\Documents\EC-Lab\Data\Charmaine\
	Host : 169.254.61.224
Device : VMP-3e (SN .003165)
Address : USB
EC-LAB for windows v11.62 (software)
Internet server v27.00 (firmware)
Command interpretor v12.03 (firmware)
Electrode material :
Initial state :
Electrolyte :
Comments :
Electrode surface area : 0.001 cm²
Characteristic mass : 0.001 g
Equivalent Weight : 0.000 g/eq.
Density : 0.000 g/cm3
Volume (V) : 0.001 cm³
Cycle Definition : Charge/Discharge alternance
Mode                Single sine
E (V)               0.0000
vs.                 Eoc
tE (h:m:s)          0:00:0.0000
record              0
dI                  0.000
unit dI             mA
dt (s)              0.000
fi                  100.000
unit fi             kHz
ff                  10.000
unit ff             mHz
Nd                  6
Points              per decade
spacing             Logarithmic
Va (mV)             5.0
pw                  0.10
Na                  2
corr                0
E range min (V)     -10.000
E range max (V)     10.000
I Range             Auto
Bandwidth           5
nc cycles           0
goto Ns'            0
nr cycles           0
inc. cycle          0

freq/Hz	Re(Z)/Ohm	-Im(Z)/Ohm	|Z|/Ohm	Phase(Z)/deg	time/s	<Ewe>/V	<I>/mA	Cs/µF	Cp/µF	cycle number	I Range	|Ewe|/V	|I|/A	Ns	(Q-Qo)/mA.h	Re(Y)/Ohm-1	Im(Y)/Ohm-1	|Y|/Ohm-1	Phase(Y)/deg	Re(C)/nF	Im(C)/nF	|C|/nF	Phase(C)/deg	Re(M)	Im(M)	|M|	Phase(M)/deg	Re(Permittivity)	Im(Permittivity)	|Permittivity|	Phase(Permittivity)/deg	Re(Resistivity)/Ohm.cm	Im(Resistivity)/Ohm.cm	|Resistivity|/Ohm.cm	Phase(Resistivity)/deg	Re(Conductivity)/mS/cm	Im(Conductivity)/mS/cm	|Conductivity|/mS/cm	Phase(Conductivity)/deg	Tan(Delta)	Loss Angle(Delta)/deg	dq/mA.h	Pwe/W	Rwe/Ohm
100004	0.978999	0.192302	0.997707	-11.113	1.71548	0.270604	0.0510299	8.276	0.307455	1	9	0.00469222	0.00470301	0	1.10066e-05	0.983505	0.193187	1.0023	11.113	307.456	1565.24	1595.15	-78.887	0.0000000E+000	0.0000000E+000	0.0000000E+000	78.887	0.0000000E+000	0.0000000E+000	0.0000000E+000	-78.887	0.0000000E+000	0.0000000E+000	0.0000000E+000	-11.113	0.0000000E+000	0.0000000E+000	0.0000000E+000	11.113	5.09094	78.887	1.10066e-05	1.38089e-05	5302.84
46420.4	1.07294	0.241371	1.09975	-12.6784	2.87149	0.270621	0.050601	14.2045	0.684238	1	9	0.00514062	0.00467433	0	1.84958e-05	0.887124	0.19957	0.909295	12.6784	684.237	3041.56	3117.57	-77.3216	0.0000000E+000	0.0000000E+000	0.0000000E+000	77.3216	0.0000000E+000	0.0000000E+000	0.0000000E+000	-77.3216	0.0000000E+000	0.0000000E+000	0.0000000E+000	-12.6784	0.0000000E+000	0.0000000E+000	0.0000000E+000	12.6784	4.44518	77.3216	5.06712e-06	1.36937e-05	5348.14
21544.7	1.18361	0.307795	1.22298	-14.5767	3.88649	0.2706	0.0585072	24.0004	1.52021	1	9	0.00532247	0.00435205	0	2.52532e-05	0.791355	0.205789	0.817675	14.5767	1520.21	5845.9	6040.33	-75.4233	0.0000000E+000	0.0000000E+000	0.0000000E+000	75.4233	0.0000000E+000	0.0000000E+000	0.0000000E+000	-75.4233	0.0000000E+000	0.0000000E+000	0.0000000E+000	-14.5767	0.0000000E+000	0.0000000E+000	0.0000000E+000	14.5767	3.84546	75.4233	3.86163e-06	1.5832e-05	4625.06
10002.2	1.3237	0.407404	1.38498	-17.1072	4.90249	0.270603	0.0589734	39.0569	3.3796	1	9	0.00417008	0.00301094	0	3.57236e-05	0.690089	0.212394	0.722034	17.1072	3379.6	10980.7	11489	-72.8928	0.0000000E+000	0.0000000E+000	0.0000000E+000	72.8928	0.0000000E+000	0.0000000E+000	0.0000000E+000	-72.8928	0.0000000E+000	0.0000000E+000	0.0000000E+000	-17.1072	0.0000000E+000	0.0000000E+000	0.0000000E+000	17.1072	3.2491	72.8928	1.00308e-05	1.59584e-05	4588.56
4641.49	1.49366	0.583782	1.60369	-21.3475	6.19768	0.270625	0.0535658	58.7371	7.78346	1	9	0.00481776	0.00300417	0	4.38985e-05	0.580779	0.226991	0.623562	21.3475	7783.46	19914.7	21381.7	-68.6525	0.0000000E+000	0.0000000E+000	0.0000000E+000	68.6525	0.0000000E+000	0.0000000E+000	0.0000000E+000	-68.6525	0.0000000E+000	0.0000000E+000	0.0000000E+000	-21.3475	0.0000000E+000	0.0000000E+000	0.0000000E+000	21.3475	2.55859	68.6525	7.29734e-06	1.44962e-05	5052.19
2155.69	1.72702	0.879688	1.93815	-26.9928	7.3537	0.270613	0.0545914	83.9277	17.2896	1	9	0.00452059	0.00233242	0	6.15727e-05	0.459748	0.234181	0.515955	26.9928	17289.6	33943.3	38093	-63.0072	0.0000000E+000	0.0000000E+000	0.0000000E+000	63.0072	0.0000000E+000	0.0000000E+000	0.0000000E+000	-63.0072	0.0000000E+000	0.0000000E+000	0.0000000E+000	-26.9928	0.0000000E+000	0.0000000E+000	0.0000000E+000	26.9928	1.96322	63.0072	5.14279e-06	1.47731e-05	4957.06
1000.32	2.08703	1.40598	2.51644	-33.9672	8.73567	0.270618	0.0552254	113.162	35.3254	1	9	0.00507935	0.00201847	0	7.67477e-05	0.329576	0.222027	0.397387	33.9672	35325.4	52436.8	63225.8	-56.0328	0.0000000E+000	0.0000000E+000	0.0000000E+000	56.0328	0.0000000E+000	0.0000000E+000	0.0000000E+000	-56.0328	0.0000000E+000	0.0000000E+000	0.0000000E+000	-33.9672	0.0000000E+000	0.0000000E+000	0.0000000E+000	33.9672	1.4844	56.0328	7.47657e-06	1.4945e-05	4900.24
463.961	2.69091	2.25005	3.50766	-39.9012	9.92421	0.27061	-0.00418069	152.457	62.7328	1	10	0.00484159	0.00138029	0	8.64637e-05	0.218707	0.182876	0.28509	39.9012	62732.8	75024.3	97796	-50.0988	0.0000000E+000	0.0000000E+000	0.0000000E+000	50.0988	0.0000000E+000	0.0000000E+000	0.0000000E+000	-50.0988	0.0000000E+000	0.0000000E+000	0.0000000E+000	-39.9012	0.0000000E+000	0.0000000E+000	0.0000000E+000	39.9012	1.19593	50.0988	4.10688e-06	-1.13134e-06	64728.5
215.345	3.81226	3.55788	5.21458	-43.0233	10.8585	0.270626	-0.00368848	207.728	96.7029	1	10	0.00459683	0.000881534	0	8.51362e-05	0.140199	0.130844	0.19177	43.0233	96702.9	103617	141732	-46.9767	0.0000000E+000	0.0000000E+000	0.0000000E+000	46.9767	0.0000000E+000	0.0000000E+000	0.0000000E+000	-46.9767	0.0000000E+000	0.0000000E+000	0.0000000E+000	-43.0233	0.0000000E+000	0.0000000E+000	0.0000000E+000	43.0233	1.0715	46.9767	-1.03295e-06	-9.982e-07	73370.6
100.032	5.78507	5.30576	7.84972	-42.5254	12.0127	0.270609	-0.00286628	299.87	137	1	10	0.00500908	0.000638122	0	8.35082e-05	0.0938858	0.0861071	0.127393	42.5254	137000	149376	202687	-47.4746	0.0000000E+000	0.0000000E+000	0.0000000E+000	47.4746	0.0000000E+000	0.0000000E+000	0.0000000E+000	-47.4746	0.0000000E+000	0.0000000E+000	0.0000000E+000	-42.5254	0.0000000E+000	0.0000000E+000	0.0000000E+000	42.5254	1.09034	47.4746	-1.12287e-06	-7.75641e-07	94411.3
46.4415	9.06791	7.1641	11.5564	-38.3105	12.9465	0.270614	-0.00367732	478.356	183.835	1	10	0.00496971	0.000430038	0	8.21204e-05	0.0678983	0.0536431	0.0865318	38.3105	183835	232687	296544	-51.6895	0.0000000E+000	0.0000000E+000	0.0000000E+000	51.6895	0.0000000E+000	0.0000000E+000	0.0000000E+000	-51.6895	0.0000000E+000	0.0000000E+000	0.0000000E+000	-38.3105	0.0000000E+000	0.0000000E+000	0.0000000E+000	38.3105	1.26574	51.6895	-6.3919e-07	-9.95134e-07	73590.2
[...]
0.464091	29.7924	4.1938	30.0862	-8.01272	29.9538	0.270624	-0.00621031	81773	1588.88	1	12	0.00495759	0.00016478	0	3.85583e-05	0.0329134	0.00463312	0.0332379	8.01272	1.58888e+06	1.12873e+07	1.13986e+07	-81.9873	0.0000000E+000	0.0000000E+000	0.0000000E+000	81.9873	0.0000000E+000	0.0000000E+000	0.0000000E+000	-81.9873	0.0000000E+000	0.0000000E+000	0.0000000E+000	-8.01272	0.0000000E+000	0.0000000E+000	0.0000000E+000	8.01272	7.10393	81.9873	-1.21498e-05	-1.68066e-06	43576.5
0.215268	31.3927	3.84044	31.6268	-6.97464	46.4338	0.270634	-0.00560752	192513	2838.65	1	12	0.0049693	0.000157123	0	3.60783e-05	0.0313848	0.00383947	0.0316188	6.97464	2.83865e+06	2.32039e+07	2.33769e+07	-83.0254	0.0000000E+000	0.0000000E+000	0.0000000E+000	83.0254	0.0000000E+000	0.0000000E+000	0.0000000E+000	-83.0254	0.0000000E+000	0.0000000E+000	0.0000000E+000	-6.97464	0.0000000E+000	0.0000000E+000	0.0000000E+000	6.97464	8.17426	83.0254	3.1416e-06	-1.51759e-06	48262.6
0.0999041	32.8384	4.02037	33.0836	-6.97992	81.8392	0.270636	-0.00348849	396251	5851.63	1	12	0.00495981	0.000149917	0	5.33481e-05	0.0300024	0.00367316	0.0302264	6.97992	5.85163e+06	4.77962e+07	4.8153e+07	-83.0201	0.0000000E+000	0.0000000E+000	0.0000000E+000	83.0201	0.0000000E+000	0.0000000E+000	0.0000000E+000	-83.0201	0.0000000E+000	0.0000000E+000	0.0000000E+000	-6.97992	0.0000000E+000	0.0000000E+000	0.0000000E+000	6.97992	8.16801	83.0201	7.57027e-06	-9.44111e-07	77579.7
0.0464052	34.3783	5.31058	34.786	-8.78135	158.075	0.270633	-0.00122922	645820	15051.7	1	12	0.00495948	0.000142571	0	-1.69011e-05	0.0284102	0.00438866	0.0287472	8.78135	1.50517e+07	9.74378e+07	9.85935e+07	-81.2187	0.0000000E+000	0.0000000E+000	0.0000000E+000	81.2187	0.0000000E+000	0.0000000E+000	0.0000000E+000	-81.2187	0.0000000E+000	0.0000000E+000	0.0000000E+000	-8.78135	0.0000000E+000	0.0000000E+000	0.0000000E+000	8.78135	6.47354	81.2187	-5.92249e-05	-3.32666e-07	220167
0.0215268	36.4731	7.77744	37.2931	-12.0373	322.305	0.270634	-0.00114229	950615	41344.8	1	12	0.0049591	0.000132976	0	-0.000348469	0.026225	0.00559216	0.0268146	12.0373	4.13448e+07	1.93891e+08	1.9825e+08	-77.9627	0.0000000E+000	0.0000000E+000	0.0000000E+000	77.9627	0.0000000E+000	0.0000000E+000	0.0000000E+000	-77.9627	0.0000000E+000	0.0000000E+000	0.0000000E+000	-12.0373	0.0000000E+000	0.0000000E+000	0.0000000E+000	12.0373	4.6896	77.9627	-0.000199798	-3.09142e-07	236923
0.0146812	37.9908	9.75802	39.224	-14.4051	465.5	0.270634	-0.00178716	1.11096e+06	68757.2	1	12	0.00496051	0.000126466	0	-0.000556391	0.0246931	0.00634247	0.0254946	14.4051	6.87572e+07	2.67692e+08	2.76381e+08	-75.5948	0.0000000E+000	0.0000000E+000	0.0000000E+000	75.5948	0.0000000E+000	0.0000000E+000	0.0000000E+000	-75.5948	0.0000000E+000	0.0000000E+000	0.0000000E+000	-14.4051	0.0000000E+000	0.0000000E+000	0.0000000E+000	14.4051	3.89329	75.5948	-0.000207922	-4.83666e-07	151433

0.0100092	39.6556	12.4473	41.5632	-17.4264	675.519	0.270632	-0.00189356	1.27745e+06	114573	1	12	0.00495978	0.000119331	0	-0.000649543	0.0229555	0.0072054	0.0240597	17.4264	1.14572e+08	3.65013e+08	3.82572e+08	-72.5736	0.0000000E+000	0.0000000E+000	0.0000000E+000	72.5736	0.0000000E+000	0.0000000E+000	0.0000000E+000	-72.5736	0.0000000E+000	0.0000000E+000	0.0000000E+000	-17.4264	0.0000000E+000	0.0000000E+000	0.0000000E+000	17.4264	3.18587	72.5736	-9.31519e-05	-5.12459e-07	142922