Folder: EIS/txt (part 156)

File: 19065_R307_UA701_3p24_SOC00_C04.mpt
EC-Lab ASCII FILE
Nb header lines : 65

Potentio Electrochemical Impedance Spectroscopy

Run on channel : 4 (SN 66756)
Grouped channel(s) : 1, 2, 3, 4, 5
User :
CE vs. WE compliance from -10 V to 10 V
Electrode connection : standard
Potential control : Ewe
Ewe ctrl range : min = -10.00 V, max = 10.00 V
Safety Limits :
	Do not start on E overload
Acquisition started on : 11/12/2025 10:25:43.761
Loaded Setting File :  C:\Users\Celltest\OneDrive - store-dot.com\Documents\EC-Lab\Data\@Biologic Test Protocols\anode half cell EIS SOC00.mps
Saved on :
	File : 19062_R307_UA701_3p24_SOC00_C04.mpr
	Directory : C:\Users\Celltest\OneDrive - store-dot.com\Documents\EC-Lab\Data\Anna\
	Host : 169.254.61.224
Device : VMP-3e (SN .003165)
Address : USB
EC-LAB for windows v11.62 (software)
Internet server v27.00 (firmware)
Command interpretor v12.03 (firmware)
Electrode material :
Initial state :
Electrolyte :
Comments :
Electrode surface area : 0.001 cm²
Characteristic mass : 0.001 g
Equivalent Weight : 0.000 g/eq.
Density : 0.000 g/cm3
Volume (V) : 0.001 cm³
Record Ece
Cycle Definition : Charge/Discharge alternance
Mode                Single sine
E (V)               0.0000
vs.                 Eoc
tE (h:m:s)          0:00:0.0000
record              0
dI                  0.000
unit dI             mA
dt (s)              0.000
fi                  100.000
unit fi             kHz
ff                  10.000
unit ff             mHz
Nd                  6
Points              per decade
spacing             Logarithmic
Va (mV)             5.0
pw                  0.10
Na                  2
corr                0
E range min (V)     -10.000
E range max (V)     10.000
I Range             Auto
Bandwidth           5
nc cycles           0
goto Ns'            0
nr cycles           0
inc. cycle          0

freq/Hz	Re(Z)/Ohm	-Im(Z)/Ohm	|Z|/Ohm	Phase(Z)/deg	time/s	<Ewe>/V	<I>/mA	Cs/µF	Cp/µF	cycle number	I Range	|Ewe|/V	|I|/A	Ns	(Q-Qo)/mA.h	<Ece>/V	|Ece|/V	Phase(Zce)/deg	|Zce|/Ohm	Re(Zce)/Ohm	-Im(Zce)/Ohm	Phase(Zwe-ce)/deg	|Zwe-ce|/Ohm	Re(Zwe-ce)/Ohm	-Im(Zwe-ce)/Ohm	Re(Y)/Ohm-1	Im(Y)/Ohm-1	|Y|/Ohm-1	Phase(Y)/deg	Re(C)/nF	Im(C)/nF	|C|/nF	Phase(C)/deg	Re(M)	Im(M)	|M|	Phase(M)/deg	Re(Permittivity)	Im(Permittivity)	|Permittivity|	Phase(Permittivity)/deg	Re(Resistivity)/Ohm.cm	Im(Resistivity)/Ohm.cm	|Resistivity|/Ohm.cm	Phase(Resistivity)/deg	Re(Conductivity)/mS/cm	Im(Conductivity)/mS/cm	|Conductivity|/mS/cm	Phase(Conductivity)/deg	Tan(Delta)	Loss Angle(Delta)/deg	dq/mA.h	Pwe/W	Pce/W	Pwe-ce/W	<Ewe-Ece>/V	Rwe/Ohm	Rce/Ohm	Rwe-ce/Ohm		Ewe-Ece/V
100004	1.02153	0.390453	1.09361	-20.9181	1.91154	0.261493	-0.0265036	4.07601	0.519579	1	9	0.00480236	0.00439131	0	-3.48877e-07	5.76895e-05	3.03179e-05	90.4557	0.00690407	-5.49081e-05	-0.00690385	-20.5805	1.09111	1.02147	0.383549	0.85414	0.326473	0.914406	20.9181	519.579	1359.36	1455.27	-69.0819	0.0000000E+000	0.0000000E+000	0.0000000E+000	69.0819	0.0000000E+000	0.0000000E+000	0.0000000E+000	-69.0819	0.0000000E+000	0.0000000E+000	0.0000000E+000	-20.9181	0.0000000E+000	0.0000000E+000	0.0000000E+000	20.9181	2.61626	69.0819	-3.48877e-07	-6.9305e-06	-1.52898e-09	-6.92897e-06	0.261435	9866.31	2.17667	9864.13
31621.1	1.33997	0.498157	1.42958	-20.3935	3.43452	0.261486	-0.0297112	10.1036	1.22686	1	9	0.00508991	0.00356044	0	-3.41863e-06	-0.00015252	1.1695e-05	65.097	0.00328472	0.00138314	-0.00297931	-20.2622	1.42984	1.34136	0.495178	0.655664	0.243754	0.699508	20.3935	1226.86	3300.08	3520.75	-69.6065	0.0000000E+000	0.0000000E+000	0.0000000E+000	69.6065	0.0000000E+000	0.0000000E+000	0.0000000E+000	-69.6065	0.0000000E+000	0.0000000E+000	0.0000000E+000	-20.3935	0.0000000E+000	0.0000000E+000	0.0000000E+000	20.3935	2.68986	69.6065	-1.78764e-05	-7.76906e-06	4.53156e-09	-7.77359e-06	0.261638	8800.91	5.13341	8806.04
10002.2	1.71106	0.672277	1.83839	-21.4499	4.45955	0.261484	-0.0324339	23.6687	3.16516	1	9	0.00500199	0.00272085	0	-1.78263e-05	9.59094e-05	1.19954e-05	-84.0845	0.00440869	0.000454364	0.00438522	-21.5718	1.84042	1.71152	0.676662	0.506278	0.198917	0.543953	21.4499	3165.16	8055.87	8655.36	-68.5501	0.0000000E+000	0.0000000E+000	0.0000000E+000	68.5501	0.0000000E+000	0.0000000E+000	0.0000000E+000	-68.5501	0.0000000E+000	0.0000000E+000	0.0000000E+000	-21.4499	0.0000000E+000	0.0000000E+000	0.0000000E+000	21.4499	2.54517	68.5501	-1.17531e-06	-8.48095e-06	-3.11072e-09	-8.47784e-06	0.261388	8062.04	2.95707	8059.08
3163.08	2.18925	0.998734	2.4063	-24.5225	5.53462	0.261257	-0.118404	50.3802	8.67882	1	9	0.00486947	0.00202364	0	-4.3497e-05	-0.00015252	7.14068e-06	-134.358	0.00352864	-0.00246702	0.00252292	-24.6015	2.4051	2.18678	1.00126	0.378091	0.172485	0.415576	24.5225	8678.82	19024.2	20910.3	-65.4775	0.0000000E+000	0.0000000E+000	0.0000000E+000	65.4775	0.0000000E+000	0.0000000E+000	0.0000000E+000	-65.4775	0.0000000E+000	0.0000000E+000	0.0000000E+000	-24.5225	0.0000000E+000	0.0000000E+000	0.0000000E+000	24.5225	2.19202	65.4775	-1.94042e-05	-3.09339e-05	1.8059e-08	-3.0952e-05	0.26141	2206.48	1.28813	2207.77
1000.32	2.89214	1.70536	3.35749	-30.5258	7.13384	0.261401	-0.0234315	93.2966	24.0695	1	10	0.0048873	0.00145564	0	-5.21184e-05	-5.69702e-05	6.66438e-06	78.7855	0.00457831	0.000890397	-0.00449089	-30.4521	3.35598	2.89303	1.70087	0.256561	0.151282	0.297842	30.5258	24069.5	40819.9	47387.8	-59.4742	0.0000000E+000	0.0000000E+000	0.0000000E+000	59.4742	0.0000000E+000	0.0000000E+000	0.0000000E+000	-59.4742	0.0000000E+000	0.0000000E+000	0.0000000E+000	-30.5258	0.0000000E+000	0.0000000E+000	0.0000000E+000	30.5258	1.69592	59.4742	-4.22687e-06	-6.12502e-06	1.3349e-09	-6.12635e-06	0.261458	11156	2.43135	11158.4
316.316	4.2745	3.26977	5.38171	-37.4141	8.48305	0.261402	-0.0226444	153.88	56.8036	1	10	0.00477681	0.000887602	0	-6.09482e-05	0.000153239	7.04722e-06	-13.1686	0.00793963	0.00773085	0.00180878	-37.3794	5.38895	4.28223	3.27158	0.147586	0.112896	0.185815	37.4141	56803.6	74258.3	93493	-52.5859	0.0000000E+000	0.0000000E+000	0.0000000E+000	52.5859	0.0000000E+000	0.0000000E+000	0.0000000E+000	-52.5859	0.0000000E+000	0.0000000E+000	0.0000000E+000	-37.4141	0.0000000E+000	0.0000000E+000	0.0000000E+000	37.4141	1.30728	52.5859	-2.72343e-06	-5.91928e-06	-3.47001e-09	-5.91581e-06	0.261248	11543.8	6.7672	11537
100.032	7.73586	5.30903	9.38239	-34.4613	9.83178	0.261404	-0.0229428	299.686	95.9553	1	10	0.0047446	0.000505692	0	-6.84871e-05	-0.000439169	6.35459e-06	-36.3933	0.0125661	0.0101153	0.0074558	-34.4639	9.39495	7.74597	5.31648	0.0878782	0.0603098	0.106583	34.4613	95955.3	139818	169577	-55.5387	0.0000000E+000	0.0000000E+000	0.0000000E+000	55.5387	0.0000000E+000	0.0000000E+000	0.0000000E+000	-55.5387	0.0000000E+000	0.0000000E+000	0.0000000E+000	-34.4613	0.0000000E+000	0.0000000E+000	0.0000000E+000	34.4613	1.45711	55.5387	-3.31166e-06	-5.99734e-06	1.00758e-08	-6.00742e-06	0.261843	11393.7	19.1419	11412.8
[...]
1.00006	20.3956	2.04256	20.4977	-5.71894	19.9	0.261439	-0.00120009	77914.2	773.677	1	12	0.00474094	0.000231292	0	-9.13428e-05	-0.00036273	2.03655e-06	-15.3835	0.00880511	0.00848964	0.0023358	-5.72307	20.5063	20.4041	2.0449	0.0485432	0.00486146	0.048786	5.71894	773677	7.7254e+06	7.76404e+06	-84.2811	0.0000000E+000	0.0000000E+000	0.0000000E+000	84.2811	0.0000000E+000	0.0000000E+000	0.0000000E+000	-84.2811	0.0000000E+000	0.0000000E+000	0.0000000E+000	-5.71894	0.0000000E+000	0.0000000E+000	0.0000000E+000	5.71894	9.98531	84.2811	-8.27283e-06	-3.13751e-07	4.35309e-10	-3.14186e-07	0.261802	217849	302.251	218151
0.316193	21.3949	2.02835	21.4908	-5.41576	34.2449	0.261438	-0.00279438	248156	2210.57	1	12	0.00474022	0.00022057	0	-0.000106228	-0.00015252	3.21781e-06	-8.84987	0.0145886	0.0144149	0.0022444	-5.41809	21.5054	21.4093	2.0306	0.0463238	0.00439175	0.0465315	5.41576	2.21057e+06	2.3317e+07	2.34215e+07	-84.5842	0.0000000E+000	0.0000000E+000	0.0000000E+000	84.5842	0.0000000E+000	0.0000000E+000	0.0000000E+000	-84.5842	0.0000000E+000	0.0000000E+000	0.0000000E+000	-5.41576	0.0000000E+000	0.0000000E+000	0.0000000E+000	5.41576	10.5479	84.5842	2.38824e-06	-7.30556e-07	4.26199e-10	-7.30982e-07	0.26159	93558.3	54.581	93612.9
0.0999041	22.4634	3.3772	22.7159	-8.54995	79.4537	0.261438	9.72917e-05	471715	10426.4	1	12	0.00474195	0.00020875	0	-1.85606e-05	5.76895e-05	1.58041e-06	42.1962	0.00757082	0.00560883	-0.0050851	-8.53516	22.7207	22.469	3.37212	0.0435328	0.00654483	0.0440221	8.54995	1.04264e+07	6.93512e+07	7.01306e+07	-81.4501	0.0000000E+000	0.0000000E+000	0.0000000E+000	81.4501	0.0000000E+000	0.0000000E+000	0.0000000E+000	-81.4501	0.0000000E+000	0.0000000E+000	0.0000000E+000	-8.54995	0.0000000E+000	0.0000000E+000	0.0000000E+000	8.54995	6.65149	81.4501	3.66852e-05	2.54357e-08	5.61271e-12	2.54301e-08	0.26138	2.68715e+06	592.954	2.68656e+06
0.0315922	24.4305	7.44175	25.5388	-16.9412	222.337	0.261429	0.000466017	676963	57479.7	1	12	0.00473964	0.000185586	0	-0.000206216	-0.00019074	2.36534e-06	46.8493	0.0127452	0.00871672	-0.00929839	-16.9155	25.5444	24.4392	7.43245	0.0374569	0.0114097	0.0391561	16.9412	5.74797e+07	1.887e+08	1.9726e+08	-73.0588	0.0000000E+000	0.0000000E+000	0.0000000E+000	73.0588	0.0000000E+000	0.0000000E+000	0.0000000E+000	-73.0588	0.0000000E+000	0.0000000E+000	0.0000000E+000	-16.9412	0.0000000E+000	0.0000000E+000	0.0000000E+000	16.9412	3.2829	73.0588	-0.000153505	1.2183e-07	-8.8888e-11	1.21919e-07	0.26162	560987	409.298	561396
0.0100092	28.7706	17.3876	33.6166	-31.1468	673.56	0.261432	-0.000669575	914498	244655	1	12	0.00474137	0.000141043	0	-0.000461256	1.94696e-05	1.84728e-06	-7.96937	0.0130973	0.0129708	0.00181586	-31.138	33.6286	28.7835	17.3894	0.025459	0.0153862	0.0297472	31.1468	2.44655e+08	4.04822e+08	4.73008e+08	-58.8532	0.0000000E+000	0.0000000E+000	0.0000000E+000	58.8532	0.0000000E+000	0.0000000E+000	0.0000000E+000	-58.8532	0.0000000E+000	0.0000000E+000	0.0000000E+000	-31.1468	0.0000000E+000	0.0000000E+000	0.0000000E+000	31.1468	1.65466	58.8532	0.000112241	-1.75048e-07	-1.30363e-11	-1.75035e-07	0.261412	390445	29.0776	390416

File: 19066_R307_UA701_3p24_SOC00_C05.mpt
EC-Lab ASCII FILE
Nb header lines : 65

Potentio Electrochemical Impedance Spectroscopy

Run on channel : 5 (SN 65912)
Grouped channel(s) : 1, 2, 3, 4, 5
User :
CE vs. WE compliance from -10 V to 10 V
Electrode connection : standard
Potential control : Ewe
Ewe ctrl range : min = -10.00 V, max = 10.00 V
Safety Limits :
	Do not start on E overload
Acquisition started on : 11/12/2025 10:25:43.761
Loaded Setting File :  C:\Users\Celltest\OneDrive - store-dot.com\Documents\EC-Lab\Data\@Biologic Test Protocols\anode half cell EIS SOC00.mps
Saved on :
	File : 19062_R307_UA701_3p24_SOC00_C05.mpr
	Directory : C:\Users\Celltest\OneDrive - store-dot.com\Documents\EC-Lab\Data\Anna\
	Host : 169.254.61.224
Device : VMP-3e (SN .003165)
Address : USB
EC-LAB for windows v11.62 (software)
Internet server v27.00 (firmware)
Command interpretor v12.03 (firmware)
Electrode material :
Initial state :
Electrolyte :
Comments :
Electrode surface area : 0.001 cm²
Characteristic mass : 0.001 g
Equivalent Weight : 0.000 g/eq.
Density : 0.000 g/cm3
Volume (V) : 0.001 cm³
Record Ece
Cycle Definition : Charge/Discharge alternance
Mode                Single sine
E (V)               0.0000
vs.                 Eoc
tE (h:m:s)          0:00:0.0000
record              0
dI                  0.000
unit dI             mA
dt (s)              0.000
fi                  100.000
unit fi             kHz
ff                  10.000
unit ff             mHz
Nd                  6
Points              per decade
spacing             Logarithmic
Va (mV)             5.0
pw                  0.10
Na                  2
corr                0
E range min (V)     -10.000
E range max (V)     10.000
I Range             Auto
Bandwidth           5
nc cycles           0
goto Ns'            0
nr cycles           0
inc. cycle          0

freq/Hz	Re(Z)/Ohm	-Im(Z)/Ohm	|Z|/Ohm	Phase(Z)/deg	time/s	<Ewe>/V	<I>/mA	Cs/µF	Cp/µF	cycle number	I Range	|Ewe|/V	|I|/A	Ns	(Q-Qo)/mA.h	<Ece>/V	|Ece|/V	Phase(Zce)/deg	|Zce|/Ohm	Re(Zce)/Ohm	-Im(Zce)/Ohm	Phase(Zwe-ce)/deg	|Zwe-ce|/Ohm	Re(Zwe-ce)/Ohm	-Im(Zwe-ce)/Ohm	Re(Y)/Ohm-1	Im(Y)/Ohm-1	|Y|/Ohm-1	Phase(Y)/deg	Re(C)/nF	Im(C)/nF	|C|/nF	Phase(C)/deg	Re(M)	Im(M)	|M|	Phase(M)/deg	Re(Permittivity)	Im(Permittivity)	|Permittivity|	Phase(Permittivity)/deg	Re(Resistivity)/Ohm.cm	Im(Resistivity)/Ohm.cm	|Resistivity|/Ohm.cm	Phase(Resistivity)/deg	Re(Conductivity)/mS/cm	Im(Conductivity)/mS/cm	|Conductivity|/mS/cm	Phase(Conductivity)/deg	Tan(Delta)	Loss Angle(Delta)/deg	dq/mA.h	Pwe/W	Pce/W	Pwe-ce/W	<Ewe-Ece>/V	Rwe/Ohm	Rce/Ohm	Rwe-ce/Ohm		Ewe-Ece/V
100004	1.02303	0.402927	1.09952	-21.4973	1.72554	0.258737	-0.000431129	3.94982	0.530427	1	9	0.00465668	0.0042352	0	-5.5206e-06	-6.21241e-05	3.84923e-05	85.0089	0.00908865	0.000790725	-0.00905419	-21.0422	1.09697	1.02382	0.393873	0.84622	0.33329	0.909489	21.4973	530.427	1346.75	1447.44	-68.5027	0.0000000E+000	0.0000000E+000	0.0000000E+000	68.5027	0.0000000E+000	0.0000000E+000	0.0000000E+000	-68.5027	0.0000000E+000	0.0000000E+000	0.0000000E+000	-21.4973	0.0000000E+000	0.0000000E+000	0.0000000E+000	21.4973	2.53899	68.5027	-5.5206e-06	-1.11549e-07	2.67835e-11	-1.11576e-07	0.258799	600137	144.096	600281
31621.1	1.364	0.533418	1.46459	-21.3589	2.87655	0.258722	0.00809678	9.43572	1.25163	1	9	0.00543477	0.00371077	0	2.37334e-06	0.000128788	8.10111e-06	54.7061	0.00218313	0.00126135	-0.00178187	-21.2761	1.46512	1.36526	0.531636	0.635889	0.248676	0.682784	21.3589	1251.63	3200.54	3436.58	-68.6411	0.0000000E+000	0.0000000E+000	0.0000000E+000	68.6411	0.0000000E+000	0.0000000E+000	0.0000000E+000	-68.6411	0.0000000E+000	0.0000000E+000	0.0000000E+000	-21.3589	0.0000000E+000	0.0000000E+000	0.0000000E+000	21.3589	2.55709	68.6411	-1.12735e-05	2.09482e-06	1.04277e-09	2.09378e-06	0.258594	31953.8	15.9061	31937.9
10002.2	1.77165	0.722245	1.91321	-22.1791	4.02954	0.258722	-0.000580117	22.0312	3.13965	1	9	0.00518793	0.00271163	0	4.5652e-06	-4.85048e-06	8.46366e-06	-24.2397	0.00312124	0.00284606	0.00128144	-22.1825	1.91633	1.7745	0.723526	0.484007	0.197314	0.522681	22.1791	3139.65	7701.49	8316.87	-67.8209	0.0000000E+000	0.0000000E+000	0.0000000E+000	67.8209	0.0000000E+000	0.0000000E+000	0.0000000E+000	-67.8209	0.0000000E+000	0.0000000E+000	0.0000000E+000	-22.1791	0.0000000E+000	0.0000000E+000	0.0000000E+000	22.1791	2.45298	67.8209	1.32872e-06	-1.50089e-07	2.81385e-12	-1.50092e-07	0.258727	445983	8.3612	445991
3163.08	2.30116	1.07244	2.53879	-24.9876	5.05364	0.258636	-0.0440762	46.9177	8.37201	1	9	0.00522235	0.00205702	0	-3.09633e-06	-0.000119398	6.86865e-06	-94.2165	0.00333912	-0.000245508	0.00333008	-25.058	2.53997	2.30091	1.07577	0.35702	0.166387	0.393889	24.9876	8372.01	17964	19819.1	-65.0124	0.0000000E+000	0.0000000E+000	0.0000000E+000	65.0124	0.0000000E+000	0.0000000E+000	0.0000000E+000	-65.0124	0.0000000E+000	0.0000000E+000	0.0000000E+000	-24.9876	0.0000000E+000	0.0000000E+000	0.0000000E+000	24.9876	2.14572	65.0124	-4.57436e-06	-1.13997e-05	5.26261e-09	-1.1405e-05	0.258755	5867.92	2.70889	5870.63
1000.32	3.0127	1.8333	3.52666	-31.3215	6.65181	0.258674	-0.0190846	86.7857	23.4524	1	10	0.00511572	0.00145059	0	-8.31379e-06	-6.21241e-05	3.50618e-06	-71.4766	0.00241708	0.000767887	0.00229186	-31.3468	3.52851	3.01347	1.83559	0.24223	0.147403	0.283554	31.3215	23452.4	38539.8	45114.6	-58.6785	0.0000000E+000	0.0000000E+000	0.0000000E+000	58.6785	0.0000000E+000	0.0000000E+000	0.0000000E+000	-58.6785	0.0000000E+000	0.0000000E+000	0.0000000E+000	-31.3215	0.0000000E+000	0.0000000E+000	0.0000000E+000	31.3215	1.64332	58.6785	-8.58078e-07	-4.93669e-06	1.18561e-09	-4.93787e-06	0.258736	13554	3.25519	13557.3
316.316	4.4279	3.60479	5.70972	-39.1493	8.00001	0.258659	-0.0181314	139.579	55.6353	1	10	0.00493351	0.000864055	0	-1.4973e-05	-0.000233945	9.41336e-06	-30.8556	0.0108944	0.00935243	0.00558748	-39.1336	5.7205	4.43726	3.61038	0.135822	0.110574	0.17514	39.1493	55635.3	68339	88122.1	-50.8507	0.0000000E+000	0.0000000E+000	0.0000000E+000	50.8507	0.0000000E+000	0.0000000E+000	0.0000000E+000	-50.8507	0.0000000E+000	0.0000000E+000	0.0000000E+000	-39.1493	0.0000000E+000	0.0000000E+000	0.0000000E+000	39.1493	1.22834	50.8507	-1.72608e-06	-4.68986e-06	4.24176e-09	-4.69411e-06	0.258893	14265.8	12.9027	14278.7
100.032	8.32948	6.17446	10.3684	-36.5487	9.34785	0.258664	-0.0183772	257.681	91.3808	1	10	0.00488709	0.000471344	0	-2.22915e-05	7.15144e-05	1.16685e-05	18.2064	0.0247559	0.0235166	-0.00773476	-36.4372	10.3827	8.35299	6.16672	0.0774805	0.0574346	0.0964467	36.5487	91380.8	123275	153451	-53.4513	0.0000000E+000	0.0000000E+000	0.0000000E+000	53.4513	0.0000000E+000	0.0000000E+000	0.0000000E+000	-53.4513	0.0000000E+000	0.0000000E+000	0.0000000E+000	-36.5487	0.0000000E+000	0.0000000E+000	0.0000000E+000	36.5487	1.34902	53.4513	-1.65039e-06	-4.75351e-06	-1.31423e-09	-4.7522e-06	0.258592	14075.3	3.89148	14071.4
[...]
1.00006	23.2176	2.46085	23.3477	-6.05023	19.397	0.258679	-0.00705844	64670.7	718.44	1	12	0.00487899	0.000208971	0	-3.95169e-05	0.000243335	2.43856e-06	-42.624	0.0116694	0.00858647	0.0079023	-6.06728	23.357	23.2262	2.46875	0.0425923	0.00451438	0.0428308	6.05023	718440	6.77834e+06	6.8163e+06	-83.9498	0.0000000E+000	0.0000000E+000	0.0000000E+000	83.9498	0.0000000E+000	0.0000000E+000	0.0000000E+000	-83.9498	0.0000000E+000	0.0000000E+000	0.0000000E+000	-6.05023	0.0000000E+000	0.0000000E+000	0.0000000E+000	6.05023	9.4348	83.9498	-2.66133e-06	-1.82587e-06	-1.71757e-09	-1.82415e-06	0.258436	36648.1	34.4744	36613.7
0.316193	24.4983	2.25305	24.6017	-5.25457	33.7418	0.258677	-0.00477127	223407	1873.74	1	12	0.00487933	0.000198333	0	-9.28512e-05	-2.39417e-05	1.93948e-06	12.4387	0.0097789	0.00954936	-0.00210633	-5.24765	24.611	24.5079	2.25094	0.0404768	0.00372255	0.0406476	5.25457	1.87374e+06	2.03739e+07	2.04599e+07	-84.7454	0.0000000E+000	0.0000000E+000	0.0000000E+000	84.7454	0.0000000E+000	0.0000000E+000	0.0000000E+000	-84.7454	0.0000000E+000	0.0000000E+000	0.0000000E+000	-5.25457	0.0000000E+000	0.0000000E+000	0.0000000E+000	5.25457	10.8734	84.7454	-2.61533e-05	-1.23422e-06	1.14232e-10	-1.23433e-06	0.258701	54215.6	5.01789	54220.6
0.0999041	25.6456	3.61709	25.8994	-8.02814	78.9496	0.258684	-0.00401109	440430	8590.48	1	12	0.00488102	0.000188461	0	-0.000119921	3.3332e-05	1.54674e-06	-18.2855	0.0082072	0.00779278	0.00257502	-8.03137	25.9075	25.6534	3.61967	0.0382325	0.00539238	0.0386109	8.02814	8.59048e+06	6.09074e+07	6.15102e+07	-81.9719	0.0000000E+000	0.0000000E+000	0.0000000E+000	81.9719	0.0000000E+000	0.0000000E+000	0.0000000E+000	-81.9719	0.0000000E+000	0.0000000E+000	0.0000000E+000	-8.02814	0.0000000E+000	0.0000000E+000	0.0000000E+000	8.02814	7.0901	81.9719	1.33613e-05	-1.03761e-06	-1.33697e-10	-1.03747e-06	0.258651	64492.2	8.30995	64483.9
0.0315922	27.9572	7.66564	28.9891	-15.3332	221.834	0.258679	0.000411351	657191	45953.7	1	12	0.00487721	0.000168243	0	5.47991e-05	0.000186062	8.49177e-07	32.0412	0.00504732	0.00427845	-0.00267775	-15.3259	28.9925	27.9615	7.66297	0.0332679	0.0091218	0.0344958	15.3332	4.59537e+07	1.67597e+08	1.73782e+08	-74.6668	0.0000000E+000	0.0000000E+000	0.0000000E+000	74.6668	0.0000000E+000	0.0000000E+000	0.0000000E+000	-74.6668	0.0000000E+000	0.0000000E+000	0.0000000E+000	-15.3332	0.0000000E+000	0.0000000E+000	0.0000000E+000	15.3332	3.64707	74.6668	5.43342e-05	1.06408e-07	7.65367e-11	1.06331e-07	0.258493	628851	452.319	628399
0.0100092	32.4655	17.1114	36.6989	-27.7921	673.056	0.258677	-0.000343578	929256	202023	1	12	0.00487959	0.000132963	0	-0.000649149	0.000109697	2.13202e-06	-38.4234	0.0160347	0.0125622	0.00996505	-27.7968	36.7147	32.4781	17.1214	0.0241055	0.0127051	0.0272487	27.7921	2.02023e+08	3.83299e+08	4.3328e+08	-62.2079	0.0000000E+000	0.0000000E+000	0.0000000E+000	62.2079	0.0000000E+000	0.0000000E+000	0.0000000E+000	-62.2079	0.0000000E+000	0.0000000E+000	0.0000000E+000	-27.7921	0.0000000E+000	0.0000000E+000	0.0000000E+000	27.7921	1.8973	62.2079	-0.000391559	-8.88758e-08	-3.76894e-11	-8.88381e-08	0.258568	752894	319.278	752575