Folder: EIS/txt (part 46)

File: 17606_R291_UC84_SOC50_C03.mpt
EC-Lab ASCII FILE
Nb header lines : 64

Potentio Electrochemical Impedance Spectroscopy

Run on channel : 3 (SN 65921)
User :
CE vs. WE compliance from -10 V to 10 V
Electrode connection : standard
Potential control : Ewe
Ewe ctrl range : min = -10.00 V, max = 10.00 V
Safety Limits :
	Do not start on E overload
Acquisition started on : 09/17/2025 17:33:26.756
Loaded Setting File :  C:\Users\Celltest\OneDrive - store-dot.com\Documents\EC-Lab\Data\Michael\UC74_NCMA_16706_EIS_50_SOC.mps
Saved on :
	File : 17606_R291_UC84_SOC50_C03.mpr
	Directory : C:\Users\Celltest\OneDrive - store-dot.com\Documents\EC-Lab\Data\Gyutae\
	Host : 169.254.61.224
Device : VMP-3e (SN .003165)
Address : USB
EC-LAB for windows v11.62 (software)
Internet server v27.00 (firmware)
Command interpretor v12.03 (firmware)
Electrode material :
Initial state :
Electrolyte :
Comments :
Electrode surface area : 0.001 cm²
Characteristic mass : 0.001 g
Equivalent Weight : 0.000 g/eq.
Density : 0.000 g/cm3
Volume (V) : 0.001 cm³
Record Ece
Cycle Definition : Charge/Discharge alternance
Mode                Multi sine
E (V)               0.0000
vs.                 Eoc
tE (h:m:s)          0:00:0.0000
record              0
dI                  0.000
unit dI             mA
dt (s)              0.000
fi                  1.000
unit fi             MHz
ff                  0.100
unit ff             mHz
Nd                  10
Points              per decade
spacing             Logarithmic
Va (mV)             5.0
pw                  0.10
Na                  2
corr                0
E range min (V)     -10.000
E range max (V)     10.000
I Range             Auto
Bandwidth           5
nc cycles           0
goto Ns'            0
nr cycles           0
inc. cycle          0

freq/Hz	Re(Z)/Ohm	-Im(Z)/Ohm	|Z|/Ohm	Phase(Z)/deg	time/s	<Ewe>/V	<I>/mA	Cs/µF	Cp/µF	cycle number	I Range	|Ewe|/V	|I|/A	Ns	(Q-Qo)/mA.h	<Ece>/V	|Ece|/V	Phase(Zce)/deg	|Zce|/Ohm	Re(Zce)/Ohm	-Im(Zce)/Ohm	Phase(Zwe-ce)/deg	|Zwe-ce|/Ohm	Re(Zwe-ce)/Ohm	-Im(Zwe-ce)/Ohm	Re(Y)/Ohm-1	Im(Y)/Ohm-1	|Y|/Ohm-1	Phase(Y)/deg	Re(C)/nF	Im(C)/nF	|C|/nF	Phase(C)/deg	Re(M)	Im(M)	|M|	Phase(M)/deg	Re(Permittivity)	Im(Permittivity)	|Permittivity|	Phase(Permittivity)/deg	Re(Resistivity)/Ohm.cm	Im(Resistivity)/Ohm.cm	|Resistivity|/Ohm.cm	Phase(Resistivity)/deg	Re(Conductivity)/mS/cm	Im(Conductivity)/mS/cm	|Conductivity|/mS/cm	Phase(Conductivity)/deg	Tan(Delta)	Loss Angle(Delta)/deg	dq/mA.h	Pwe/W	Pce/W	Pwe-ce/W	<Ewe-Ece>/V	Rwe/Ohm	Rce/Ohm	Rwe-ce/Ohm		Ewe-Ece/V
1.00002e+06	2.11997	2.6844	3.42056	-51.7006	2.23352	3.78211	0.0122562	0.0592878	0.0365144	1	10	0.000232404	6.79431e-05	0	-1.09142e-05	5.92533e-05	0.000194849	-68.1327	2.86782	1.06815	2.66148	-59.1895	6.22434	3.18811	5.34588	0.18119	0.229431	0.29235	51.7006	36.5144	28.8367	46.528	-38.2994	0.0000000E+000	0.0000000E+000	0.0000000E+000	38.2994	0.0000000E+000	0.0000000E+000	0.0000000E+000	-38.2994	0.0000000E+000	0.0000000E+000	0.0000000E+000	-51.7006	0.0000000E+000	0.0000000E+000	0.0000000E+000	51.7006	0.789736	38.2994	-1.09142e-05	4.63542e-05	7.2622e-10	4.63535e-05	3.78205	308587	4.83456	308583
251206	1.19982	0.264962	1.22873	-12.453	4.93852	3.78173	0.0144635	2.39115	0.111188	1	9	0.00312038	0.00253951	0	1.89834e-07	1.97113e-06	4.73102e-05	92.3062	0.0186297	-0.000749648	-0.0186146	-11.6097	1.22412	1.19907	0.246347	0.7947	0.175497	0.813847	12.453	111.188	503.492	515.623	-77.547	0.0000000E+000	0.0000000E+000	0.0000000E+000	77.547	0.0000000E+000	0.0000000E+000	0.0000000E+000	-77.547	0.0000000E+000	0.0000000E+000	0.0000000E+000	-12.453	0.0000000E+000	0.0000000E+000	0.0000000E+000	12.453	4.52829	77.547	5.53758e-07	5.46971e-05	2.85094e-11	5.46971e-05	3.78173	261467	0.136283	261467
63093.8	1.57464	0.339206	1.61076	-12.1568	7.23856	3.78169	0.0173351	7.43652	0.32979	1	9	0.00531788	0.00330148	0	2.8588e-05	-9.34992e-05	2.07824e-05	95.6503	0.00629487	-0.000619768	-0.00626428	-11.9434	1.60884	1.57402	0.332942	0.606904	0.130739	0.620826	12.1568	329.79	1530.92	1566.04	-77.8432	0.0000000E+000	0.0000000E+000	0.0000000E+000	77.8432	0.0000000E+000	0.0000000E+000	0.0000000E+000	-77.8432	0.0000000E+000	0.0000000E+000	0.0000000E+000	-12.1568	0.0000000E+000	0.0000000E+000	0.0000000E+000	12.1568	4.64212	77.8432	2.005e-06	6.55561e-05	-1.62082e-09	6.55577e-05	3.78178	218152	5.39363	218157
15847.7	1.84366	0.419035	1.89068	-12.8049	9.53853	3.78169	0.0222206	23.9665	1.17725	1	9	0.00514608	0.00272181	0	5.11643e-05	-0.000131687	7.36596e-05	101.015	0.0270627	-0.00517095	-0.0265641	-12.0503	1.87992	1.83849	0.392471	0.515756	0.117223	0.52891	12.8049	1177.25	5179.63	5311.73	-77.1951	0.0000000E+000	0.0000000E+000	0.0000000E+000	77.1951	0.0000000E+000	0.0000000E+000	0.0000000E+000	-77.1951	0.0000000E+000	0.0000000E+000	0.0000000E+000	-12.8049	0.0000000E+000	0.0000000E+000	0.0000000E+000	12.8049	4.39978	77.1951	2.85466e-06	8.40314e-05	-2.92617e-09	8.40343e-05	3.78183	170189	5.92637	170195
3983.6	2.22154	0.646001	2.31356	-16.2139	11.389	3.7816	0.00271602	61.8459	4.82188	1	9	0.0052929	0.00228777	0	6.05392e-05	4.01593e-05	6.27265e-06	-110.323	0.00274181	-0.000952265	0.00257113	-16.2816	2.31336	2.22059	0.648572	0.415043	0.12069	0.432235	16.2139	4821.88	16582	17268.9	-73.7861	0.0000000E+000	0.0000000E+000	0.0000000E+000	73.7861	0.0000000E+000	0.0000000E+000	0.0000000E+000	-73.7861	0.0000000E+000	0.0000000E+000	0.0000000E+000	-16.2139	0.0000000E+000	0.0000000E+000	0.0000000E+000	16.2139	3.43891	73.7861	1.64381e-06	1.02709e-05	1.09073e-10	1.02708e-05	3.78156	1.39233e+06	14.7861	1.39232e+06
1000.32	2.9371	1.13983	3.15052	-21.2102	14.0178	3.78164	0.0193862	139.586	18.2707	1	9	0.00516732	0.00164015	0	7.37374e-05	0.00032657	6.98165e-06	105.521	0.00425671	-0.00113909	-0.00410147	-21.1481	3.14798	2.93596	1.13572	0.295907	0.114835	0.317408	21.2102	18270.7	47079.9	50500.9	-68.7898	0.0000000E+000	0.0000000E+000	0.0000000E+000	68.7898	0.0000000E+000	0.0000000E+000	0.0000000E+000	-68.7898	0.0000000E+000	0.0000000E+000	0.0000000E+000	-21.2102	0.0000000E+000	0.0000000E+000	0.0000000E+000	21.2102	2.5768	68.7898	2.85381e-06	7.33118e-05	6.33096e-09	7.33054e-05	3.78132	195069	16.8455	195052
251.044	4.36547	1.52866	4.62537	-19.2987	16.9641	3.78166	-0.0290971	414.725	45.2987	1	10	0.00512254	0.00110749	0	5.28774e-05	-0.000131687	6.63674e-06	25.2962	0.00599261	0.00541798	-0.00256063	-19.2467	4.62964	4.37088	1.5261	0.20405	0.0714523	0.216199	19.2987	45298.7	129362	137064	-70.7013	0.0000000E+000	0.0000000E+000	0.0000000E+000	70.7013	0.0000000E+000	0.0000000E+000	0.0000000E+000	-70.7013	0.0000000E+000	0.0000000E+000	0.0000000E+000	-19.2987	0.0000000E+000	0.0000000E+000	0.0000000E+000	19.2987	2.85575	70.7013	-4.38252e-06	-0.000110035	3.83172e-09	-0.000110039	3.7818	129967	4.52579	129972
63.0823	5.74903	0.975211	5.83116	-9.62746	19.6839	3.78167	-0.0264086	2587.11	72.3605	1	10	0.00510453	0.000875388	0	3.00846e-05	-5.53111e-05	7.50201e-06	-88.6536	0.00856993	0.000201373	0.00856756	-9.7101	5.8328	5.74923	0.983778	0.169077	0.0286806	0.171492	9.62746	72360.4	426577	432671	-80.3725	0.0000000E+000	0.0000000E+000	0.0000000E+000	80.3725	0.0000000E+000	0.0000000E+000	0.0000000E+000	-80.3725	0.0000000E+000	0.0000000E+000	0.0000000E+000	-9.62746	0.0000000E+000	0.0000000E+000	0.0000000E+000	9.62746	5.89517	80.3725	-2.99796e-06	-9.98686e-05	1.46069e-09	-9.987e-05	3.78173	143199	2.09444	143201
[...]
0.0602816	7.39382	1.34097	7.51444	-10.2797	240.522	3.78168	-0.0130729	1.96886e+06	62699.3	1	11	0.00505893	0.000673229	0	-0.00363816	-7.44051e-05	5.51674e-07	10.6872	0.000819445	0.000805231	-0.000151964	-10.2774	7.5152	7.39463	1.34082	0.130941	0.023748	0.133077	10.2797	6.26993e+07	3.45709e+08	3.51349e+08	-79.7203	0.0000000E+000	0.0000000E+000	0.0000000E+000	79.7203	0.0000000E+000	0.0000000E+000	0.0000000E+000	-79.7203	0.0000000E+000	0.0000000E+000	0.0000000E+000	-10.2797	0.0000000E+000	0.0000000E+000	0.0000000E+000	10.2797	5.51377	79.7203	0.000000000000000E+000	-4.94375e-05	9.7269e-10	-4.94384e-05	3.78175	289276	5.69156	289282
0.00796479	11.3955	3.40072	11.8921	-16.6166	20329.3	3.78173	0.00102116	5.8759e+06	480508	1	11	0.00505283	0.00042489	0	-0.0107058	0.00013563	4.1591e-07	-165.559	0.000978865	-0.000947939	0.000244107	-16.619	11.8913	11.3945	3.40097	0.0805779	0.0240467	0.0840895	16.6166	4.80508e+08	1.61013e+09	1.6803e+09	-73.3835	0.0000000E+000	0.0000000E+000	0.0000000E+000	73.3835	0.0000000E+000	0.0000000E+000	0.0000000E+000	-73.3835	0.0000000E+000	0.0000000E+000	0.0000000E+000	-16.6166	0.0000000E+000	0.0000000E+000	0.0000000E+000	16.6166	3.3509	73.3835	-0.00706763	3.86176e-06	1.385e-10	3.86162e-06	3.7816	3.70336e+06	132.819	3.70323e+06
0.0019912	14.4449	4.49258	15.1274	-17.2765	20329.4	3.78173	0.00102116	1.77914e+07	1.56918e+06	1	11	0.00506514	0.000334832	0	-0.0107058	0.00013563	6.86363e-07	-40.143	0.00204987	0.001567	0.00132155	-17.2795	15.1293	14.4464	4.4939	0.0631228	0.0196322	0.0661053	17.2765	1.56918e+09	5.04536e+09	5.28375e+09	-72.7235	0.0000000E+000	0.0000000E+000	0.0000000E+000	72.7235	0.0000000E+000	0.0000000E+000	0.0000000E+000	-72.7235	0.0000000E+000	0.0000000E+000	0.0000000E+000	-17.2765	0.0000000E+000	0.0000000E+000	0.0000000E+000	17.2765	3.21528	72.7235	0.000000000000000E+000	3.86176e-06	1.385e-10	3.86162e-06	3.7816	3.70336e+06	132.819	3.70323e+06
0.000497799	15.9436	7.86618	17.7785	-26.2606	20329.4	3.78173	0.00102116	4.06445e+07	7.95683e+06	1	11	0.00506573	0.000284936	0	-0.0107058	0.00013563	9.08793e-07	100.241	0.00318946	-0.000567031	-0.00313866	-26.2524	17.7766	15.943	7.86304	0.0504424	0.0248871	0.0562477	26.2606	7.95683e+09	1.61273e+10	1.79834e+10	-63.7394	0.0000000E+000	0.0000000E+000	0.0000000E+000	63.7394	0.0000000E+000	0.0000000E+000	0.0000000E+000	-63.7394	0.0000000E+000	0.0000000E+000	0.0000000E+000	-26.2606	0.0000000E+000	0.0000000E+000	0.0000000E+000	26.2606	2.02685	63.7394	0.000000000000000E+000	3.86176e-06	1.385e-10	3.86162e-06	3.7816	3.70336e+06	132.819	3.70323e+06
9.95598e-05	19.2929	35.7153	40.5931	-61.6228	20329.4	3.78173	0.00102116	4.47591e+07	3.46486e+07	1	11	0.00505141	0.00012444	0	-0.0107058	0.00013563	7.93163e-06	-88.2801	0.0637385	0.00191304	0.0637098	-61.6631	40.6501	19.2948	35.779	0.0117083	0.0216746	0.0246347	61.6228	3.46486e+10	1.87167e+10	3.93807e+10	-28.3772	0.0000000E+000	0.0000000E+000	0.0000000E+000	28.3772	0.0000000E+000	0.0000000E+000	0.0000000E+000	-28.3772	0.0000000E+000	0.0000000E+000	0.0000000E+000	-61.6228	0.0000000E+000	0.0000000E+000	0.0000000E+000	61.6228	0.540185	28.3772	0.000000000000000E+000	3.86176e-06	1.385e-10	3.86162e-06	3.7816	3.70336e+06	132.819	3.70323e+06

File: 17607_R291_UC84_SOC50_C04.mpt
EC-Lab ASCII FILE
Nb header lines : 64

Potentio Electrochemical Impedance Spectroscopy

Run on channel : 4 (SN 66756)
User :
CE vs. WE compliance from -10 V to 10 V
Electrode connection : standard
Potential control : Ewe
Ewe ctrl range : min = -10.00 V, max = 10.00 V
Safety Limits :
	Do not start on E overload
Acquisition started on : 09/17/2025 17:33:41.551
Loaded Setting File :  C:\Users\Celltest\OneDrive - store-dot.com\Documents\EC-Lab\Data\Michael\UC74_NCMA_16706_EIS_50_SOC.mps
Saved on :
	File : 17607_R291_UC84_SOC50_C04.mpr
	Directory : C:\Users\Celltest\OneDrive - store-dot.com\Documents\EC-Lab\Data\Gyutae\
	Host : 169.254.61.224
Device : VMP-3e (SN .003165)
Address : USB
EC-LAB for windows v11.62 (software)
Internet server v27.00 (firmware)
Command interpretor v12.03 (firmware)
Electrode material :
Initial state :
Electrolyte :
Comments :
Electrode surface area : 0.001 cm²
Characteristic mass : 0.001 g
Equivalent Weight : 0.000 g/eq.
Density : 0.000 g/cm3
Volume (V) : 0.001 cm³
Record Ece
Cycle Definition : Charge/Discharge alternance
Mode                Multi sine
E (V)               0.0000
vs.                 Eoc
tE (h:m:s)          0:00:0.0000
record              0
dI                  0.000
unit dI             mA
dt (s)              0.000
fi                  1.000
unit fi             MHz
ff                  0.100
unit ff             mHz
Nd                  10
Points              per decade
spacing             Logarithmic
Va (mV)             5.0
pw                  0.10
Na                  2
corr                0
E range min (V)     -10.000
E range max (V)     10.000
I Range             Auto
Bandwidth           5
nc cycles           0
goto Ns'            0
nr cycles           0
inc. cycle          0

freq/Hz	Re(Z)/Ohm	-Im(Z)/Ohm	|Z|/Ohm	Phase(Z)/deg	time/s	<Ewe>/V	<I>/mA	Cs/µF	Cp/µF	cycle number	I Range	|Ewe|/V	|I|/A	Ns	(Q-Qo)/mA.h	<Ece>/V	|Ece|/V	Phase(Zce)/deg	|Zce|/Ohm	Re(Zce)/Ohm	-Im(Zce)/Ohm	Phase(Zwe-ce)/deg	|Zwe-ce|/Ohm	Re(Zwe-ce)/Ohm	-Im(Zwe-ce)/Ohm	Re(Y)/Ohm-1	Im(Y)/Ohm-1	|Y|/Ohm-1	Phase(Y)/deg	Re(C)/nF	Im(C)/nF	|C|/nF	Phase(C)/deg	Re(M)	Im(M)	|M|	Phase(M)/deg	Re(Permittivity)	Im(Permittivity)	|Permittivity|	Phase(Permittivity)/deg	Re(Resistivity)/Ohm.cm	Im(Resistivity)/Ohm.cm	|Resistivity|/Ohm.cm	Phase(Resistivity)/deg	Re(Conductivity)/mS/cm	Im(Conductivity)/mS/cm	|Conductivity|/mS/cm	Phase(Conductivity)/deg	Tan(Delta)	Loss Angle(Delta)/deg	dq/mA.h	Pwe/W	Pce/W	Pwe-ce/W	<Ewe-Ece>/V	Rwe/Ohm	Rce/Ohm	Rwe-ce/Ohm		Ewe-Ece/V
1.00002e+06	-0.0418211	-5.22826	5.22843	90.4583	1.77354	3.77173	0.0603408	-0.0304407	-0.0304388	1	10	0.00013303	2.54435e-05	0	-9.56333e-06	-0.000283614	0.000193497	100.246	7.60496	-1.35273	-7.48368	96.2605	12.7882	-1.39455	-12.7119	-0.00152985	-0.191256	0.191262	-90.4583	-30.4388	-0.243479	30.4397	179.542	0.0000000E+000	0.0000000E+000	0.0000000E+000	-179.542	0.0000000E+000	0.0000000E+000	0.0000000E+000	179.542	0.0000000E+000	0.0000000E+000	0.0000000E+000	90.4583	0.0000000E+000	0.0000000E+000	0.0000000E+000	-90.4583	0.00799904	0.458298	-9.56333e-06	0.000227589	-1.71135e-08	0.000227606	3.77201	62507.1	4.70021	62511.8
251206	0.038044	-0.848949	0.849801	87.4341	4.47552	3.77034	-0.0686497	-0.746291	-0.744795	1	9	0.000244532	0.000287752	0	-5.05634e-05	-0.000245394	5.24097e-05	44.6266	0.182135	0.129626	-0.127947	80.2609	0.99118	0.16767	-0.976896	0.0526807	-1.17557	1.17675	-87.4341	-744.795	33.3766	745.543	-177.434	0.0000000E+000	0.0000000E+000	0.0000000E+000	177.434	0.0000000E+000	0.0000000E+000	0.0000000E+000	-177.434	0.0000000E+000	0.0000000E+000	0.0000000E+000	87.4341	0.0000000E+000	0.0000000E+000	0.0000000E+000	-87.4341	0.044813	2.56588	-7.05107e-06	-0.000258833	1.68463e-08	-0.00025885	3.77059	54921.4	3.57459	54925
63093.8	1.74129	0.210496	1.75396	-6.89279	6.77352	3.77027	-0.0739459	11.9836	0.172598	1	9	0.00169732	0.000967708	0	-0.000101905	0.000327904	5.73743e-05	-17.82	0.0592888	0.0564443	0.018144	-7.24812	1.81221	1.79773	0.22864	0.566017	0.0684232	0.570137	6.89279	172.599	1427.78	1438.18	-83.1072	0.0000000E+000	0.0000000E+000	0.0000000E+000	83.1072	0.0000000E+000	0.0000000E+000	0.0000000E+000	-83.1072	0.0000000E+000	0.0000000E+000	0.0000000E+000	-6.89279	0.0000000E+000	0.0000000E+000	0.0000000E+000	6.89279	8.27229	83.1072	-9.00457e-06	-0.000278796	-2.42472e-08	-0.000278772	3.76994	50986.9	4.43438	50982.4
15847.7	2.4925	0.618802	2.56816	-13.9427	9.19756	3.77026	-0.0619361	16.2294	0.942239	1	9	0.00530287	0.00206485	0	-0.000149825	-0.000168955	4.67375e-05	71.5335	0.0226348	0.00716957	-0.0214693	-13.4397	2.57005	2.49967	0.597333	0.377911	0.0938225	0.389383	13.9427	942.239	3795.28	3910.5	-76.0573	0.0000000E+000	0.0000000E+000	0.0000000E+000	76.0573	0.0000000E+000	0.0000000E+000	0.0000000E+000	-76.0573	0.0000000E+000	0.0000000E+000	0.0000000E+000	-13.9427	0.0000000E+000	0.0000000E+000	0.0000000E+000	13.9427	4.02794	76.0573	-5.48246e-06	-0.000233515	1.04644e-08	-0.000233526	3.77043	60873.4	2.72788	60876.1
3983.6	2.9927	0.882717	3.12017	-16.4338	11.5641	3.77028	-0.0308675	45.2609	3.62252	1	9	0.00518113	0.00166053	0	-0.000190011	-0.000398274	8.11954e-06	-56.0622	0.00488973	0.0027299	0.00405673	-16.491	3.12393	2.99543	0.886774	0.307403	0.0906705	0.320496	16.4338	3622.52	12281.5	12804.6	-73.5662	0.0000000E+000	0.0000000E+000	0.0000000E+000	73.5662	0.0000000E+000	0.0000000E+000	0.0000000E+000	-73.5662	0.0000000E+000	0.0000000E+000	0.0000000E+000	-16.4338	0.0000000E+000	0.0000000E+000	0.0000000E+000	16.4338	3.39033	73.5662	-4.95261e-06	-0.000116379	1.22937e-08	-0.000116391	3.77068	122144	12.9027	122157
1000.32	3.89915	1.54971	4.19583	-21.6752	15.0428	3.77029	-0.0823981	102.667	14.0054	1	10	0.00507683	0.00120997	0	-0.000247763	-0.000493824	6.56136e-06	28.06	0.00542274	0.00478533	-0.00255084	-21.6188	4.19933	3.90394	1.54716	0.22148	0.0880267	0.238332	21.6752	14005.4	35238.4	37919.6	-68.3248	0.0000000E+000	0.0000000E+000	0.0000000E+000	68.3248	0.0000000E+000	0.0000000E+000	0.0000000E+000	-68.3248	0.0000000E+000	0.0000000E+000	0.0000000E+000	-21.6752	0.0000000E+000	0.0000000E+000	0.0000000E+000	21.6752	2.51606	68.3248	-7.40079e-06	-0.000310665	4.06901e-08	-0.000310705	3.77078	45757	5.99315	45763
251.044	5.89308	2.38265	6.35653	-22.0141	17.744	3.77027	-0.0610056	266.079	37.3843	1	10	0.00482252	0.000758672	0	-0.000289104	-0.000111625	7.43684e-06	-3.57168	0.00980244	0.0097834	0.000610664	-21.9862	6.36583	5.90287	2.38326	0.145849	0.0589685	0.157319	22.0141	37384.3	92464	99735.5	-67.9859	0.0000000E+000	0.0000000E+000	0.0000000E+000	67.9859	0.0000000E+000	0.0000000E+000	0.0000000E+000	-67.9859	0.0000000E+000	0.0000000E+000	0.0000000E+000	-22.0141	0.0000000E+000	0.0000000E+000	0.0000000E+000	22.0141	2.47333	67.9859	-6.70689e-06	-0.000230007	6.80973e-09	-0.000230014	3.77038	61802	1.82975	61803.9
[...]
0.0602816	10.7585	1.67489	10.8881	-8.84882	241.098	3.77026	-0.0479633	1.57634e+06	37300.9	1	11	0.00508364	0.0004669	0	-0.00550202	0.000117695	7.05106e-07	0.659781	0.00151019	0.00151008	-1.73899e-05	-8.84751	10.8895	10.76	1.67487	0.0907506	0.0141281	0.0918438	8.84882	3.73009e+07	2.39599e+08	2.42485e+08	-81.1512	0.0000000E+000	0.0000000E+000	0.0000000E+000	81.1512	0.0000000E+000	0.0000000E+000	0.0000000E+000	-81.1512	0.0000000E+000	0.0000000E+000	0.0000000E+000	-8.84882	0.0000000E+000	0.0000000E+000	0.0000000E+000	8.84882	6.4234	81.1512	0.000000000000000E+000	-0.000180834	-5.64503e-09	-0.000180829	3.77014	78607.2	2.45385	78604.7
0.00796479	14.858	4.06757	15.4047	-15.3103	20330	3.77026	0.00661127	4.9126e+06	342509	1	11	0.00507589	0.000329502	0	0.00739748	-0.000321834	5.00798e-07	-13.4877	0.00151986	0.00147795	0.000354488	-15.3101	15.4063	14.8595	4.06792	0.0626112	0.0171406	0.0649151	15.3103	3.42509e+08	1.25112e+09	1.29715e+09	-74.6897	0.0000000E+000	0.0000000E+000	0.0000000E+000	74.6897	0.0000000E+000	0.0000000E+000	0.0000000E+000	-74.6897	0.0000000E+000	0.0000000E+000	0.0000000E+000	-15.3103	0.0000000E+000	0.0000000E+000	0.0000000E+000	15.3103	3.65281	74.6897	0.0128995	2.49262e-05	-2.12773e-09	2.49284e-05	3.77058	570278	48.6796	570327
0.0019912	18.5564	5.18748	19.2679	-15.6184	20330	3.77026	0.00661127	1.54081e+07	1.11685e+06	1	11	0.0050893	0.000264134	0	0.00739748	-0.000321834	6.78849e-07	12.1635	0.00257009	0.00251239	-0.000541524	-15.6149	19.2701	18.5589	5.18694	0.0499835	0.013973	0.0518999	15.6184	1.11685e+09	3.99515e+09	4.14832e+09	-74.3816	0.0000000E+000	0.0000000E+000	0.0000000E+000	74.3816	0.0000000E+000	0.0000000E+000	0.0000000E+000	-74.3816	0.0000000E+000	0.0000000E+000	0.0000000E+000	-15.6184	0.0000000E+000	0.0000000E+000	0.0000000E+000	15.6184	3.57716	74.3816	0.000000000000000E+000	2.49262e-05	-2.12773e-09	2.49284e-05	3.77058	570278	48.6796	570327
0.000497799	20.5351	7.92058	22.0097	-21.0921	20330	3.77026	0.00661127	4.03654e+07	5.22752e+06	1	11	0.00509102	0.000231308	0	0.00739748	-0.000321834	1.44814e-06	-50.1283	0.00626064	0.00401351	0.00480493	-21.1	22.0151	20.5391	7.92539	0.0423906	0.0163505	0.0454346	21.0921	5.22752e+09	1.3553e+10	1.45262e+10	-68.9079	0.0000000E+000	0.0000000E+000	0.0000000E+000	68.9079	0.0000000E+000	0.0000000E+000	0.0000000E+000	-68.9079	0.0000000E+000	0.0000000E+000	0.0000000E+000	-21.0921	0.0000000E+000	0.0000000E+000	0.0000000E+000	21.0921	2.59262	68.9079	0.000000000000000E+000	2.49262e-05	-2.12773e-09	2.49284e-05	3.77058	570278	48.6796	570327
9.95598e-05	24.9606	36.8574	44.5141	-55.8934	20330	3.77026	0.00661127	4.33721e+07	2.97349e+07	1	11	0.00508713	0.000114281	0	0.00739748	-0.000321834	3.54864e-06	3.91859	0.0310518	0.0309792	-0.00212205	-55.8589	44.5297	24.9915	36.8553	0.0125968	0.0186008	0.0224648	55.8934	2.97349e+10	2.01371e+10	3.59119e+10	-34.1066	0.0000000E+000	0.0000000E+000	0.0000000E+000	34.1066	0.0000000E+000	0.0000000E+000	0.0000000E+000	-34.1066	0.0000000E+000	0.0000000E+000	0.0000000E+000	-55.8934	0.0000000E+000	0.0000000E+000	0.0000000E+000	55.8934	0.677219	34.1066	0.000000000000000E+000	2.49262e-05	-2.12773e-09	2.49284e-05	3.77058	570278	48.6796	570327