Folder: EIS/txt (part 14)

File: 17384_R279_UA648_SOC00_C03.mpt
EC-Lab ASCII FILE
Nb header lines : 63

Potentio Electrochemical Impedance Spectroscopy

Run on channel : 3 (SN 65921)
User :
CE vs. WE compliance from -10 V to 10 V
Electrode connection : standard
Potential control : Ewe
Ewe ctrl range : min = -10.00 V, max = 10.00 V
Safety Limits :
	Do not start on E overload
Acquisition started on : 09/10/2025 16:53:35.972
Loaded Setting File :  C:\Users\Celltest\OneDrive - store-dot.com\Documents\EC-Lab\Data\Charmaine\R279\17382_C01.mpr
Saved on :
	File : 17384_C03.mpr
	Directory : C:\Users\Celltest\OneDrive - store-dot.com\Documents\EC-Lab\Data\Charmaine\R279\
	Host : 169.254.61.224
Device : VMP-3e (SN .003165)
Address : USB
EC-LAB for windows v11.62 (software)
Internet server v27.00 (firmware)
Command interpretor v12.03 (firmware)
Electrode material :
Initial state :
Electrolyte :
Comments :
Electrode surface area : 0.001 cm²
Characteristic mass : 0.001 g
Equivalent Weight : 0.000 g/eq.
Density : 0.000 g/cm3
Volume (V) : 0.001 cm³
Cycle Definition : Charge/Discharge alternance
Mode                Single sine
E (V)               0.0000
vs.                 Eoc
tE (h:m:s)          0:00:0.0000
record              0
dI                  0.000
unit dI             mA
dt (s)              0.000
fi                  100.000
unit fi             kHz
ff                  10.000
unit ff             mHz
Nd                  6
Points              per decade
spacing             Logarithmic
Va (mV)             5.0
pw                  0.10
Na                  2
corr                0
E range min (V)     -10.000
E range max (V)     10.000
I Range             Auto
Bandwidth           5
nc cycles           0
goto Ns'            0
nr cycles           0
inc. cycle          0

freq/Hz	Re(Z)/Ohm	-Im(Z)/Ohm	|Z|/Ohm	Phase(Z)/deg	time/s	<Ewe>/V	<I>/mA	Cs/µF	Cp/µF	cycle number	I Range	|Ewe|/V	|I|/A	Ns	(Q-Qo)/mA.h	Re(Y)/Ohm-1	Im(Y)/Ohm-1	|Y|/Ohm-1	Phase(Y)/deg	Re(C)/nF	Im(C)/nF	|C|/nF	Phase(C)/deg	Re(M)	Im(M)	|M|	Phase(M)/deg	Re(Permittivity)	Im(Permittivity)	|Permittivity|	Phase(Permittivity)/deg	Re(Resistivity)/Ohm.cm	Im(Resistivity)/Ohm.cm	|Resistivity|/Ohm.cm	Phase(Resistivity)/deg	Re(Conductivity)/mS/cm	Im(Conductivity)/mS/cm	|Conductivity|/mS/cm	Phase(Conductivity)/deg	Tan(Delta)	Loss Angle(Delta)/deg	dq/mA.h	Pwe/W	Rwe/Ohm
100004	2.46808	0.8604	2.61376	-19.2191	2.22748	0.187932	0.0362056	1.84971	0.200435	1	9	0.00491555	0.00188065	0	2.41176e-06	0.361268	0.125942	0.382591	19.2191	200.435	574.955	608.89	-70.7809	0.0000000E+000	0.0000000E+000	0.0000000E+000	70.7809	0.0000000E+000	0.0000000E+000	0.0000000E+000	-70.7809	0.0000000E+000	0.0000000E+000	0.0000000E+000	-19.2191	0.0000000E+000	0.0000000E+000	0.0000000E+000	19.2191	2.86853	70.7809	2.41176e-06	6.8042e-06	5190.69
46420.4	2.88188	1.01736	3.05619	-19.4439	3.1015	0.187933	0.0381449	3.37007	0.373443	1	9	0.00536835	0.00175655	0	6.75286e-06	0.308544	0.108921	0.327205	19.4439	373.443	1057.86	1121.84	-70.5561	0.0000000E+000	0.0000000E+000	0.0000000E+000	70.5561	0.0000000E+000	0.0000000E+000	0.0000000E+000	-70.5561	0.0000000E+000	0.0000000E+000	0.0000000E+000	-19.4439	0.0000000E+000	0.0000000E+000	0.0000000E+000	19.4439	2.83272	70.5561	7.67422e-08	7.16867e-06	4926.81
21544.7	3.37979	1.26986	3.61048	-20.5923	3.97548	0.187954	0.0399536	5.81733	0.719626	1	9	0.00533963	0.00147893	0	1.75141e-05	0.259275	0.0974152	0.276972	20.5923	719.626	1915.32	2046.05	-69.4077	0.0000000E+000	0.0000000E+000	0.0000000E+000	69.4077	0.0000000E+000	0.0000000E+000	0.0000000E+000	-69.4077	0.0000000E+000	0.0000000E+000	0.0000000E+000	-20.5923	0.0000000E+000	0.0000000E+000	0.0000000E+000	20.5923	2.66155	69.4077	3.67753e-06	7.50946e-06	4704.32
10002.2	3.93145	1.60937	4.2481	-22.2622	5.16249	0.187958	-0.0124551	9.88705	1.41903	1	10	0.00487596	0.0011478	0	2.42309e-05	0.217853	0.08918	0.235399	22.2622	1419.03	3466.46	3745.66	-67.7378	0.0000000E+000	0.0000000E+000	0.0000000E+000	67.7378	0.0000000E+000	0.0000000E+000	0.0000000E+000	-67.7378	0.0000000E+000	0.0000000E+000	0.0000000E+000	-22.2622	0.0000000E+000	0.0000000E+000	0.0000000E+000	22.2622	2.44284	67.7378	6.15109e-07	-2.34103e-06	15090.8
4641.49	4.68198	2.15285	5.15322	-24.6937	6.41169	0.187956	-0.00430002	15.9276	2.77983	1	10	0.00511044	0.000991699	0	2.09463e-05	0.176308	0.0810692	0.194053	24.6937	2779.84	6045.54	6654.02	-65.3063	0.0000000E+000	0.0000000E+000	0.0000000E+000	65.3063	0.0000000E+000	0.0000000E+000	0.0000000E+000	-65.3063	0.0000000E+000	0.0000000E+000	0.0000000E+000	-24.6937	0.0000000E+000	0.0000000E+000	0.0000000E+000	24.6937	2.17478	65.3063	-1.72142e-06	-8.08214e-07	43710.4
2155.69	5.67306	2.96194	6.39974	-27.5694	7.34468	0.187961	-0.0044324	24.9263	5.33931	1	10	0.00517723	0.000808974	0	2.08114e-05	0.138514	0.0723189	0.156256	27.5694	5339.31	10226.5	11536.4	-62.4306	0.0000000E+000	0.0000000E+000	0.0000000E+000	62.4306	0.0000000E+000	0.0000000E+000	0.0000000E+000	-62.4306	0.0000000E+000	0.0000000E+000	0.0000000E+000	-27.5694	0.0000000E+000	0.0000000E+000	0.0000000E+000	27.5694	1.91532	62.4306	-2.00299e-07	-8.3312e-07	42406.2
1000.32	7.07416	4.26573	8.26076	-31.0901	8.28068	0.187955	-0.00419935	37.2982	9.94568	1	10	0.00499397	0.000604541	0	1.98666e-05	0.103666	0.0625106	0.121054	31.0901	9945.68	16493.6	19260.2	-58.9099	0.0000000E+000	0.0000000E+000	0.0000000E+000	58.9099	0.0000000E+000	0.0000000E+000	0.0000000E+000	-58.9099	0.0000000E+000	0.0000000E+000	0.0000000E+000	-31.0901	0.0000000E+000	0.0000000E+000	0.0000000E+000	31.0901	1.65837	58.9099	-1.25849e-07	-7.89291e-07	44758.2
463.961	9.22527	6.16199	11.094	-33.7408	9.21522	0.187947	-0.00399986	55.6695	17.1746	1	10	0.00489196	0.000440957	0	1.89473e-05	0.074956	0.0500667	0.0901392	33.7408	17174.6	25712.6	30920.9	-56.2592	0.0000000E+000	0.0000000E+000	0.0000000E+000	56.2592	0.0000000E+000	0.0000000E+000	0.0000000E+000	-56.2592	0.0000000E+000	0.0000000E+000	0.0000000E+000	-33.7408	0.0000000E+000	0.0000000E+000	0.0000000E+000	33.7408	1.49712	56.2592	-3.74524e-07	-7.51764e-07	46988.4
215.345	12.8271	8.56579	15.4242	-33.7346	10.1494	0.187948	-0.00387122	86.2818	26.6102	1	10	0.00484437	0.000314076	0	1.8464e-05	0.0539165	0.0360049	0.0648331	33.7346	26610.2	39848.1	47916.3	-56.2654	0.0000000E+000	0.0000000E+000	0.0000000E+000	56.2654	0.0000000E+000	0.0000000E+000	0.0000000E+000	-56.2654	0.0000000E+000	0.0000000E+000	0.0000000E+000	-33.7346	0.0000000E+000	0.0000000E+000	0.0000000E+000	33.7346	1.49748	56.2654	-2.59717e-07	-7.27588e-07	48550
100.032	18.4079	10.4383	21.1615	-29.5556	11.0807	0.18795	-0.00380783	152.423	37.0867	1	10	0.00482752	0.000228127	0	1.72441e-05	0.0411066	0.0233097	0.0472556	29.5556	37086.7	65402.2	75185.6	-60.4444	0.0000000E+000	0.0000000E+000	0.0000000E+000	60.4444	0.0000000E+000	0.0000000E+000	0.0000000E+000	-60.4444	0.0000000E+000	0.0000000E+000	0.0000000E+000	-29.5556	0.0000000E+000	0.0000000E+000	0.0000000E+000	29.5556	1.7635	60.4444	-6.44968e-07	-7.15683e-07	49358.9
46.4415	25.0593	10.1685	27.0438	-22.0863	12.2735	0.187967	-0.00735518	337.02	47.6471	1	11	0.00482784	0.000178519	0	1.53294e-05	0.0342636	0.0139035	0.0369771	22.0863	47647.1	117421	126720	-67.9137	0.0000000E+000	0.0000000E+000	0.0000000E+000	67.9137	0.0000000E+000	0.0000000E+000	0.0000000E+000	-67.9137	0.0000000E+000	0.0000000E+000	0.0000000E+000	-22.0863	0.0000000E+000	0.0000000E+000	0.0000000E+000	22.0863	2.4644	67.9137	-8.42205e-07	-1.38253e-06	25555.8
[...]
1.00006	35.8715	2.61986	35.967	-4.17716	21.0341	0.187978	-0.00545569	60745.5	322.301	1	12	0.00483028	0.000134298	0	-1.84861e-06	0.0277294	0.00202521	0.0278033	4.17716	322301	4.41299e+06	4.42474e+06	-85.8228	0.0000000E+000	0.0000000E+000	0.0000000E+000	85.8228	0.0000000E+000	0.0000000E+000	0.0000000E+000	-85.8228	0.0000000E+000	0.0000000E+000	0.0000000E+000	-4.17716	0.0000000E+000	0.0000000E+000	0.0000000E+000	4.17716	13.6921	85.8228	-2.15065e-06	-1.02555e-06	34455.5
0.464091	37.0373	3.07344	37.1646	-4.74366	28.7188	0.187975	-0.00496589	111582	763.102	1	12	0.00482398	0.0001298	0	9.74956e-07	0.0268152	0.00222518	0.0269073	4.74366	763103	9.19597e+06	9.22758e+06	-85.2563	0.0000000E+000	0.0000000E+000	0.0000000E+000	85.2563	0.0000000E+000	0.0000000E+000	0.0000000E+000	-85.2563	0.0000000E+000	0.0000000E+000	0.0000000E+000	-4.74366	0.0000000E+000	0.0000000E+000	0.0000000E+000	4.74366	12.0508	85.2563	2.14382e-06	-9.3346e-07	37853.2
0.215268	38.6844	3.70198	38.8611	-5.46639	45.1987	0.18798	-0.00297826	199713	1812.36	1	12	0.00483243	0.000124351	0	-1.16462e-05	0.0256156	0.00245134	0.0257327	5.46639	1.81236e+06	1.89385e+07	1.9025e+07	-84.5336	0.0000000E+000	0.0000000E+000	0.0000000E+000	84.5336	0.0000000E+000	0.0000000E+000	0.0000000E+000	-84.5336	0.0000000E+000	0.0000000E+000	0.0000000E+000	-5.46639	0.0000000E+000	0.0000000E+000	0.0000000E+000	5.46639	10.4496	84.5336	-1.14153e-05	-5.59856e-07	63117.4
0.0999041	40.278	4.55432	40.5347	-6.45116	80.6041	0.187993	-0.00182464	349794	4415.78	1	12	0.00483087	0.000119179	0	-8.39515e-05	0.024514	0.00277186	0.0246702	6.45116	4.41578e+06	3.90527e+07	3.93016e+07	-83.5488	0.0000000E+000	0.0000000E+000	0.0000000E+000	83.5488	0.0000000E+000	0.0000000E+000	0.0000000E+000	-83.5488	0.0000000E+000	0.0000000E+000	0.0000000E+000	-6.45116	0.0000000E+000	0.0000000E+000	0.0000000E+000	6.45116	8.8439	83.5488	-4.50021e-05	-3.43019e-07	103030
0.0464052	42.0935	6.65416	42.6162	-8.98301	156.84	0.187993	-0.00230141	515419	12566	1	12	0.00482832	0.000113298	0	-0.000197495	0.0231774	0.0036639	0.0234653	8.98301	1.2566e+07	7.94912e+07	8.04783e+07	-81.017	0.0000000E+000	0.0000000E+000	0.0000000E+000	81.017	0.0000000E+000	0.0000000E+000	0.0000000E+000	-81.017	0.0000000E+000	0.0000000E+000	0.0000000E+000	-8.98301	0.0000000E+000	0.0000000E+000	0.0000000E+000	8.98301	6.32589	81.017	-5.51752e-05	-4.32649e-07	81685.7
0.0215268	44.1868	11.2902	45.6064	-14.333	321.07	0.187988	-0.00186548	654848	40131.9	1	12	0.004832	0.00010595	0	-0.000146678	0.0212442	0.00542811	0.0219267	14.333	4.01319e+07	1.57066e+08	1.62112e+08	-75.667	0.0000000E+000	0.0000000E+000	0.0000000E+000	75.667	0.0000000E+000	0.0000000E+000	0.0000000E+000	-75.667	0.0000000E+000	0.0000000E+000	0.0000000E+000	-14.333	0.0000000E+000	0.0000000E+000	0.0000000E+000	14.333	3.91375	75.667	6.55874e-05	-3.50688e-07	100771
0.0100092	48.7573	19.2268	52.4113	-21.5212	674.284	0.187994	-0.000577574	827017	111296	1	12	0.00483155	9.21853e-05	0	0.000144568	0.0177496	0.00699935	0.0190799	21.5212	1.11296e+08	2.82236e+08	3.03387e+08	-68.4788	0.0000000E+000	0.0000000E+000	0.0000000E+000	68.4788	0.0000000E+000	0.0000000E+000	0.0000000E+000	-68.4788	0.0000000E+000	0.0000000E+000	0.0000000E+000	-21.5212	0.0000000E+000	0.0000000E+000	0.0000000E+000	21.5212	2.5359	68.4788	0.000145363	-1.0858e-07	325488

File: 17385_R279_UA648_SOC00_C04.mpt
EC-Lab ASCII FILE
Nb header lines : 63

Potentio Electrochemical Impedance Spectroscopy

Run on channel : 4 (SN 66756)
User :
CE vs. WE compliance from -10 V to 10 V
Electrode connection : standard
Potential control : Ewe
Ewe ctrl range : min = -10.00 V, max = 10.00 V
Safety Limits :
	Do not start on E overload
Acquisition started on : 09/10/2025 16:53:49.045
Loaded Setting File :  C:\Users\Celltest\OneDrive - store-dot.com\Documents\EC-Lab\Data\Charmaine\R279\17382.mps
Saved on :
	File : 17385_C04.mpr
	Directory : C:\Users\Celltest\OneDrive - store-dot.com\Documents\EC-Lab\Data\Charmaine\R279\
	Host : 169.254.61.224
Device : VMP-3e (SN .003165)
Address : USB
EC-LAB for windows v11.62 (software)
Internet server v27.00 (firmware)
Command interpretor v12.03 (firmware)
Electrode material :
Initial state :
Electrolyte :
Comments :
Electrode surface area : 0.001 cm²
Characteristic mass : 0.001 g
Equivalent Weight : 0.000 g/eq.
Density : 0.000 g/cm3
Volume (V) : 0.001 cm³
Cycle Definition : Charge/Discharge alternance
Mode                Single sine
E (V)               0.0000
vs.                 Eoc
tE (h:m:s)          0:00:0.0000
record              0
dI                  0.000
unit dI             mA
dt (s)              0.000
fi                  100.000
unit fi             kHz
ff                  10.000
unit ff             mHz
Nd                  6
Points              per decade
spacing             Logarithmic
Va (mV)             5.0
pw                  0.10
Na                  2
corr                0
E range min (V)     -10.000
E range max (V)     10.000
I Range             Auto
Bandwidth           5
nc cycles           0
goto Ns'            0
nr cycles           0
inc. cycle          0

freq/Hz	Re(Z)/Ohm	-Im(Z)/Ohm	|Z|/Ohm	Phase(Z)/deg	time/s	<Ewe>/V	<I>/mA	Cs/µF	Cp/µF	cycle number	I Range	|Ewe|/V	|I|/A	Ns	(Q-Qo)/mA.h	Re(Y)/Ohm-1	Im(Y)/Ohm-1	|Y|/Ohm-1	Phase(Y)/deg	Re(C)/nF	Im(C)/nF	|C|/nF	Phase(C)/deg	Re(M)	Im(M)	|M|	Phase(M)/deg	Re(Permittivity)	Im(Permittivity)	|Permittivity|	Phase(Permittivity)/deg	Re(Resistivity)/Ohm.cm	Im(Resistivity)/Ohm.cm	|Resistivity|/Ohm.cm	Phase(Resistivity)/deg	Re(Conductivity)/mS/cm	Im(Conductivity)/mS/cm	|Conductivity|/mS/cm	Phase(Conductivity)/deg	Tan(Delta)	Loss Angle(Delta)/deg	dq/mA.h	Pwe/W	Rwe/Ohm
100004	2.42447	0.803214	2.55406	-18.3297	2.22648	0.185627	-0.00964532	1.9814	0.195962	1	9	0.00493144	0.00193082	0	-5.6956e-06	0.371668	0.123131	0.391533	18.3297	195.962	591.506	623.122	-71.6703	0.0000000E+000	0.0000000E+000	0.0000000E+000	71.6703	0.0000000E+000	0.0000000E+000	0.0000000E+000	-71.6703	0.0000000E+000	0.0000000E+000	0.0000000E+000	-18.3297	0.0000000E+000	0.0000000E+000	0.0000000E+000	18.3297	3.01847	71.6703	-5.6956e-06	-1.79044e-06	19245.3
46420.4	2.79725	0.992024	2.96795	-19.5267	3.10049	0.185631	-0.00835857	3.45613	0.386118	1	9	0.00534294	0.00180021	0	-9.24528e-06	0.317554	0.112618	0.336933	19.5267	386.118	1088.75	1155.19	-70.4733	0.0000000E+000	0.0000000E+000	0.0000000E+000	70.4733	0.0000000E+000	0.0000000E+000	0.0000000E+000	-70.4733	0.0000000E+000	0.0000000E+000	0.0000000E+000	-19.5267	0.0000000E+000	0.0000000E+000	0.0000000E+000	19.5267	2.81974	70.4733	-4.12515e-07	-1.55161e-06	22208.4
21544.7	3.25556	1.25316	3.48842	-21.0532	3.97448	0.185627	-0.0126291	5.89484	0.760728	1	9	0.00537533	0.00154091	0	-1.42304e-05	0.267527	0.102979	0.286662	21.0532	760.728	1976.28	2117.63	-68.9468	0.0000000E+000	0.0000000E+000	0.0000000E+000	68.9468	0.0000000E+000	0.0000000E+000	0.0000000E+000	-68.9468	0.0000000E+000	0.0000000E+000	0.0000000E+000	-21.0532	0.0000000E+000	0.0000000E+000	0.0000000E+000	21.0532	2.59787	68.9468	2.82278e-07	-2.34431e-06	14698.3
10002.2	3.84545	1.64033	4.18069	-23.1013	4.84848	0.185626	-0.0134497	9.70048	1.49334	1	9	0.00533626	0.00127641	0	-1.99996e-05	0.220015	0.0938501	0.239195	23.1013	1493.34	3500.86	3806.06	-66.8987	0.0000000E+000	0.0000000E+000	0.0000000E+000	66.8987	0.0000000E+000	0.0000000E+000	0.0000000E+000	-66.8987	0.0000000E+000	0.0000000E+000	0.0000000E+000	-23.1013	0.0000000E+000	0.0000000E+000	0.0000000E+000	23.1013	2.34432	66.8987	-3.26883e-06	-2.49661e-06	13801.5
4641.49	4.62128	2.249	5.13948	-25.9504	6.30468	0.185635	-0.0076006	15.2467	2.91954	1	10	0.00511761	0.000995745	0	-2.54647e-05	0.174954	0.0851434	0.194572	25.9504	2919.54	5999.12	6671.82	-64.0496	0.0000000E+000	0.0000000E+000	0.0000000E+000	64.0496	0.0000000E+000	0.0000000E+000	0.0000000E+000	-64.0496	0.0000000E+000	0.0000000E+000	0.0000000E+000	-25.9504	0.0000000E+000	0.0000000E+000	0.0000000E+000	25.9504	2.05482	64.0496	-1.12912e-06	-1.41094e-06	24423.7
2155.69	5.66671	3.17825	6.49714	-29.2865	7.46167	0.185637	-0.00804637	23.2298	5.55874	1	10	0.00513455	0.000790278	0	-2.72409e-05	0.134241	0.075291	0.153914	29.2865	5558.75	9911.06	11363.5	-60.7135	0.0000000E+000	0.0000000E+000	0.0000000E+000	60.7135	0.0000000E+000	0.0000000E+000	0.0000000E+000	-60.7135	0.0000000E+000	0.0000000E+000	0.0000000E+000	-29.2865	0.0000000E+000	0.0000000E+000	0.0000000E+000	29.2865	1.78297	60.7135	-3.30094e-07	-1.4937e-06	23070.9
1000.32	7.11559	4.55092	8.44645	-32.6018	8.39771	0.185641	-0.00795499	34.9608	10.1492	1	10	0.00486198	0.000575624	0	-2.93945e-05	0.0997384	0.0637897	0.118393	32.6018	10149.2	15868.8	18836.8	-57.3982	0.0000000E+000	0.0000000E+000	0.0000000E+000	57.3982	0.0000000E+000	0.0000000E+000	0.0000000E+000	-57.3982	0.0000000E+000	0.0000000E+000	0.0000000E+000	-32.6018	0.0000000E+000	0.0000000E+000	0.0000000E+000	32.6018	1.56355	57.3982	-9.36079e-07	-1.47677e-06	23336.4
463.961	9.39612	6.61881	11.4933	-35.1616	9.33222	0.185624	-0.00812658	51.8273	17.1882	1	10	0.00470491	0.000409362	0	-3.14869e-05	0.0711311	0.0501062	0.0870073	35.1616	17188.2	24400.5	29846.6	-54.8384	0.0000000E+000	0.0000000E+000	0.0000000E+000	54.8384	0.0000000E+000	0.0000000E+000	0.0000000E+000	-54.8384	0.0000000E+000	0.0000000E+000	0.0000000E+000	-35.1616	0.0000000E+000	0.0000000E+000	0.0000000E+000	35.1616	1.41961	54.8384	-8.05003e-07	-1.50849e-06	22841.6
215.345	13.1983	9.34299	16.1706	-35.2944	10.2664	0.185633	-0.00749805	79.1044	26.4072	1	10	0.00464792	0.000287431	0	-3.32751e-05	0.0504741	0.0357302	0.0618408	35.2944	26407.2	37303.9	45704.7	-54.7056	0.0000000E+000	0.0000000E+000	0.0000000E+000	54.7056	0.0000000E+000	0.0000000E+000	0.0000000E+000	-54.7056	0.0000000E+000	0.0000000E+000	0.0000000E+000	-35.2944	0.0000000E+000	0.0000000E+000	0.0000000E+000	35.2944	1.41264	54.7056	-1.00605e-06	-1.39189e-06	24757.5
100.032	19.3728	11.7453	22.6552	-31.2275	11.4517	0.185651	-0.00497914	135.462	36.409	1	11	0.004644	0.000204986	0	-3.55711e-05	0.0377447	0.0228838	0.0441399	31.2275	36409	60053.4	70228.4	-58.7725	0.0000000E+000	0.0000000E+000	0.0000000E+000	58.7725	0.0000000E+000	0.0000000E+000	0.0000000E+000	-58.7725	0.0000000E+000	0.0000000E+000	0.0000000E+000	-31.2275	0.0000000E+000	0.0000000E+000	0.0000000E+000	31.2275	1.64941	58.7725	-1.28083e-06	-9.24382e-07	37285.8
[...]
1.00006	39.7947	3.29213	39.9307	-4.72918	21.1483	0.185672	-0.00239625	48341	328.591	1	12	0.00462009	0.000115703	0	-4.79055e-05	0.0249581	0.00206473	0.0250434	4.72918	328591	3.97196e+06	3.98553e+06	-85.2708	0.0000000E+000	0.0000000E+000	0.0000000E+000	85.2708	0.0000000E+000	0.0000000E+000	0.0000000E+000	-85.2708	0.0000000E+000	0.0000000E+000	0.0000000E+000	-4.72918	0.0000000E+000	0.0000000E+000	0.0000000E+000	4.72918	12.0879	85.2708	-5.52507e-06	-4.44918e-07	77484.5
0.464091	41.5442	3.90242	41.7271	-5.36628	28.8336	0.18566	-0.0026908	87878.6	768.626	1	12	0.0046249	0.000110837	0	-5.73372e-05	0.0238602	0.00224129	0.0239652	5.36628	768626	8.1826e+06	8.21862e+06	-84.6337	0.0000000E+000	0.0000000E+000	0.0000000E+000	84.6337	0.0000000E+000	0.0000000E+000	0.0000000E+000	-84.6337	0.0000000E+000	0.0000000E+000	0.0000000E+000	-5.36628	0.0000000E+000	0.0000000E+000	0.0000000E+000	5.36628	10.6458	84.6337	-3.41749e-06	-4.99573e-07	68998
0.215268	43.5081	4.38589	43.7286	-5.75633	45.3118	0.185663	-0.00237453	168571	1695.77	1	12	0.00462104	0.000105675	0	-4.75338e-05	0.022753	0.00229364	0.0228683	5.75633	1.69577e+06	1.68221e+07	1.69073e+07	-84.2437	0.0000000E+000	0.0000000E+000	0.0000000E+000	84.2437	0.0000000E+000	0.0000000E+000	0.0000000E+000	-84.2437	0.0000000E+000	0.0000000E+000	0.0000000E+000	-5.75633	0.0000000E+000	0.0000000E+000	0.0000000E+000	5.75633	9.92002	84.2437	7.58676e-06	-4.40862e-07	78189.3
0.0999041	45.4874	5.01791	45.7634	-6.29508	80.7174	0.185661	-0.000803459	317478	3817.01	1	12	0.00462123	0.000100981	0	-3.4884e-05	0.0217198	0.002396	0.0218515	6.29508	3.81701e+06	3.46013e+07	3.48112e+07	-83.7049	0.0000000E+000	0.0000000E+000	0.0000000E+000	83.7049	0.0000000E+000	0.0000000E+000	0.0000000E+000	-83.7049	0.0000000E+000	0.0000000E+000	0.0000000E+000	-6.29508	0.0000000E+000	0.0000000E+000	0.0000000E+000	6.29508	9.06502	83.7049	3.10107e-06	-1.49171e-07	231078
0.0464052	47.2057	7.02069	47.7249	-8.45933	156.954	0.18566	7.10399e-05	488510	10571.7	1	12	0.00462142	9.68346e-05	0	-9.38015e-05	0.0207255	0.0030824	0.0209534	8.45933	1.05717e+07	7.10817e+07	7.18635e+07	-81.5407	0.0000000E+000	0.0000000E+000	0.0000000E+000	81.5407	0.0000000E+000	0.0000000E+000	0.0000000E+000	-81.5407	0.0000000E+000	0.0000000E+000	0.0000000E+000	-8.45933	0.0000000E+000	0.0000000E+000	0.0000000E+000	8.45933	6.7238	81.5407	-4.67385e-05	1.31893e-08	2.61346e+06
0.0215268	49.8156	11.1609	51.0506	-12.6282	321.183	0.185661	-0.000649285	662433	31662	1	12	0.00462201	9.05379e-05	0	-0.000288617	0.0191146	0.0042825	0.0195884	12.6282	3.1662e+07	1.4132e+08	1.44824e+08	-77.3718	0.0000000E+000	0.0000000E+000	0.0000000E+000	77.3718	0.0000000E+000	0.0000000E+000	0.0000000E+000	-77.3718	0.0000000E+000	0.0000000E+000	0.0000000E+000	-12.6282	0.0000000E+000	0.0000000E+000	0.0000000E+000	12.6282	4.46341	77.3718	-0.000107504	-1.20547e-07	285947
0.0100092	53.679	19.6672	57.1684	-20.1221	674.398	0.185652	-0.000809942	808499	95686.8	1	12	0.00462189	8.08468e-05	0	-0.000285056	0.0164245	0.00601769	0.0174922	20.1221	9.56868e+07	2.61164e+08	2.78141e+08	-69.8779	0.0000000E+000	0.0000000E+000	0.0000000E+000	69.8779	0.0000000E+000	0.0000000E+000	0.0000000E+000	-69.8779	0.0000000E+000	0.0000000E+000	0.0000000E+000	-20.1221	0.0000000E+000	0.0000000E+000	0.0000000E+000	20.1221	2.72937	69.8779	6.91775e-05	-1.50367e-07	229217