Folder: EIS/txt (part 142)

File: 18944_R308_UA705_SOC00_C01.mpt
EC-Lab ASCII FILE
Nb header lines : 66

Potentio Electrochemical Impedance Spectroscopy

Run on channel : 1 (SN 66354)
Grouped channel(s) : 1, 2, 3, 4, 5
User :
CE vs. WE compliance from -10 V to 10 V
Electrode connection : standard
Potential control : Ewe
Ewe ctrl range : min = -10.00 V, max = 10.00 V
Safety Limits :
	Do not start on E overload
Acquisition started on : 11/04/2025 15:30:07.703
Loaded Setting File :  C:\Users\Celltest\OneDrive - store-dot.com\Documents\EC-Lab\Data\@Biologic Test Protocols\anode half cell EIS SOC00.mps
Saved on :
	File : 18944_R308_UA705_SOC00_C01.mpr
	Directory : C:\Users\Celltest\OneDrive - store-dot.com\Documents\EC-Lab\Data\Charmaine\
	Host : 169.254.61.224
Device : VMP-3e (SN .003165)
Address : USB
EC-LAB for windows v11.62 (software)
Internet server v27.00 (firmware)
Command interpretor v12.03 (firmware)
Electrode material :
Initial state :
Electrolyte :
Comments :
Electrode surface area : 0.001 cm²
Characteristic mass : 0.001 g
Equivalent Weight : 0.000 g/eq.
Density : 0.000 g/cm3
Volume (V) : 0.001 cm³
Record Ece
Cycle Definition : Charge/Discharge alternance
Mode                Single sine
E (V)               0.0000
vs.                 Eoc
tE (h:m:s)          0:00:0.0000
record              0
dI                  0.000
unit dI             mA
dt (s)              0.000
fi                  100.000
unit fi             kHz
ff                  10.000
unit ff             mHz
Nd                  6
Points              per decade
spacing             Logarithmic
Va (mV)             5.0
pw                  0.10
Na                  2
corr                0
E range min (V)     -10.000
E range max (V)     10.000
I Range             Auto
Bandwidth           5
nc cycles           0
goto Ns'            0
nr cycles           0
inc. cycle          0

freq/Hz	Re(Z)/Ohm	-Im(Z)/Ohm	|Z|/Ohm	Phase(Z)/deg	time/s	<Ewe>/V	<I>/mA	Cs/µF	Cp/µF	cycle number	I Range	|Ewe|/V	|I|/A	Ns	(Q-Qo)/mA.h	<Ece>/V	|Ece|/V	Phase(Zce)/deg	|Zce|/Ohm	Re(Zce)/Ohm	-Im(Zce)/Ohm	Phase(Zwe-ce)/deg	|Zwe-ce|/Ohm	Re(Zwe-ce)/Ohm	-Im(Zwe-ce)/Ohm	Re(Y)/Ohm-1	Im(Y)/Ohm-1	|Y|/Ohm-1	Phase(Y)/deg	Re(C)/nF	Im(C)/nF	|C|/nF	Phase(C)/deg	Re(M)	Im(M)	|M|	Phase(M)/deg	Re(Permittivity)	Im(Permittivity)	|Permittivity|	Phase(Permittivity)/deg	Re(Resistivity)/Ohm.cm	Im(Resistivity)/Ohm.cm	|Resistivity|/Ohm.cm	Phase(Resistivity)/deg	Re(Conductivity)/mS/cm	Im(Conductivity)/mS/cm	|Conductivity|/mS/cm	Phase(Conductivity)/deg	Tan(Delta)	Loss Angle(Delta)/deg	dq/mA.h	Pwe/W	Pce/W	Pwe-ce/W	<Ewe-Ece>/V	Rwe/Ohm	Rce/Ohm	Rwe-ce/Ohm		Ewe-Ece/V
100004	2.08966	1.47456	2.55754	-35.2085	1.76856	0.197459	0.0444398	1.0793	0.358774	1	9	0.00455245	0.00178001	0	3.7256e-06	2.95724e-05	3.38665e-05	102.626	0.019026	-0.00415883	-0.0185659	-34.9208	2.54347	2.0855	1.45599	0.319471	0.225433	0.391001	35.2085	358.774	508.435	622.274	-54.7915	0.0000000E+000	0.0000000E+000	0.0000000E+000	54.7915	0.0000000E+000	0.0000000E+000	0.0000000E+000	-54.7915	0.0000000E+000	0.0000000E+000	0.0000000E+000	-35.2085	0.0000000E+000	0.0000000E+000	0.0000000E+000	35.2085	1.41714	54.7915	3.7256e-06	8.77503e-06	1.31419e-09	8.77372e-06	0.197429	4443.28	0.665449	4442.62
31621.1	3.56435	2.53134	4.37176	-35.3817	3.16753	0.197423	0.0368399	1.98835	0.666624	1	9	0.00497238	0.00113739	0	2.16574e-05	-2.76595e-05	7.67343e-06	-27.3407	0.00674655	0.00599291	0.00309856	-35.3694	4.37844	3.57034	2.53444	0.186495	0.132446	0.228741	35.3817	666.624	938.665	1151.29	-54.6183	0.0000000E+000	0.0000000E+000	0.0000000E+000	54.6183	0.0000000E+000	0.0000000E+000	0.0000000E+000	-54.6183	0.0000000E+000	0.0000000E+000	0.0000000E+000	-35.3817	0.0000000E+000	0.0000000E+000	0.0000000E+000	35.3817	1.40809	54.6183	4.82906e-06	7.27303e-06	-1.01897e-09	7.27405e-06	0.19745	5358.93	0.750802	5359.68
10002.2	5.90703	3.43925	6.83531	-30.2093	4.47353	0.197559	-0.0136485	4.62658	1.17131	1	10	0.00500103	0.000731646	0	2.00275e-05	-8.48914e-05	5.55013e-06	-70.6012	0.00758581	0.00251956	0.00715516	-30.2504	6.84109	5.90955	3.4464	0.126431	0.0736119	0.146299	30.2093	1171.31	2011.76	2327.91	-59.7907	0.0000000E+000	0.0000000E+000	0.0000000E+000	59.7907	0.0000000E+000	0.0000000E+000	0.0000000E+000	-59.7907	0.0000000E+000	0.0000000E+000	0.0000000E+000	-30.2093	0.0000000E+000	0.0000000E+000	0.0000000E+000	30.2093	1.71753	59.7907	-3.99254e-07	-2.69638e-06	1.15864e-09	-2.69754e-06	0.197644	14474.8	6.21984	14481
3163.08	8.58332	4.18636	9.54982	-26	5.37168	0.197411	-0.00347768	12.0191	2.30971	1	10	0.00470448	0.000492625	0	1.68695e-05	6.7727e-05	8.38477e-06	-43.0318	0.0170206	0.0124416	0.0116149	-26.0298	9.56609	8.59576	4.19798	0.0941164	0.0459036	0.104714	26	2309.71	4735.6	5268.84	-64	0.0000000E+000	0.0000000E+000	0.0000000E+000	64	0.0000000E+000	0.0000000E+000	0.0000000E+000	-64	0.0000000E+000	0.0000000E+000	0.0000000E+000	-26	0.0000000E+000	0.0000000E+000	0.0000000E+000	26	2.05031	64	-2.60652e-07	-6.86531e-07	-2.35533e-10	-6.86296e-07	0.197343	56764.9	19.4748	56745.5
1000.32	11.5465	5.62293	12.8428	-25.9653	6.72478	0.197455	0.0104499	28.2956	5.42403	1	10	0.00460231	0.000358356	0	2.02533e-05	0.000182191	8.95487e-06	93.8372	0.0249887	-0.00167231	-0.0249327	-25.8685	12.8304	11.5448	5.598	0.0700048	0.0340911	0.0778644	25.9653	5424.03	11138	12388.5	-64.0347	0.0000000E+000	0.0000000E+000	0.0000000E+000	64.0347	0.0000000E+000	0.0000000E+000	0.0000000E+000	-64.0347	0.0000000E+000	0.0000000E+000	0.0000000E+000	-25.9653	0.0000000E+000	0.0000000E+000	0.0000000E+000	25.9653	2.05346	64.0347	1.08516e-06	2.06339e-06	1.90387e-09	2.06148e-06	0.197273	18895.5	17.4347	18878
316.316	15.9822	8.85677	18.2722	-28.9936	8.075	0.197449	0.00982748	56.8099	13.3473	1	10	0.00456453	0.000249807	0	2.34807e-05	0.000411119	4.17859e-06	-36.8837	0.0167272	0.0133794	0.0100396	-29.0008	18.2888	15.9956	8.86681	0.047869	0.0265273	0.0547279	28.9936	13347.3	24085.4	27536.4	-61.0064	0.0000000E+000	0.0000000E+000	0.0000000E+000	61.0064	0.0000000E+000	0.0000000E+000	0.0000000E+000	-61.0064	0.0000000E+000	0.0000000E+000	0.0000000E+000	-28.9936	0.0000000E+000	0.0000000E+000	0.0000000E+000	28.9936	1.80452	61.0064	9.69781e-07	1.94043e-06	4.04026e-09	1.93639e-06	0.197038	20091.5	41.8336	20049.7
100.032	25.421	12.5045	28.33	-26.1925	9.66584	0.197493	-0.00176145	127.237	24.7888	1	11	0.00457538	0.000161503	0	2.43961e-05	0.000277577	8.24317e-06	-6.39769	0.0510404	0.0507225	0.00568738	-26.1576	28.378	25.4717	12.5102	0.0316737	0.0155802	0.0352983	26.1925	24788.8	50394.2	56161	-63.8075	0.0000000E+000	0.0000000E+000	0.0000000E+000	63.8075	0.0000000E+000	0.0000000E+000	0.0000000E+000	-63.8075	0.0000000E+000	0.0000000E+000	0.0000000E+000	-26.1925	0.0000000E+000	0.0000000E+000	0.0000000E+000	26.1925	2.03294	63.8075	-1.39119e-07	-3.47874e-07	-4.8894e-10	-3.47385e-07	0.197215	112119	157.584	111962
31.6296	36.4846	9.91296	37.8074	-15.2004	10.9945	0.197487	-0.00207389	507.603	34.8962	1	11	0.00456085	0.000120634	0	2.40134e-05	-0.000123046	1.20148e-05	-21.6617	0.0995969	0.0925633	0.0367639	-15.2174	37.9063	36.5772	9.94972	0.0255245	0.00693507	0.0264499	15.2004	34896.2	128435	133092	-74.7996	0.0000000E+000	0.0000000E+000	0.0000000E+000	74.7996	0.0000000E+000	0.0000000E+000	0.0000000E+000	-74.7996	0.0000000E+000	0.0000000E+000	0.0000000E+000	-15.2004	0.0000000E+000	0.0000000E+000	0.0000000E+000	15.2004	3.6805	74.7996	3.3764e-08	-4.09566e-07	2.55184e-10	-4.09821e-07	0.19761	95225.3	59.331	95284.7
[...]
0.316193	46.36	3.67765	46.5056	-4.53567	33.505	0.197523	0.000222902	136866	855.909	1	12	0.00456559	9.81729e-05	0	2.15489e-05	0.000144036	2.69763e-06	1.01845	0.0274784	0.027474	-0.000488409	-4.5324	46.533	46.3875	3.67717	0.0214354	0.00170043	0.0215028	4.53567	855909	1.07895e+07	1.08234e+07	-85.4643	0.0000000E+000	0.0000000E+000	0.0000000E+000	85.4643	0.0000000E+000	0.0000000E+000	0.0000000E+000	-85.4643	0.0000000E+000	0.0000000E+000	0.0000000E+000	-4.53567	0.0000000E+000	0.0000000E+000	0.0000000E+000	4.53567	12.6059	85.4643	-6.60471e-06	4.40284e-08	3.2106e-11	4.39963e-08	0.197379	886144	646.186	885498
0.0999041	48.6293	5.65338	48.9568	-6.63113	78.7137	0.197516	-0.00159776	281792	3757.67	1	12	0.00456587	9.32633e-05	0	-2.10801e-05	-0.000123046	2.02807e-06	24.2682	0.0217456	0.019824	-0.00893763	-6.61807	48.9755	48.6491	5.64444	0.0202895	0.00235875	0.0204262	6.63113	3.75767e+06	3.23228e+07	3.25405e+07	-83.3689	0.0000000E+000	0.0000000E+000	0.0000000E+000	83.3689	0.0000000E+000	0.0000000E+000	0.0000000E+000	-83.3689	0.0000000E+000	0.0000000E+000	0.0000000E+000	-6.63113	0.0000000E+000	0.0000000E+000	0.0000000E+000	6.63113	8.60181	83.3689	-1.35089e-05	-3.15583e-07	1.96598e-10	-3.15779e-07	0.197639	123620	77.0115	123697
0.0315922	51.5734	11.9976	52.9505	-13.0958	221.597	0.197523	-0.00185207	419901	21557.2	1	12	0.00456471	8.62071e-05	0	4.31581e-05	0.000372964	2.76024e-06	-23.0678	0.0320187	0.0294586	0.0125456	-13.1018	52.982	51.6028	12.0101	0.0183944	0.0042791	0.0188856	13.0958	2.15572e+07	9.26671e+07	9.51415e+07	-76.9042	0.0000000E+000	0.0000000E+000	0.0000000E+000	76.9042	0.0000000E+000	0.0000000E+000	0.0000000E+000	-76.9042	0.0000000E+000	0.0000000E+000	0.0000000E+000	-13.0958	0.0000000E+000	0.0000000E+000	0.0000000E+000	13.0958	4.29866	76.9042	4.37854e-05	-3.65825e-07	-6.90754e-10	-3.65134e-07	0.19715	106650	201.377	106449
0.0146812	56.3784	22.0595	60.5404	-21.3692	462.637	0.197514	-0.00207153	491432	65247.6	1	12	0.00456462	7.53979e-05	0	-2.55737e-05	1.04951e-05	2.88478e-06	-2.51723	0.0382608	0.0382238	0.0016804	-21.3575	60.5766	56.4166	22.0612	0.0153823	0.00601873	0.0165179	21.3692	6.52476e+07	1.66756e+08	1.79066e+08	-68.6308	0.0000000E+000	0.0000000E+000	0.0000000E+000	68.6308	0.0000000E+000	0.0000000E+000	0.0000000E+000	-68.6308	0.0000000E+000	0.0000000E+000	0.0000000E+000	-21.3692	0.0000000E+000	0.0000000E+000	0.0000000E+000	21.3692	2.55574	68.6308	-8.92869e-05	-4.09156e-07	-2.17409e-11	-4.09135e-07	0.197504	95347.2	5.06637	95342.1

0.0100092	59.757	29.1001	66.4659	-25.9648	672.818	0.19752	-0.00242733	546422	104741	1	12	0.00456621	6.87001e-05	0	-0.000310458	8.68044e-05	2.22339e-06	12.2541	0.0323638	0.0316264	-0.00686913	-25.9476	66.4913	59.7886	29.0932	0.0135267	0.00658713	0.0150453	25.9648	1.04741e+08	2.15087e+08	2.39234e+08	-64.0352	0.0000000E+000	0.0000000E+000	0.0000000E+000	64.0352	0.0000000E+000	0.0000000E+000	0.0000000E+000	-64.0352	0.0000000E+000	0.0000000E+000	0.0000000E+000	-25.9648	0.0000000E+000	0.0000000E+000	0.0000000E+000	25.9648	2.0535	64.0352	-0.000284884	-4.79446e-07	-2.10703e-10	-4.79235e-07	0.197433	81373.2	35.7612	81337.5

File: 18945_R308_UA705_SOC00_C02.mpt
EC-Lab ASCII FILE
Nb header lines : 65

Potentio Electrochemical Impedance Spectroscopy

Run on channel : 2 (SN 66139)
Grouped channel(s) : 1, 2, 3, 4, 5
User :
CE vs. WE compliance from -10 V to 10 V
Electrode connection : standard
Potential control : Ewe
Ewe ctrl range : min = -10.00 V, max = 10.00 V
Safety Limits :
	Do not start on E overload
Acquisition started on : 11/04/2025 15:30:07.703
Loaded Setting File :  C:\Users\Celltest\OneDrive - store-dot.com\Documents\EC-Lab\Data\@Biologic Test Protocols\anode half cell EIS SOC00.mps
Saved on :
	File : 18944_R308_UA705_SOC00_C02.mpr
	Directory : C:\Users\Celltest\OneDrive - store-dot.com\Documents\EC-Lab\Data\Charmaine\
	Host : 169.254.61.224
Device : VMP-3e (SN .003165)
Address : USB
EC-LAB for windows v11.62 (software)
Internet server v27.00 (firmware)
Command interpretor v12.03 (firmware)
Electrode material :
Initial state :
Electrolyte :
Comments :
Electrode surface area : 0.001 cm²
Characteristic mass : 0.001 g
Equivalent Weight : 0.000 g/eq.
Density : 0.000 g/cm3
Volume (V) : 0.001 cm³
Record Ece
Cycle Definition : Charge/Discharge alternance
Mode                Single sine
E (V)               0.0000
vs.                 Eoc
tE (h:m:s)          0:00:0.0000
record              0
dI                  0.000
unit dI             mA
dt (s)              0.000
fi                  100.000
unit fi             kHz
ff                  10.000
unit ff             mHz
Nd                  6
Points              per decade
spacing             Logarithmic
Va (mV)             5.0
pw                  0.10
Na                  2
corr                0
E range min (V)     -10.000
E range max (V)     10.000
I Range             Auto
Bandwidth           5
nc cycles           0
goto Ns'            0
nr cycles           0
inc. cycle          0

freq/Hz	Re(Z)/Ohm	-Im(Z)/Ohm	|Z|/Ohm	Phase(Z)/deg	time/s	<Ewe>/V	<I>/mA	Cs/µF	Cp/µF	cycle number	I Range	|Ewe|/V	|I|/A	Ns	(Q-Qo)/mA.h	<Ece>/V	|Ece|/V	Phase(Zce)/deg	|Zce|/Ohm	Re(Zce)/Ohm	-Im(Zce)/Ohm	Phase(Zwe-ce)/deg	|Zwe-ce|/Ohm	Re(Zwe-ce)/Ohm	-Im(Zwe-ce)/Ohm	Re(Y)/Ohm-1	Im(Y)/Ohm-1	|Y|/Ohm-1	Phase(Y)/deg	Re(C)/nF	Im(C)/nF	|C|/nF	Phase(C)/deg	Re(M)	Im(M)	|M|	Phase(M)/deg	Re(Permittivity)	Im(Permittivity)	|Permittivity|	Phase(Permittivity)/deg	Re(Resistivity)/Ohm.cm	Im(Resistivity)/Ohm.cm	|Resistivity|/Ohm.cm	Phase(Resistivity)/deg	Re(Conductivity)/mS/cm	Im(Conductivity)/mS/cm	|Conductivity|/mS/cm	Phase(Conductivity)/deg	Tan(Delta)	Loss Angle(Delta)/deg	dq/mA.h	Pwe/W	Pce/W	Pwe-ce/W	<Ewe-Ece>/V	Rwe/Ohm	Rce/Ohm	Rwe-ce/Ohm		Ewe-Ece/V
100004	2.04152	1.43385	2.49474	-35.082	1.58353	0.200469	-0.0302042	1.10994	0.366654	1	9	0.00462274	0.00185299	0	-1.13476e-05	0.000387123	2.6737e-05	87.9776	0.0144291	0.000509206	-0.0144201	-34.8034	2.4869	2.04203	1.41943	0.328022	0.230384	0.400843	35.082	366.654	522.044	637.939	-54.918	0.0000000E+000	0.0000000E+000	0.0000000E+000	54.918	0.0000000E+000	0.0000000E+000	0.0000000E+000	-54.918	0.0000000E+000	0.0000000E+000	0.0000000E+000	-35.082	0.0000000E+000	0.0000000E+000	0.0000000E+000	35.082	1.42381	54.918	-1.13476e-05	-6.05501e-06	-1.16927e-08	-6.04332e-06	0.200082	6637.14	12.8169	6624.33
31621.1	3.43104	2.65855	4.3405	-37.7705	2.98255	0.200439	-0.0402233	1.8932	0.710246	1	9	0.00480341	0.00110665	0	-3.44092e-05	0.000177124	2.36361e-06	-58.7021	0.00213583	0.00110954	0.00182502	-37.7805	4.34249	3.43215	2.66038	0.182115	0.141113	0.230388	37.7705	710.246	916.619	1159.59	-52.2295	0.0000000E+000	0.0000000E+000	0.0000000E+000	52.2295	0.0000000E+000	0.0000000E+000	0.0000000E+000	-52.2295	0.0000000E+000	0.0000000E+000	0.0000000E+000	-37.7705	0.0000000E+000	0.0000000E+000	0.0000000E+000	37.7705	1.29056	52.2295	-5.66135e-06	-8.06234e-06	-7.12451e-09	-8.05522e-06	0.200262	4983.16	4.40351	4978.76
10002.2	5.90437	3.82959	7.03756	-32.9675	4.16256	0.200573	-0.0358736	4.15501	1.23036	1	10	0.00532482	0.000756628	0	-4.41747e-05	4.34878e-05	1.17592e-05	-34.6911	0.0155416	0.0127788	0.00884553	-32.9713	7.0531	5.91715	3.83843	0.119214	0.0773227	0.142095	32.9675	1230.36	1896.93	2261	-57.0325	0.0000000E+000	0.0000000E+000	0.0000000E+000	57.0325	0.0000000E+000	0.0000000E+000	0.0000000E+000	-57.0325	0.0000000E+000	0.0000000E+000	0.0000000E+000	-32.9675	0.0000000E+000	0.0000000E+000	0.0000000E+000	32.9675	1.54178	57.0325	-2.20719e-06	-7.19529e-06	-1.56007e-09	-7.19373e-06	0.20053	5591.11	1.21225	5589.89
3163.08	8.96647	4.92776	10.2313	-28.7922	5.06064	0.200435	-0.0174859	10.2108	2.36861	1	10	0.00492018	0.000480893	0	-5.14276e-05	-3.28756e-05	7.80725e-06	-82.2848	0.0162349	0.00217952	0.0160879	-28.8652	10.241	8.96865	4.94385	0.0856557	0.0470744	0.0977389	28.7922	2368.61	4309.89	4917.88	-61.2078	0.0000000E+000	0.0000000E+000	0.0000000E+000	61.2078	0.0000000E+000	0.0000000E+000	0.0000000E+000	-61.2078	0.0000000E+000	0.0000000E+000	0.0000000E+000	-28.7922	0.0000000E+000	0.0000000E+000	0.0000000E+000	28.7922	1.81958	61.2078	-1.87931e-06	-3.50479e-06	5.7486e-10	-3.50537e-06	0.200468	11462.6	1.88011	11464.5
1000.32	12.6287	6.74565	14.3174	-28.109	6.4138	0.200509	-0.0014228	23.5862	5.23573	1	10	0.0048241	0.00033694	0	-5.2557e-05	0.000520759	3.16701e-06	-73.9182	0.00939933	0.00260371	0.00903151	-28.136	14.3239	12.6313	6.75468	0.0616071	0.0329076	0.0698451	28.109	5235.73	9801.93	11112.6	-61.891	0.0000000E+000	0.0000000E+000	0.0000000E+000	61.891	0.0000000E+000	0.0000000E+000	0.0000000E+000	-61.891	0.0000000E+000	0.0000000E+000	0.0000000E+000	-28.109	0.0000000E+000	0.0000000E+000	0.0000000E+000	28.109	1.87212	61.891	-8.50595e-09	-2.85285e-07	-7.40938e-10	-2.84544e-07	0.199988	140925	366.009	140559
316.316	18.0774	10.3787	20.8449	-29.8613	7.76403	0.200497	-0.00184375	48.4791	12.0183	1	10	0.00479536	0.000230049	0	-5.39894e-05	-0.000109239	7.49719e-06	-62.5381	0.0325895	0.0150289	0.0289173	-29.9096	20.8724	18.0925	10.4076	0.041604	0.023886	0.0479733	29.8613	12018.3	20933.2	24137.8	-60.1387	0.0000000E+000	0.0000000E+000	0.0000000E+000	60.1387	0.0000000E+000	0.0000000E+000	0.0000000E+000	-60.1387	0.0000000E+000	0.0000000E+000	0.0000000E+000	-29.8613	0.0000000E+000	0.0000000E+000	0.0000000E+000	29.8613	1.74178	60.1387	-4.59472e-07	-3.69666e-07	2.0141e-10	-3.69868e-07	0.200606	108744	59.2481	108803
100.032	28.7907	14.2738	32.1348	-26.3713	9.35583	0.200533	-0.0104245	111.466	21.9923	1	11	0.00480729	0.000149598	0	-5.69106e-05	6.25787e-05	5.25576e-06	-18.7464	0.0351326	0.0332689	0.0112909	-26.363	32.1696	28.8239	14.2851	0.0278805	0.0138226	0.0311189	26.3713	21992.3	44359	49511.5	-63.6287	0.0000000E+000	0.0000000E+000	0.0000000E+000	63.6287	0.0000000E+000	0.0000000E+000	0.0000000E+000	-63.6287	0.0000000E+000	0.0000000E+000	0.0000000E+000	-26.3713	0.0000000E+000	0.0000000E+000	0.0000000E+000	26.3713	2.01702	63.6287	-1.27997e-06	-2.09047e-06	-6.52354e-10	-2.08982e-06	0.200471	19236.7	6.00302	19230.7
[...]
1.00006	50.2347	3.12696	50.3319	-3.5619	18.8518	0.200554	-0.00635293	50894.4	196.439	1	12	0.00479094	9.51869e-05	0	-8.00159e-05	4.34878e-05	3.4648e-06	87.7066	0.0364	0.00145663	-0.0363708	-3.52047	50.3311	50.2361	3.09059	0.0198297	0.00123434	0.0198681	3.5619	196440	3.1558e+06	3.16191e+06	-86.4381	0.0000000E+000	0.0000000E+000	0.0000000E+000	86.4381	0.0000000E+000	0.0000000E+000	0.0000000E+000	-86.4381	0.0000000E+000	0.0000000E+000	0.0000000E+000	-3.5619	0.0000000E+000	0.0000000E+000	0.0000000E+000	3.5619	16.065	86.4381	-6.87122e-06	-1.27411e-06	-2.76275e-10	-1.27383e-06	0.200511	31568.8	6.84532	31562
0.316193	52.4598	4.07132	52.6175	-4.43775	33.1949	0.200546	-0.00595357	123632	740.19	1	12	0.00478944	9.10238e-05	0	-0.000101955	0.000196215	1.82441e-06	-59.9359	0.0200432	0.010041	0.0173467	-4.45573	52.6289	52.4698	4.08867	0.0189481	0.00147053	0.0190051	4.43775	740189	9.53748e+06	9.56616e+06	-85.5623	0.0000000E+000	0.0000000E+000	0.0000000E+000	85.5623	0.0000000E+000	0.0000000E+000	0.0000000E+000	-85.5623	0.0000000E+000	0.0000000E+000	0.0000000E+000	-4.43775	0.0000000E+000	0.0000000E+000	0.0000000E+000	4.43775	12.8852	85.5623	-5.63498e-06	-1.19396e-06	-1.16818e-09	-1.1928e-06	0.20035	33685	32.9575	33652.1
0.0999041	54.9121	6.13807	55.2541	-6.37804	78.403	0.200542	-0.00358841	259541	3202.87	1	12	0.00479223	8.67308e-05	0	-0.000121999	-0.000109239	1.58936e-06	-17.7471	0.0183251	0.0174531	0.00558579	-6.38178	55.2721	54.9296	6.14365	0.0179862	0.00201049	0.0180982	6.37804	3.20287e+06	2.86534e+07	2.88318e+07	-83.622	0.0000000E+000	0.0000000E+000	0.0000000E+000	83.622	0.0000000E+000	0.0000000E+000	0.0000000E+000	-83.622	0.0000000E+000	0.0000000E+000	0.0000000E+000	-6.37804	0.0000000E+000	0.0000000E+000	0.0000000E+000	6.37804	8.94616	83.622	-1.28286e-05	-7.19628e-07	3.91994e-10	-7.2002e-07	0.200651	55886	30.4421	55916.5
0.0315922	58.1245	13.0275	59.5666	-12.6329	221.288	0.200548	-0.00300195	386706	18496.7	1	12	0.00479097	8.04305e-05	0	-0.000356247	0.000234396	1.5882e-06	-34.5456	0.0197462	0.0162644	0.0111973	-12.64	59.5849	58.1408	13.0387	0.0163815	0.00367159	0.0167879	12.6329	1.84967e+07	8.25267e+07	8.45741e+07	-77.3671	0.0000000E+000	0.0000000E+000	0.0000000E+000	77.3671	0.0000000E+000	0.0000000E+000	0.0000000E+000	-77.3671	0.0000000E+000	0.0000000E+000	0.0000000E+000	-12.6329	0.0000000E+000	0.0000000E+000	0.0000000E+000	12.6329	4.4617	77.3671	-0.000128163	-6.02037e-07	-7.03647e-10	-6.01333e-07	0.200314	66805.9	78.0812	66727.8
0.0100092	67.1262	31.5448	74.1687	-25.1704	672.511	0.200541	-0.00371359	504073	91181.9	1	12	0.00479003	6.45829e-05	0	-0.000785879	4.34878e-05	7.23797e-07	66.7158	0.0112073	0.00443014	-0.0102945	-25.1617	74.1684	67.1306	31.5345	0.0122025	0.00573438	0.0134828	25.1704	9.11819e+07	1.94032e+08	2.14388e+08	-64.8296	0.0000000E+000	0.0000000E+000	0.0000000E+000	64.8296	0.0000000E+000	0.0000000E+000	0.0000000E+000	-64.8296	0.0000000E+000	0.0000000E+000	0.0000000E+000	-25.1704	0.0000000E+000	0.0000000E+000	0.0000000E+000	25.1704	2.12796	64.8296	-0.000102843	-7.44725e-07	-1.61496e-10	-7.44564e-07	0.200497	54001.9	11.7105	53990.2