Folder: EIS/txt (part 170)

File: 19151_R306_UA711_SOC00_C07.mpt
EC-Lab ASCII FILE
Nb header lines : 65

Potentio Electrochemical Impedance Spectroscopy

Run on channel : 7 (SN 66126)
Grouped channel(s) : 3, 4, 5, 6, 7
User :
CE vs. WE compliance from -10 V to 10 V
Electrode connection : standard
Potential control : Ewe
Ewe ctrl range : min = -10.00 V, max = 10.00 V
Safety Limits :
	Do not start on E overload
Acquisition started on : 11/12/2025 11:40:22.150
Loaded Setting File :  C:\Users\Celltest\OneDrive - store-dot.com\Documents\EC-Lab\Data\@Biologic Test Protocols\anode half cell EIS SOC00.mps
Saved on :
	File : 19147_R306_UA711_SOC00_C07.mpr
	Directory : C:\Users\Celltest\OneDrive - store-dot.com\Documents\EC-Lab\Data\Charmaine\
	Host : 169.254.61.224
Device : VMP-3e (SN .003165)
Address : USB
EC-LAB for windows v11.62 (software)
Internet server v27.00 (firmware)
Command interpretor v12.03 (firmware)
Electrode material :
Initial state :
Electrolyte :
Comments :
Electrode surface area : 0.001 cm²
Characteristic mass : 0.001 g
Equivalent Weight : 0.000 g/eq.
Density : 0.000 g/cm3
Volume (V) : 0.001 cm³
Record Ece
Cycle Definition : Charge/Discharge alternance
Mode                Single sine
E (V)               0.0000
vs.                 Eoc
tE (h:m:s)          0:00:0.0000
record              0
dI                  0.000
unit dI             mA
dt (s)              0.000
fi                  100.000
unit fi             kHz
ff                  10.000
unit ff             mHz
Nd                  6
Points              per decade
spacing             Logarithmic
Va (mV)             5.0
pw                  0.10
Na                  2
corr                0
E range min (V)     -10.000
E range max (V)     10.000
I Range             Auto
Bandwidth           5
nc cycles           0
goto Ns'            0
nr cycles           0
inc. cycle          0

freq/Hz	Re(Z)/Ohm	-Im(Z)/Ohm	|Z|/Ohm	Phase(Z)/deg	time/s	<Ewe>/V	<I>/mA	Cs/µF	Cp/µF	cycle number	I Range	|Ewe|/V	|I|/A	Ns	(Q-Qo)/mA.h	<Ece>/V	|Ece|/V	Phase(Zce)/deg	|Zce|/Ohm	Re(Zce)/Ohm	-Im(Zce)/Ohm	Phase(Zwe-ce)/deg	|Zwe-ce|/Ohm	Re(Zwe-ce)/Ohm	-Im(Zwe-ce)/Ohm	Re(Y)/Ohm-1	Im(Y)/Ohm-1	|Y|/Ohm-1	Phase(Y)/deg	Re(C)/nF	Im(C)/nF	|C|/nF	Phase(C)/deg	Re(M)	Im(M)	|M|	Phase(M)/deg	Re(Permittivity)	Im(Permittivity)	|Permittivity|	Phase(Permittivity)/deg	Re(Resistivity)/Ohm.cm	Im(Resistivity)/Ohm.cm	|Resistivity|/Ohm.cm	Phase(Resistivity)/deg	Re(Conductivity)/mS/cm	Im(Conductivity)/mS/cm	|Conductivity|/mS/cm	Phase(Conductivity)/deg	Tan(Delta)	Loss Angle(Delta)/deg	dq/mA.h	Pwe/W	Pce/W	Pwe-ce/W	<Ewe-Ece>/V	Rwe/Ohm	Rce/Ohm	Rwe-ce/Ohm		Ewe-Ece/V
100004	1.97069	1.10537	2.25952	-29.2882	1.91056	0.166836	0.0462545	1.43979	0.34457	1	9	0.00468492	0.00207341	0	7.29593e-06	-8.68658e-05	3.60438e-05	88.9723	0.0173838	0.000311797	-0.017381	-28.8986	2.25134	1.971	1.08798	0.385998	0.216507	0.442572	29.2882	344.57	614.311	704.348	-60.7118	0.0000000E+000	0.0000000E+000	0.0000000E+000	60.7118	0.0000000E+000	0.0000000E+000	0.0000000E+000	-60.7118	0.0000000E+000	0.0000000E+000	0.0000000E+000	-29.2882	0.0000000E+000	0.0000000E+000	0.0000000E+000	29.2882	1.78284	60.7118	7.29593e-06	7.7169e-06	-4.01793e-09	7.72091e-06	0.166922	3606.9	1.878	3608.78
31621.1	3.0898	1.90663	3.63072	-31.6776	3.30756	0.166877	0.0471109	2.63983	0.727988	1	9	0.00516065	0.00142139	0	1.91197e-05	-6.77904e-05	8.3561e-06	-57.3597	0.00587884	0.00317083	0.00495041	-31.7178	3.63602	3.09297	1.91158	0.234393	0.144638	0.275427	31.6776	727.988	1179.74	1386.28	-58.3224	0.0000000E+000	0.0000000E+000	0.0000000E+000	58.3224	0.0000000E+000	0.0000000E+000	0.0000000E+000	-58.3224	0.0000000E+000	0.0000000E+000	0.0000000E+000	-31.6776	0.0000000E+000	0.0000000E+000	0.0000000E+000	31.6776	1.62055	58.3224	4.27078e-06	7.86174e-06	-3.19367e-09	7.86493e-06	0.166945	3542.22	1.43895	3543.66
10002.2	4.86839	2.39584	5.42598	-26.2028	4.48752	0.166841	-0.00994646	6.64149	1.29487	1	10	0.00482114	0.000888529	0	2.2087e-05	-0.000258545	7.77035e-06	-137.823	0.00874519	-0.00648078	0.00587177	-26.2887	5.42276	4.8619	2.40171	0.165359	0.081377	0.184299	26.2028	1294.87	2631.19	2932.55	-63.7972	0.0000000E+000	0.0000000E+000	0.0000000E+000	63.7972	0.0000000E+000	0.0000000E+000	0.0000000E+000	-63.7972	0.0000000E+000	0.0000000E+000	0.0000000E+000	-26.2028	0.0000000E+000	0.0000000E+000	0.0000000E+000	26.2028	2.03202	63.7972	-1.32265e-06	-1.65947e-06	2.5716e-09	-1.66205e-06	0.167099	16773.9	25.9936	16799.9
3163.08	6.6149	2.71176	7.14917	-22.291	5.38362	0.166729	-0.00639124	18.5549	2.66962	1	10	0.00461151	0.000645042	0	1.85222e-05	-0.000105941	1.57361e-06	-56.061	0.00243955	0.00136203	0.00202393	-22.3019	7.15119	6.61627	2.71378	0.129423	0.0530567	0.139876	22.291	2669.62	6512.12	7038.09	-67.709	0.0000000E+000	0.0000000E+000	0.0000000E+000	67.709	0.0000000E+000	0.0000000E+000	0.0000000E+000	-67.709	0.0000000E+000	0.0000000E+000	0.0000000E+000	-22.291	0.0000000E+000	0.0000000E+000	0.0000000E+000	22.291	2.43934	67.709	-8.17452e-07	-1.0656e-06	6.77095e-10	-1.06628e-06	0.166835	26087.1	16.576	26103.6
1000.32	8.28797	3.76485	9.103	-24.4301	6.73782	0.166763	0.00594971	42.2604	7.22869	1	10	0.00452409	0.000496989	0	2.14393e-05	-8.68658e-05	7.8527e-06	46.0825	0.0158005	0.0109596	-0.0113817	-24.3364	9.10828	8.29893	3.75347	0.100018	0.0454338	0.109854	24.4301	7228.69	15913.3	17478.2	-65.5699	0.0000000E+000	0.0000000E+000	0.0000000E+000	65.5699	0.0000000E+000	0.0000000E+000	0.0000000E+000	-65.5699	0.0000000E+000	0.0000000E+000	0.0000000E+000	-24.4301	0.0000000E+000	0.0000000E+000	0.0000000E+000	24.4301	2.20141	65.5699	5.28941e-07	9.9219e-07	-5.16826e-10	9.92707e-07	0.16685	28028.8	14.6	28043.4
316.316	10.9298	6.86986	12.9095	-32.1513	8.302	0.16676	0.00484777	73.2405	20.741	1	10	0.0049809	0.000385833	0	2.42752e-05	4.66622e-05	8.37465e-06	5.24186	0.0217054	0.0216146	-0.001983	-32.0929	12.9267	10.9514	6.86788	0.0655833	0.0412222	0.0774625	32.1513	20741	32998.4	38975.4	-57.8487	0.0000000E+000	0.0000000E+000	0.0000000E+000	57.8487	0.0000000E+000	0.0000000E+000	0.0000000E+000	-57.8487	0.0000000E+000	0.0000000E+000	0.0000000E+000	-32.1513	0.0000000E+000	0.0000000E+000	0.0000000E+000	32.1513	1.59097	57.8487	8.81781e-07	8.08411e-07	2.26207e-10	8.08185e-07	0.166713	34399.3	9.6255	34389.7
100.032	18.4059	11.9917	21.9677	-33.0847	9.64981	0.166773	0.00704047	132.679	39.536	1	10	0.00496805	0.000226153	0	2.61365e-05	-0.000163167	5.25375e-06	-115.309	0.023231	-0.0099311	0.0210013	-33.1447	21.9708	18.396	12.0127	0.0381408	0.0248491	0.0455214	33.0847	39536	60683.5	72426.4	-56.9153	0.0000000E+000	0.0000000E+000	0.0000000E+000	56.9153	0.0000000E+000	0.0000000E+000	0.0000000E+000	-56.9153	0.0000000E+000	0.0000000E+000	0.0000000E+000	-33.0847	0.0000000E+000	0.0000000E+000	0.0000000E+000	33.0847	1.53489	56.9153	1.12307e-06	1.17416e-06	-1.14877e-09	1.17531e-06	0.166936	23687.8	23.1757	23711
[...]
3.1604	39.6104	3.3986	39.7559	-4.904	14.0774	0.166817	0.000991183	14817.6	108.287	1	11	0.00497074	0.000125032	0	2.63562e-05	-0.000239469	4.0284e-06	127.221	0.032219	-0.019489	-0.0256563	-4.86955	39.7343	39.5909	3.37294	0.0250614	0.00215029	0.0251535	4.904	108287	1.26207e+06	1.26671e+06	-85.096	0.0000000E+000	0.0000000E+000	0.0000000E+000	85.096	0.0000000E+000	0.0000000E+000	0.0000000E+000	-85.096	0.0000000E+000	0.0000000E+000	0.0000000E+000	-4.904	0.0000000E+000	0.0000000E+000	0.0000000E+000	4.904	11.6549	85.096	-6.21694e-07	1.65346e-07	-2.37358e-10	1.65584e-07	0.167057	168301	241.599	168543
1.00006	41.2114	2.76456	41.3041	-3.83779	19.3968	0.166831	0.00140581	57566	257.889	1	12	0.00497508	0.00012045	0	3.35798e-05	2.75868e-05	3.90244e-06	-65.6523	0.0323988	0.0133572	0.0295173	-3.87739	41.3194	41.2248	2.79408	0.0241564	0.00162047	0.0242107	3.83779	257889	3.84436e+06	3.853e+06	-86.1622	0.0000000E+000	0.0000000E+000	0.0000000E+000	86.1622	0.0000000E+000	0.0000000E+000	0.0000000E+000	-86.1622	0.0000000E+000	0.0000000E+000	0.0000000E+000	-3.83779	0.0000000E+000	0.0000000E+000	0.0000000E+000	3.83779	14.907	86.1622	1.55554e-06	2.34533e-07	3.87818e-11	2.34494e-07	0.166803	118672	19.6234	118653
0.316193	42.69	3.09024	42.8017	-4.1403	33.7411	0.166829	0.00112816	162883	849.058	1	12	0.00497402	0.000116211	0	1.94768e-05	-1.05641e-05	1.55403e-06	58.8089	0.0133725	0.00692555	-0.0114394	-4.12436	42.8078	42.6969	3.0788	0.0233026	0.00168682	0.0233635	4.1403	849058	1.17293e+07	1.176e+07	-85.8597	0.0000000E+000	0.0000000E+000	0.0000000E+000	85.8597	0.0000000E+000	0.0000000E+000	0.0000000E+000	-85.8597	0.0000000E+000	0.0000000E+000	0.0000000E+000	-4.1403	0.0000000E+000	0.0000000E+000	0.0000000E+000	4.1403	13.8145	85.8597	-7.40375e-06	1.88211e-07	-1.1918e-11	1.88222e-07	0.16684	147876	9.36396	147886
0.0999041	44.3564	5.17713	44.6575	-6.65725	78.9497	0.166831	-0.000342319	307715	4135.59	1	12	0.00497219	0.00011134	0	4.40924e-05	8.4813e-05	1.92344e-06	0.078274	0.0172753	0.0172752	-2.36004e-05	-6.65465	44.6746	44.3737	5.1771	0.0222417	0.00259597	0.0223927	6.65725	4.13559e+06	3.54327e+07	3.56732e+07	-83.3428	0.0000000E+000	0.0000000E+000	0.0000000E+000	83.3428	0.0000000E+000	0.0000000E+000	0.0000000E+000	-83.3428	0.0000000E+000	0.0000000E+000	0.0000000E+000	-6.65725	0.0000000E+000	0.0000000E+000	0.0000000E+000	6.65725	8.56776	83.3428	2.34592e-05	-5.71095e-08	-2.90331e-11	-5.70804e-08	0.166746	487356	247.76	487108
0.0315922	47.3007	10.9698	48.556	-13.057	221.833	0.166829	0.000945292	459242	23439.7	1	12	0.00497338	0.000102426	0	0.000179947	-0.000125017	9.50605e-07	51.887	0.00928093	0.00572832	-0.0073022	-13.0471	48.56	47.3064	10.9625	0.0200623	0.00465277	0.0205948	13.057	2.34397e+07	1.0107e+08	1.03752e+08	-76.943	0.0000000E+000	0.0000000E+000	0.0000000E+000	76.943	0.0000000E+000	0.0000000E+000	0.0000000E+000	-76.943	0.0000000E+000	0.0000000E+000	0.0000000E+000	-13.057	0.0000000E+000	0.0000000E+000	0.0000000E+000	13.057	4.3119	76.943	3.72293e-05	1.57702e-07	-1.18177e-10	1.5782e-07	0.166954	176484	132.252	176616
0.0100092	54.0109	25.2766	59.6329	-25.0792	673.054	0.16683	0.000115701	629076	113024	1	12	0.00497612	8.34458e-05	0	-0.000229865	-0.000296695	1.41135e-06	-83.985	0.0169133	0.00177233	0.0168202	-25.0931	59.6416	54.0127	25.2934	0.0151883	0.00710799	0.0167693	25.0792	1.13024e+08	2.41508e+08	2.66647e+08	-64.9208	0.0000000E+000	0.0000000E+000	0.0000000E+000	64.9208	0.0000000E+000	0.0000000E+000	0.0000000E+000	-64.9208	0.0000000E+000	0.0000000E+000	0.0000000E+000	-25.0792	0.0000000E+000	0.0000000E+000	0.0000000E+000	25.0792	2.13679	64.9208	-0.000219243	1.93023e-08	-3.43279e-11	1.93367e-08	0.167127	1.44191e+06	2564.34	1.44447e+06

File: 19152_R306_UA712_SOC00_C08.mpt
EC-Lab ASCII FILE
Nb header lines : 65

Potentio Electrochemical Impedance Spectroscopy

Run on channel : 8 (SN 65398)
User :
CE vs. WE compliance from -10 V to 10 V
Electrode connection : standard
Potential control : Ewe
Ewe ctrl range : min = -10.00 V, max = 10.00 V
Safety Limits :
	Do not start on E overload
Acquisition started on : 11/12/2025 11:40:42.806
Technique started on : 11/12/2025 11:40:44.808
Loaded Setting File :  C:\Users\Celltest\OneDrive - store-dot.com\Documents\EC-Lab\Data\@Biologic Test Protocols\anode half cell EIS SOC00.mps
Saved on :
	File : 19152_R306_UA712_SOC00_C08.mpr
	Directory : C:\Users\Celltest\OneDrive - store-dot.com\Documents\EC-Lab\Data\Charmaine\
	Host : 169.254.61.224
Device : VMP-3e (SN .003165)
Address : USB
EC-LAB for windows v11.62 (software)
Internet server v27.00 (firmware)
Command interpretor v12.03 (firmware)
Electrode material :
Initial state :
Electrolyte :
Comments :
Electrode surface area : 0.001 cm²
Characteristic mass : 0.001 g
Equivalent Weight : 0.000 g/eq.
Density : 0.000 g/cm3
Volume (V) : 0.001 cm³
Record Ece
Cycle Definition : Charge/Discharge alternance
Mode                Single sine
E (V)               0.0000
vs.                 Eoc
tE (h:m:s)          0:00:0.0000
record              0
dI                  0.000
unit dI             mA
dt (s)              0.000
fi                  100.000
unit fi             kHz
ff                  10.000
unit ff             mHz
Nd                  6
Points              per decade
spacing             Logarithmic
Va (mV)             5.0
pw                  0.10
Na                  2
corr                0
E range min (V)     -10.000
E range max (V)     10.000
I Range             Auto
Bandwidth           5
nc cycles           0
goto Ns'            0
nr cycles           0
inc. cycle          0

freq/Hz	Re(Z)/Ohm	-Im(Z)/Ohm	|Z|/Ohm	Phase(Z)/deg	time/s	<Ewe>/V	<I>/mA	Cs/µF	Cp/µF	cycle number	I Range	|Ewe|/V	|I|/A	Ns	(Q-Qo)/mA.h	<Ece>/V	|Ece|/V	Phase(Zce)/deg	|Zce|/Ohm	Re(Zce)/Ohm	-Im(Zce)/Ohm	Phase(Zwe-ce)/deg	|Zwe-ce|/Ohm	Re(Zwe-ce)/Ohm	-Im(Zwe-ce)/Ohm	Re(Y)/Ohm-1	Im(Y)/Ohm-1	|Y|/Ohm-1	Phase(Y)/deg	Re(C)/nF	Im(C)/nF	|C|/nF	Phase(C)/deg	Re(M)	Im(M)	|M|	Phase(M)/deg	Re(Permittivity)	Im(Permittivity)	|Permittivity|	Phase(Permittivity)/deg	Re(Resistivity)/Ohm.cm	Im(Resistivity)/Ohm.cm	|Resistivity|/Ohm.cm	Phase(Resistivity)/deg	Re(Conductivity)/mS/cm	Im(Conductivity)/mS/cm	|Conductivity|/mS/cm	Phase(Conductivity)/deg	Tan(Delta)	Loss Angle(Delta)/deg	dq/mA.h	Pwe/W	Pce/W	Pwe-ce/W	<Ewe-Ece>/V	Rwe/Ohm	Rce/Ohm	Rwe-ce/Ohm		Ewe-Ece/V
100004	2.3123	0.822888	2.45436	-19.5893	2.00156	0.277235	-0.0382415	1.93403	0.217404	1	9	0.00455512	0.00185593	0	-6.25702e-06	-5.67291e-05	4.51517e-05	95.3722	0.0243283	-0.00227773	-0.0242215	-19.0723	2.44419	2.31002	0.798667	0.383856	0.136604	0.407438	19.5893	217.404	610.902	648.434	-70.4107	0.0000000E+000	0.0000000E+000	0.0000000E+000	70.4107	0.0000000E+000	0.0000000E+000	0.0000000E+000	-70.4107	0.0000000E+000	0.0000000E+000	0.0000000E+000	-19.5893	0.0000000E+000	0.0000000E+000	0.0000000E+000	19.5893	2.80998	70.4107	-6.25702e-06	-1.06019e-05	2.16941e-09	-1.06041e-05	0.277292	7249.59	1.48344	7251.07
31621.1	3.14724	1.21377	3.37318	-21.0898	3.39856	0.277245	-0.0311731	4.14672	0.53691	1	9	0.00525823	0.00155883	0	-1.52066e-05	-7.58172e-05	4.09985e-06	5.71281	0.00263008	0.00261701	-0.000261804	-21.0697	3.37553	3.14985	1.21351	0.276599	0.106674	0.296456	21.0898	536.91	1392.17	1492.12	-68.9102	0.0000000E+000	0.0000000E+000	0.0000000E+000	68.9102	0.0000000E+000	0.0000000E+000	0.0000000E+000	-68.9102	0.0000000E+000	0.0000000E+000	0.0000000E+000	-21.0898	0.0000000E+000	0.0000000E+000	0.0000000E+000	21.0898	2.59293	68.9102	-6.78777e-06	-8.64257e-06	2.36346e-09	-8.64494e-06	0.277321	8893.72	2.43214	8896.15
10002.2	4.13816	1.47612	4.39355	-19.6318	4.70655	0.277304	-0.026218	10.7796	1.21678	1	10	0.00498317	0.0011342	0	-2.76141e-05	5.3507e-07	8.75643e-06	-22.7983	0.00772036	0.0071172	0.00299155	-19.6373	4.40126	4.14528	1.47911	0.214376	0.0764697	0.227606	19.6318	1216.78	3411.14	3621.66	-70.3682	0.0000000E+000	0.0000000E+000	0.0000000E+000	70.3682	0.0000000E+000	0.0000000E+000	0.0000000E+000	-70.3682	0.0000000E+000	0.0000000E+000	0.0000000E+000	-19.6318	0.0000000E+000	0.0000000E+000	0.0000000E+000	19.6318	2.80341	70.3682	-3.80177e-06	-7.27036e-06	-1.40285e-11	-7.27034e-06	0.277303	10576.8	0.0204085	10576.8
3163.08	5.23554	1.90187	5.57028	-19.9641	5.60562	0.277214	-0.0242465	26.4563	3.08416	1	10	0.00515782	0.000925954	0	-3.18132e-05	1.96231e-05	1.01339e-05	-56.0131	0.0109442	0.00611786	0.00907457	-20.0303	5.57913	5.24166	1.91094	0.168736	0.0612952	0.179524	19.9641	3084.16	8490.2	9033.02	-70.0359	0.0000000E+000	0.0000000E+000	0.0000000E+000	70.0359	0.0000000E+000	0.0000000E+000	0.0000000E+000	-70.0359	0.0000000E+000	0.0000000E+000	0.0000000E+000	-19.9641	0.0000000E+000	0.0000000E+000	0.0000000E+000	19.9641	2.75284	70.0359	-1.54991e-06	-6.72145e-06	-4.75792e-10	-6.72098e-06	0.277194	11433.2	0.809319	11432.3
1000.32	6.66837	2.68268	7.18776	-21.9149	6.95885	0.277274	-0.00555366	59.3079	8.26157	1	10	0.00503427	0.000700395	0	-3.33256e-05	0.000229592	1.81333e-05	4.19204	0.02589	0.0258208	-0.00189255	-21.8243	7.21102	6.69419	2.68078	0.129072	0.0519256	0.139125	21.9149	8261.57	20535.9	22135.4	-68.0851	0.0000000E+000	0.0000000E+000	0.0000000E+000	68.0851	0.0000000E+000	0.0000000E+000	0.0000000E+000	-68.0851	0.0000000E+000	0.0000000E+000	0.0000000E+000	-21.9149	0.0000000E+000	0.0000000E+000	0.0000000E+000	21.9149	2.48571	68.0851	-7.88809e-07	-1.53988e-06	-1.27507e-09	-1.53861e-06	0.277044	49926.4	41.3406	49885
316.316	8.77979	4.02116	9.65684	-24.6079	8.30807	0.277264	-0.00617861	125.126	21.6961	1	10	0.00500583	0.000518372	0	-3.48456e-05	5.3507e-07	5.65396e-06	32.9474	0.0109071	0.00915295	-0.00593207	-24.5533	9.66269	8.78894	4.01523	0.0941487	0.0431203	0.103554	24.6079	21696.1	47371.1	52103.2	-65.3921	0.0000000E+000	0.0000000E+000	0.0000000E+000	65.3921	0.0000000E+000	0.0000000E+000	0.0000000E+000	-65.3921	0.0000000E+000	0.0000000E+000	0.0000000E+000	-24.6079	0.0000000E+000	0.0000000E+000	0.0000000E+000	24.6079	2.1834	65.3921	-8.03513e-07	-1.71311e-06	-3.30599e-12	-1.71311e-06	0.277264	44874.8	0.0866004	44874.8
100.032	12.4366	6.11762	13.8598	-26.1928	9.65477	0.277279	-0.00482455	260.075	50.67	1	10	0.00498733	0.000359842	0	-3.7535e-05	5.3507e-07	1.24811e-05	22.2818	0.034685	0.0320951	-0.0131513	-26.0857	13.8828	12.4687	6.10447	0.0647423	0.0318471	0.0721512	26.1928	50670	103008	114795	-63.8072	0.0000000E+000	0.0000000E+000	0.0000000E+000	63.8072	0.0000000E+000	0.0000000E+000	0.0000000E+000	-63.8072	0.0000000E+000	0.0000000E+000	0.0000000E+000	-26.1928	0.0000000E+000	0.0000000E+000	0.0000000E+000	26.1928	2.03291	63.8072	-2.04417e-07	-1.33775e-06	-2.58147e-12	-1.33774e-06	0.277278	57472.4	0.110906	57472.3
[...]
1.00006	28.9688	2.60107	29.0853	-5.13076	19.707	0.277335	-0.00210052	61184.3	489.325	1	12	0.00499393	0.000171699	0	-5.47824e-05	1.96231e-05	3.42627e-06	-34.5516	0.0199551	0.0164353	0.0113175	-5.15006	29.1027	28.9852	2.61239	0.0342438	0.00307472	0.0343816	5.13076	489325	5.44973e+06	5.47165e+06	-84.8692	0.0000000E+000	0.0000000E+000	0.0000000E+000	84.8692	0.0000000E+000	0.0000000E+000	0.0000000E+000	-84.8692	0.0000000E+000	0.0000000E+000	0.0000000E+000	-5.13076	0.0000000E+000	0.0000000E+000	0.0000000E+000	5.13076	11.1372	84.8692	-7.47754e-06	-5.8255e-07	-4.12189e-11	-5.82509e-07	0.277316	132031	9.34201	132022
0.316193	30.1385	2.58354	30.2491	-4.89954	34.0492	0.277327	-0.00272824	194828	1421.21	1	12	0.00499419	0.000165102	0	-4.90599e-05	-0.000152169	2.84014e-06	-4.29246	0.0172023	0.0171541	0.00128755	-4.8992	30.2663	30.1557	2.58483	0.0329381	0.00282352	0.0330589	4.89954	1.42121e+06	1.65793e+07	1.66401e+07	-85.1005	0.0000000E+000	0.0000000E+000	0.0000000E+000	85.1005	0.0000000E+000	0.0000000E+000	0.0000000E+000	-85.1005	0.0000000E+000	0.0000000E+000	0.0000000E+000	-4.89954	0.0000000E+000	0.0000000E+000	0.0000000E+000	4.89954	11.6656	85.1005	9.03628e-06	-7.56615e-07	4.15154e-10	-7.5703e-07	0.27748	101651	55.7757	101707
0.0999041	31.5777	4.28849	31.8675	-7.73389	79.2573	0.277333	0.000256198	371478	6727.35	1	12	0.00499301	0.00015668	0	-2.79881e-05	0.00015324	1.83571e-06	-13.9749	0.0117163	0.0113695	0.00282945	-7.73618	31.8792	31.589	4.29132	0.0310945	0.00422287	0.0313799	7.73389	6.72736e+06	4.95359e+07	4.99906e+07	-82.2661	0.0000000E+000	0.0000000E+000	0.0000000E+000	82.2661	0.0000000E+000	0.0000000E+000	0.0000000E+000	-82.2661	0.0000000E+000	0.0000000E+000	0.0000000E+000	-7.73389	0.0000000E+000	0.0000000E+000	0.0000000E+000	7.73389	7.36335	82.2661	-5.68055e-06	7.10521e-08	3.92596e-11	7.10128e-08	0.27718	1.08249e+06	598.129	1.0819e+06
0.0315922	34.185	8.54909	35.2378	-14.0407	222.141	0.277328	-0.000714488	589278	34685	1	12	0.00499425	0.00014173	0	-0.000276709	5.77992e-05	2.70365e-06	1.10114	0.019076	0.0190725	-0.000366591	-14.0326	35.2562	34.2041	8.54872	0.0275308	0.00688497	0.0283786	14.0407	3.4685e+07	1.38694e+08	1.42966e+08	-75.9593	0.0000000E+000	0.0000000E+000	0.0000000E+000	75.9593	0.0000000E+000	0.0000000E+000	0.0000000E+000	-75.9593	0.0000000E+000	0.0000000E+000	0.0000000E+000	-14.0407	0.0000000E+000	0.0000000E+000	0.0000000E+000	14.0407	3.99868	75.9593	-0.000122743	-1.98148e-07	-4.12968e-11	-1.98106e-07	0.277271	388150	80.8961	388069
0.0100092	39.149	19.246	43.624	-26.1792	673.364	0.277321	-0.00073963	826192	160810	1	12	0.00499342	0.000114465	0	-4.69595e-05	0.000496825	5.12114e-06	17.0936	0.0447399	0.0427635	-0.0131505	-26.1389	43.6566	39.1918	19.2329	0.0205717	0.0101132	0.0229232	26.1792	1.6081e+08	3.27108e+08	3.64499e+08	-63.8208	0.0000000E+000	0.0000000E+000	0.0000000E+000	63.8208	0.0000000E+000	0.0000000E+000	0.0000000E+000	-63.8208	0.0000000E+000	0.0000000E+000	0.0000000E+000	-26.1792	0.0000000E+000	0.0000000E+000	0.0000000E+000	26.1792	2.03413	63.8208	0.000261904	-2.05115e-07	-3.67466e-10	-2.04747e-07	0.276824	374945	671.72	374274