Folder: EIS/txt (part 74)

File: 18267_R297_UC86_SOC50_C03.mpt
EC-Lab ASCII FILE
Nb header lines : 64

Potentio Electrochemical Impedance Spectroscopy

Run on channel : 3 (SN 65921)
User :
CE vs. WE compliance from -10 V to 10 V
Electrode connection : standard
Potential control : Ewe
Ewe ctrl range : min = -10.00 V, max = 10.00 V
Safety Limits :
	Do not start on E overload
Acquisition started on : 10/07/2025 16:29:50.198
Loaded Setting File :  C:\Users\Celltest\OneDrive - store-dot.com\Documents\EC-Lab\Data\txt_done\UC80_17231_EIS_50SOC.mps
Saved on :
	File : UC86_18267_SOC50_EIS_C03.mpr
	Directory : C:\Users\Celltest\OneDrive - store-dot.com\Documents\EC-Lab\Data\Michael\R297\
	Host : 169.254.61.224
Device : VMP-3e (SN .003165)
Address : USB
EC-LAB for windows v11.62 (software)
Internet server v27.00 (firmware)
Command interpretor v12.03 (firmware)
Electrode material :
Initial state :
Electrolyte :
Comments :
Electrode surface area : 0.001 cm²
Characteristic mass : 0.001 g
Equivalent Weight : 0.000 g/eq.
Density : 0.000 g/cm3
Volume (V) : 0.001 cm³
Record Ece
Cycle Definition : Charge/Discharge alternance
Mode                Multi sine
E (V)               0.0000
vs.                 Eoc
tE (h:m:s)          0:00:0.0000
record              0
dI                  0.000
unit dI             mA
dt (s)              0.000
fi                  1.000
unit fi             MHz
ff                  0.100
unit ff             mHz
Nd                  10
Points              per decade
spacing             Logarithmic
Va (mV)             5.0
pw                  0.10
Na                  2
corr                0
E range min (V)     -10.000
E range max (V)     10.000
I Range             Auto
Bandwidth           5
nc cycles           0
goto Ns'            0
nr cycles           0
inc. cycle          0

freq/Hz	Re(Z)/Ohm	-Im(Z)/Ohm	|Z|/Ohm	Phase(Z)/deg	time/s	<Ewe>/V	<I>/mA	Cs/µF	Cp/µF	cycle number	I Range	|Ewe|/V	|I|/A	Ns	(Q-Qo)/mA.h	<Ece>/V	|Ece|/V	Phase(Zce)/deg	|Zce|/Ohm	Re(Zce)/Ohm	-Im(Zce)/Ohm	Phase(Zwe-ce)/deg	|Zwe-ce|/Ohm	Re(Zwe-ce)/Ohm	-Im(Zwe-ce)/Ohm	Re(Y)/Ohm-1	Im(Y)/Ohm-1	|Y|/Ohm-1	Phase(Y)/deg	Re(C)/nF	Im(C)/nF	|C|/nF	Phase(C)/deg	Re(M)	Im(M)	|M|	Phase(M)/deg	Re(Permittivity)	Im(Permittivity)	|Permittivity|	Phase(Permittivity)/deg	Re(Resistivity)/Ohm.cm	Im(Resistivity)/Ohm.cm	|Resistivity|/Ohm.cm	Phase(Resistivity)/deg	Re(Conductivity)/mS/cm	Im(Conductivity)/mS/cm	|Conductivity|/mS/cm	Phase(Conductivity)/deg	Tan(Delta)	Loss Angle(Delta)/deg	dq/mA.h	Pwe/W	Pce/W	Pwe-ce/W	<Ewe-Ece>/V	Rwe/Ohm	Rce/Ohm	Rwe-ce/Ohm		Ewe-Ece/V
1.00002e+06	7.9397	2.51148	8.32745	-17.5532	2.23357	3.78655	-0.0302456	0.0633697	0.00576393	1	10	0.000146492	1.75914e-05	0	-2.95709e-05	0.00012952	0.000187605	-42.5341	10.6645	7.85844	7.20953	-31.6051	18.5494	15.7981	9.72101	0.114493	0.0362165	0.120085	17.5532	5.76393	18.2218	19.1117	-72.4468	0.0000000E+000	0.0000000E+000	0.0000000E+000	72.4468	0.0000000E+000	0.0000000E+000	0.0000000E+000	-72.4468	0.0000000E+000	0.0000000E+000	0.0000000E+000	-17.5532	0.0000000E+000	0.0000000E+000	0.0000000E+000	17.5532	3.16136	72.4468	-2.95709e-05	-0.000114527	-3.9174e-09	-0.000114523	3.78642	125193	4.28226	125189
251206	-0.420372	-0.590405	0.724769	125.451	4.95155	3.78614	0.00633344	-1.0731	-0.712099	1	9	0.000165181	0.000227908	0	-3.12357e-05	-9.96091e-05	4.98016e-05	157.322	0.218516	-0.201622	-0.084248	132.674	0.917624	-0.621994	-0.674653	-0.800265	-1.12396	1.37975	-125.451	-712.099	-507.018	874.158	144.549	0.0000000E+000	0.0000000E+000	0.0000000E+000	-144.549	0.0000000E+000	0.0000000E+000	0.0000000E+000	144.549	0.0000000E+000	0.0000000E+000	0.0000000E+000	125.451	0.0000000E+000	0.0000000E+000	0.0000000E+000	-125.451	0.712006	35.4511	-2.38028e-07	2.39793e-05	-6.30868e-10	2.39799e-05	3.78624	597802	15.7275	597817
63093.8	1.02652	0.244824	1.05531	-13.4144	7.25152	3.78611	0.00476713	10.3034	0.554533	1	9	0.00126392	0.00119767	0	-3.01905e-05	-0.000195079	6.49817e-06	75.7568	0.00542565	0.00133491	-0.00525887	-13.1199	1.0554	1.02785	0.239565	0.921736	0.219834	0.947588	13.4144	554.533	2325.09	2390.3	-76.5856	0.0000000E+000	0.0000000E+000	0.0000000E+000	76.5856	0.0000000E+000	0.0000000E+000	0.0000000E+000	-76.5856	0.0000000E+000	0.0000000E+000	0.0000000E+000	-13.4144	0.0000000E+000	0.0000000E+000	0.0000000E+000	13.4144	4.19288	76.5856	7.62331e-07	1.80489e-05	-9.29969e-10	1.80498e-05	3.7863	794212	40.9218	794252
15847.7	1.68887	1.01377	1.96977	-30.9749	9.67553	3.78609	-0.0017592	9.90641	2.62398	1	9	0.00500403	0.00254041	0	-2.72489e-05	-0.000233268	8.72607e-06	-41.2092	0.00343491	0.00258411	0.00226295	-30.9926	1.97315	1.69145	1.01603	0.435275	0.26128	0.507673	30.9749	2623.98	4371.38	5098.45	-59.0251	0.0000000E+000	0.0000000E+000	0.0000000E+000	59.0251	0.0000000E+000	0.0000000E+000	0.0000000E+000	-59.0251	0.0000000E+000	0.0000000E+000	0.0000000E+000	-30.9749	0.0000000E+000	0.0000000E+000	0.0000000E+000	30.9749	1.66594	59.0251	-8.4072e-07	-6.66047e-06	4.10363e-10	-6.66088e-06	3.78632	2.15217e+06	132.599	2.1523e+06
3983.6	2.77595	1.84036	3.33058	-33.543	12.9081	3.7861	0.0191625	21.7091	6.62835	1	9	0.00505599	0.00151805	0	-2.64533e-05	0.00012952	6.6053e-06	43.3074	0.00435117	0.00316628	-0.00298452	-33.4701	3.33158	2.77911	1.83737	0.250248	0.165906	0.300248	33.543	6628.35	9998.03	11995.7	-56.457	0.0000000E+000	0.0000000E+000	0.0000000E+000	56.457	0.0000000E+000	0.0000000E+000	0.0000000E+000	-56.457	0.0000000E+000	0.0000000E+000	0.0000000E+000	-33.543	0.0000000E+000	0.0000000E+000	0.0000000E+000	33.543	1.50837	56.457	7.2494e-07	7.25509e-05	2.48191e-09	7.25484e-05	3.78597	197579	6.75903	197572
1000.32	4.81	2.88579	5.60926	-30.9619	15.7818	3.78606	-0.0536108	55.1336	14.5926	1	10	0.00451447	0.000804824	0	-6.31077e-05	-0.000271456	7.91627e-06	106.474	0.00983603	-0.00278925	-0.00943226	-30.8939	5.60202	4.80721	2.87636	0.152874	0.0917176	0.178276	30.9619	14592.6	24322.8	28364.5	-59.0381	0.0000000E+000	0.0000000E+000	0.0000000E+000	59.0381	0.0000000E+000	0.0000000E+000	0.0000000E+000	-59.0381	0.0000000E+000	0.0000000E+000	0.0000000E+000	-30.9619	0.0000000E+000	0.0000000E+000	0.0000000E+000	30.9619	1.66679	59.0381	-5.91842e-06	-0.000202974	1.4553e-08	-0.000202988	3.78633	70621.3	5.06346	70626.3
251.044	8.26786	3.41649	8.94594	-22.4516	18.6961	3.78606	-0.0546064	185.562	27.0643	1	10	0.00486996	0.000544376	0	-0.000106407	0.000110426	5.98916e-06	12.6199	0.0110019	0.0107361	-0.00240372	-22.4112	8.95495	8.27859	3.41408	0.10331	0.0426901	0.111783	22.4516	27064.3	65495.4	70866.9	-67.5484	0.0000000E+000	0.0000000E+000	0.0000000E+000	67.5484	0.0000000E+000	0.0000000E+000	0.0000000E+000	-67.5484	0.0000000E+000	0.0000000E+000	0.0000000E+000	-22.4516	0.0000000E+000	0.0000000E+000	0.0000000E+000	22.4516	2.41999	67.5484	-6.8864e-06	-0.000206743	-6.02994e-09	-0.000206737	3.78595	69333.7	2.02221	69331.7
63.0823	11.0676	1.98136	11.2435	-10.1498	21.416	3.78606	-0.0524772	1273.35	39.5433	1	10	0.00485869	0.000432133	0	-0.000146182	0.00012952	5.91301e-06	-59.576	0.0136833	0.00692917	0.0117991	-10.2027	11.2524	11.0745	1.99316	0.0875482	0.0156733	0.0889401	10.1498	39543.3	220882	224394	-79.8502	0.0000000E+000	0.0000000E+000	0.0000000E+000	79.8502	0.0000000E+000	0.0000000E+000	0.0000000E+000	-79.8502	0.0000000E+000	0.0000000E+000	0.0000000E+000	-10.1498	0.0000000E+000	0.0000000E+000	0.0000000E+000	10.1498	5.58583	79.8502	-6.52063e-06	-0.000198682	-6.79683e-09	-0.000198675	3.78593	72146.8	2.46811	72144.4
[...]
0.0602816	15.0565	2.58995	15.2776	-9.76024	242.054	3.78607	-0.0281464	1.0194e+06	29296.5	1	11	0.00505768	0.000331052	0	-0.0036415	-0.000118703	4.54062e-07	1.36397	0.00137157	0.00137119	-3.26482e-05	-9.75925	15.279	15.0578	2.58991	0.0645079	0.0110964	0.0654553	9.76024	2.92965e+07	1.70313e+08	1.72814e+08	-80.2398	0.0000000E+000	0.0000000E+000	0.0000000E+000	80.2398	0.0000000E+000	0.0000000E+000	0.0000000E+000	-80.2398	0.0000000E+000	0.0000000E+000	0.0000000E+000	-9.76024	0.0000000E+000	0.0000000E+000	0.0000000E+000	9.76024	5.81343	80.2398	0.000000000000000E+000	-0.000106564	3.34106e-09	-0.000106568	3.78619	134514	4.21736	134518
0.00796479	21.5034	4.68515	22.0078	-12.2915	20330.9	3.78614	0.00111532	4.26503e+06	193292	1	11	0.00505353	0.000229624	0	-0.00695537	-8.05151e-05	5.15247e-07	5.45622	0.00224387	0.0022337	-0.000213359	-12.2897	22.01	21.5056	4.68494	0.0443968	0.00967317	0.0454383	12.2915	1.93292e+08	8.87151e+08	9.07964e+08	-77.7085	0.0000000E+000	0.0000000E+000	0.0000000E+000	77.7085	0.0000000E+000	0.0000000E+000	0.0000000E+000	-77.7085	0.0000000E+000	0.0000000E+000	0.0000000E+000	-12.2915	0.0000000E+000	0.0000000E+000	0.0000000E+000	12.2915	4.58968	77.7085	-0.00331387	4.22274e-06	-8.97998e-11	4.22283e-06	3.78622	3.39467e+06	72.1904	3.39475e+06
0.0019912	25.232	6.78336	26.1279	-15.0476	20330.9	3.78614	0.00111532	1.17831e+07	794220	1	11	0.00506442	0.000193832	0	-0.00695537	-8.05151e-05	6.69069e-07	-49.0844	0.0034518	0.00226075	0.00260844	-15.0518	26.1308	25.2343	6.78597	0.0369609	0.00993653	0.0382732	15.0476	7.9422e+08	2.95425e+09	3.05915e+09	-74.9524	0.0000000E+000	0.0000000E+000	0.0000000E+000	74.9524	0.0000000E+000	0.0000000E+000	0.0000000E+000	-74.9524	0.0000000E+000	0.0000000E+000	0.0000000E+000	-15.0476	0.0000000E+000	0.0000000E+000	0.0000000E+000	15.0476	3.71969	74.9524	0.000000000000000E+000	4.22274e-06	-8.97998e-11	4.22283e-06	3.78622	3.39467e+06	72.1904	3.39475e+06
0.000497799	27.3841	14.5843	31.0257	-28.039	20330.9	3.78614	0.00111532	2.1922e+07	4.84406e+06	1	11	0.00506757	0.000163335	0	-0.00695537	-8.05151e-05	7.945e-07	7.1016	0.00486424	0.00482693	-0.000601363	-28.0338	31.0296	27.3889	14.5837	0.0284483	0.0151511	0.0322314	28.039	4.84406e+09	9.09542e+09	1.03049e+10	-61.961	0.0000000E+000	0.0000000E+000	0.0000000E+000	61.961	0.0000000E+000	0.0000000E+000	0.0000000E+000	-61.961	0.0000000E+000	0.0000000E+000	0.0000000E+000	-28.039	0.0000000E+000	0.0000000E+000	0.0000000E+000	28.039	1.87764	61.961	0.000000000000000E+000	4.22274e-06	-8.97998e-11	4.22283e-06	3.78622	3.39467e+06	72.1904	3.39475e+06
9.95598e-05	36.8099	67.1748	76.5991	-61.2785	20330.9	3.78614	0.00111532	2.37974e+07	1.83019e+07	1	11	0.00505697	6.60186e-05	0	-0.00695537	-8.05151e-05	3.40538e-06	-102.789	0.0515821	-0.011418	0.0503025	-61.304	76.6377	36.7985	67.2251	0.00627361	0.0114488	0.013055	61.2785	1.83019e+10	1.00289e+10	2.08695e+10	-28.7215	0.0000000E+000	0.0000000E+000	0.0000000E+000	28.7215	0.0000000E+000	0.0000000E+000	0.0000000E+000	-28.7215	0.0000000E+000	0.0000000E+000	0.0000000E+000	-61.2785	0.0000000E+000	0.0000000E+000	0.0000000E+000	61.2785	0.547972	28.7215	0.000000000000000E+000	4.22274e-06	-8.97998e-11	4.22283e-06	3.78622	3.39467e+06	72.1904	3.39475e+06

File: 18268_R297_UC86_SOC50_C04.mpt
EC-Lab ASCII FILE
Nb header lines : 64

Potentio Electrochemical Impedance Spectroscopy

Run on channel : 4 (SN 66756)
User :
CE vs. WE compliance from -10 V to 10 V
Electrode connection : standard
Potential control : Ewe
Ewe ctrl range : min = -10.00 V, max = 10.00 V
Safety Limits :
	Do not start on E overload
Acquisition started on : 10/07/2025 16:30:11.403
Loaded Setting File :  C:\Users\Celltest\OneDrive - store-dot.com\Documents\EC-Lab\Data\txt_done\UC80_17231_EIS_50SOC.mps
Saved on :
	File : UC86_18268_SOC50_EIS_C04.mpr
	Directory : C:\Users\Celltest\OneDrive - store-dot.com\Documents\EC-Lab\Data\Michael\R297\
	Host : 169.254.61.224
Device : VMP-3e (SN .003165)
Address : USB
EC-LAB for windows v11.62 (software)
Internet server v27.00 (firmware)
Command interpretor v12.03 (firmware)
Electrode material :
Initial state :
Electrolyte :
Comments :
Electrode surface area : 0.001 cm²
Characteristic mass : 0.001 g
Equivalent Weight : 0.000 g/eq.
Density : 0.000 g/cm3
Volume (V) : 0.001 cm³
Record Ece
Cycle Definition : Charge/Discharge alternance
Mode                Multi sine
E (V)               0.0000
vs.                 Eoc
tE (h:m:s)          0:00:0.0000
record              0
dI                  0.000
unit dI             mA
dt (s)              0.000
fi                  1.000
unit fi             MHz
ff                  0.100
unit ff             mHz
Nd                  10
Points              per decade
spacing             Logarithmic
Va (mV)             5.0
pw                  0.10
Na                  2
corr                0
E range min (V)     -10.000
E range max (V)     10.000
I Range             Auto
Bandwidth           5
nc cycles           0
goto Ns'            0
nr cycles           0
inc. cycle          0

freq/Hz	Re(Z)/Ohm	-Im(Z)/Ohm	|Z|/Ohm	Phase(Z)/deg	time/s	<Ewe>/V	<I>/mA	Cs/µF	Cp/µF	cycle number	I Range	|Ewe|/V	|I|/A	Ns	(Q-Qo)/mA.h	<Ece>/V	|Ece|/V	Phase(Zce)/deg	|Zce|/Ohm	Re(Zce)/Ohm	-Im(Zce)/Ohm	Phase(Zwe-ce)/deg	|Zwe-ce|/Ohm	Re(Zwe-ce)/Ohm	-Im(Zwe-ce)/Ohm	Re(Y)/Ohm-1	Im(Y)/Ohm-1	|Y|/Ohm-1	Phase(Y)/deg	Re(C)/nF	Im(C)/nF	|C|/nF	Phase(C)/deg	Re(M)	Im(M)	|M|	Phase(M)/deg	Re(Permittivity)	Im(Permittivity)	|Permittivity|	Phase(Permittivity)/deg	Re(Resistivity)/Ohm.cm	Im(Resistivity)/Ohm.cm	|Resistivity|/Ohm.cm	Phase(Resistivity)/deg	Re(Conductivity)/mS/cm	Im(Conductivity)/mS/cm	|Conductivity|/mS/cm	Phase(Conductivity)/deg	Tan(Delta)	Loss Angle(Delta)/deg	dq/mA.h	Pwe/W	Pce/W	Pwe-ce/W	<Ewe-Ece>/V	Rwe/Ohm	Rce/Ohm	Rwe-ce/Ohm		Ewe-Ece/V
1.00002e+06	0.956174	-0.139019	0.966227	8.2723	2.24353	3.78722	-0.0156875	-1.14482	-0.0236988	1	9	0.000206143	0.000213349	0	-6.22588e-06	-9.19415e-05	0.000186966	3.95588	0.876342	0.874254	-0.0604573	6.21943	1.84126	1.83043	-0.199476	1.02419	-0.148907	1.03495	-8.2723	-23.6988	163.001	164.715	-98.2723	0.0000000E+000	0.0000000E+000	0.0000000E+000	98.2723	0.0000000E+000	0.0000000E+000	0.0000000E+000	-98.2723	0.0000000E+000	0.0000000E+000	0.0000000E+000	8.2723	0.0000000E+000	0.0000000E+000	0.0000000E+000	-8.2723	6.87803	81.7277	-6.22588e-06	-5.94122e-05	1.44234e-09	-5.94136e-05	3.78731	241416	5.8608	241422
251206	0.693941	0.238901	0.733913	-18.9969	4.54352	3.78584	-0.105425	2.65199	0.281008	1	9	0.0019201	0.00261624	0	-6.81005e-05	-9.19415e-05	4.96183e-05	70.236	0.0189655	0.0064131	-0.0178483	-17.5172	0.734412	0.700354	0.221053	1.28835	0.443536	1.36256	18.9969	281.008	816.251	863.267	-71.0031	0.0000000E+000	0.0000000E+000	0.0000000E+000	71.0031	0.0000000E+000	0.0000000E+000	0.0000000E+000	-71.0031	0.0000000E+000	0.0000000E+000	0.0000000E+000	-18.9969	0.0000000E+000	0.0000000E+000	0.0000000E+000	18.9969	2.90473	71.0031	-1.24727e-05	-0.000399121	9.69291e-09	-0.000399131	3.78593	35910.3	0.872105	35911.2
63093.8	1.05049	0.566752	1.19362	-28.3475	6.84354	3.78574	-0.0954663	4.45082	1.00345	1	9	0.00532783	0.00446359	0	-0.000132664	-0.000168381	2.3368e-05	94.8297	0.00523523	-0.000440776	-0.00521665	-28.1367	1.19076	1.05004	0.561536	0.737324	0.397797	0.837788	28.3475	1003.45	1859.91	2113.33	-61.6525	0.0000000E+000	0.0000000E+000	0.0000000E+000	61.6525	0.0000000E+000	0.0000000E+000	0.0000000E+000	-61.6525	0.0000000E+000	0.0000000E+000	0.0000000E+000	-28.3475	0.0000000E+000	0.0000000E+000	0.0000000E+000	28.3475	1.85352	61.6525	-2.83905e-06	-0.000361411	1.60747e-08	-0.000361427	3.78591	39655.3	1.76378	39657
15847.7	1.65125	0.997446	1.92912	-31.1343	9.26754	3.78574	-0.0907669	10.0685	2.69168	1	9	0.00478302	0.00247937	0	-0.000183157	-0.000378591	6.47419e-06	-125.292	0.00261122	-0.00150861	0.00213133	-31.2117	1.92894	1.64974	0.999578	0.443703	0.268021	0.51837	31.1343	2691.68	4456.01	5205.88	-58.8657	0.0000000E+000	0.0000000E+000	0.0000000E+000	58.8657	0.0000000E+000	0.0000000E+000	0.0000000E+000	-58.8657	0.0000000E+000	0.0000000E+000	0.0000000E+000	-31.1343	0.0000000E+000	0.0000000E+000	0.0000000E+000	31.1343	1.65548	58.8657	-7.80287e-06	-0.00034362	3.43635e-08	-0.000343655	3.78612	41708.4	4.17102	41712.6
3983.6	2.68032	1.68156	3.16413	-32.1031	11.1161	3.78561	-0.143393	23.7592	6.71039	1	9	0.00464818	0.00146902	0	-0.000226544	4.18282e-05	6.06463e-06	-89.9331	0.00412835	4.82227e-06	0.00412834	-32.1664	3.16633	2.68032	1.68569	0.267717	0.167959	0.316042	32.1031	6710.39	10696	12626.7	-57.8969	0.0000000E+000	0.0000000E+000	0.0000000E+000	57.8969	0.0000000E+000	0.0000000E+000	0.0000000E+000	-57.8969	0.0000000E+000	0.0000000E+000	0.0000000E+000	-32.1031	0.0000000E+000	0.0000000E+000	0.0000000E+000	32.1031	1.59394	57.8969	-1.1249e-05	-0.000542832	-5.99789e-09	-0.000542826	3.78557	26400.2	0.291702	26399.9
1000.32	4.61404	2.74566	5.36917	-30.7554	13.9898	3.78567	-0.0546381	57.9475	15.1535	1	10	0.00458421	0.000853802	0	-0.000275147	0.000213818	1.19047e-05	25.3855	0.0139431	0.0125968	-0.00597751	-30.6321	5.37695	4.62664	2.73968	0.160054	0.0952428	0.186248	30.7554	15153.5	25465.2	29632.9	-59.2446	0.0000000E+000	0.0000000E+000	0.0000000E+000	59.2446	0.0000000E+000	0.0000000E+000	0.0000000E+000	-59.2446	0.0000000E+000	0.0000000E+000	0.0000000E+000	-30.7554	0.0000000E+000	0.0000000E+000	0.0000000E+000	30.7554	1.68049	59.2446	-7.18076e-06	-0.000206842	-1.16826e-08	-0.00020683	3.78546	69286.2	3.91334	69282.3
251.044	7.92896	3.32016	8.59604	-22.7209	16.9041	3.78566	-0.0534669	190.946	28.486	1	10	0.00499979	0.000581639	0	-0.000318134	-0.000206601	8.83994e-06	24.6004	0.0151983	0.0138188	-0.00632686	-22.6466	8.60635	7.94278	3.31383	0.107305	0.0449327	0.116333	22.7209	28486	68028.2	73751.6	-67.2791	0.0000000E+000	0.0000000E+000	0.0000000E+000	67.2791	0.0000000E+000	0.0000000E+000	0.0000000E+000	-67.2791	0.0000000E+000	0.0000000E+000	0.0000000E+000	-22.7209	0.0000000E+000	0.0000000E+000	0.0000000E+000	22.7209	2.38813	67.2791	-9.27681e-06	-0.000202407	1.10463e-08	-0.000202418	3.78587	70803.9	3.8641	70807.7
63.0823	10.6662	1.94355	10.8418	-10.3269	19.624	3.78567	-0.055373	1298.13	41.7159	1	10	0.00499015	0.000460267	0	-0.00035773	-0.000149271	4.06369e-06	79.0058	0.00882897	0.00168377	-0.00866693	-10.2802	10.8419	10.6679	1.93488	0.0907412	0.0165344	0.0922353	10.3269	41715.9	228938	232707	-79.6731	0.0000000E+000	0.0000000E+000	0.0000000E+000	79.6731	0.0000000E+000	0.0000000E+000	0.0000000E+000	-79.6731	0.0000000E+000	0.0000000E+000	0.0000000E+000	-10.3269	0.0000000E+000	0.0000000E+000	0.0000000E+000	10.3269	5.48801	79.6731	-6.33838e-06	-0.000209624	8.2656e-09	-0.000209632	3.78582	68366.7	2.69574	68369.4
[...]
0.0602816	14.5321	2.46106	14.7391	-9.612	240.313	3.7857	-0.0205652	1.07279e+06	29910	1	11	0.00508335	0.00034489	0	-0.00338116	-0.000187491	9.56871e-07	-56.3508	0.00277442	0.00153733	0.00230956	-9.61985	14.741	14.5337	2.46337	0.0668944	0.0113287	0.0678469	9.612	2.991e+07	1.76614e+08	1.79129e+08	-80.388	0.0000000E+000	0.0000000E+000	0.0000000E+000	80.388	0.0000000E+000	0.0000000E+000	0.0000000E+000	-80.388	0.0000000E+000	0.0000000E+000	0.0000000E+000	-9.612	0.0000000E+000	0.0000000E+000	0.0000000E+000	9.612	5.90484	80.388	0.000000000000000E+000	-7.78537e-05	3.8558e-09	-7.78576e-05	3.78589	184083	9.11691	184092
0.00796479	20.4694	4.41675	20.9405	-12.1762	20329.2	3.78569	-8.45003e-05	4.52421e+06	201268	1	11	0.00507397	0.000242304	0	-0.0124476	-0.000397701	3.65532e-07	-29.1185	0.00150857	0.00131791	0.000734097	-12.1774	20.9419	20.4707	4.41748	0.0466801	0.0100723	0.0477544	12.1762	2.01268e+08	9.32776e+08	9.54243e+08	-77.8238	0.0000000E+000	0.0000000E+000	0.0000000E+000	77.8238	0.0000000E+000	0.0000000E+000	0.0000000E+000	-77.8238	0.0000000E+000	0.0000000E+000	0.0000000E+000	-12.1762	0.0000000E+000	0.0000000E+000	0.0000000E+000	12.1762	4.6345	77.8238	-0.00906647	-3.19892e-07	3.36058e-11	-3.19925e-07	3.78609	4.48009e+07	4706.5	4.48056e+07
0.0019912	24.0511	6.60959	24.9428	-15.3664	20329.2	3.78569	-8.45003e-05	1.20929e+07	849162	1	11	0.00508879	0.000204019	0	-0.0124476	-0.000397701	4.68273e-07	-3.89042	0.00229525	0.00228996	0.000155729	-15.3653	24.945	24.0534	6.60974	0.0386585	0.0106239	0.0400917	15.3664	8.49162e+08	3.08995e+09	3.20451e+09	-74.6336	0.0000000E+000	0.0000000E+000	0.0000000E+000	74.6336	0.0000000E+000	0.0000000E+000	0.0000000E+000	-74.6336	0.0000000E+000	0.0000000E+000	0.0000000E+000	-15.3664	0.0000000E+000	0.0000000E+000	0.0000000E+000	15.3664	3.63882	74.6336	0.000000000000000E+000	-3.19892e-07	3.36058e-11	-3.19925e-07	3.78609	4.48009e+07	4706.5	4.48056e+07
0.000497799	26.0995	14.3104	29.7653	-28.736	20329.2	3.78569	-8.45003e-05	2.23416e+07	5.16413e+06	1	11	0.00508779	0.00017093	0	-0.0124476	-0.000397701	7.96093e-07	41.4358	0.00465742	0.00349166	-0.00308219	-28.7275	29.7669	26.103	14.3073	0.0294586	0.0161522	0.0335962	28.736	5.16413e+09	9.41843e+09	1.07413e+10	-61.264	0.0000000E+000	0.0000000E+000	0.0000000E+000	61.264	0.0000000E+000	0.0000000E+000	0.0000000E+000	-61.264	0.0000000E+000	0.0000000E+000	0.0000000E+000	-28.736	0.0000000E+000	0.0000000E+000	0.0000000E+000	28.736	1.82382	61.264	0.000000000000000E+000	-3.19892e-07	3.36058e-11	-3.19925e-07	3.78609	4.48009e+07	4706.5	4.48056e+07
9.95598e-05	35.0611	65.8756	74.6249	-61.9767	20329.2	3.78569	-8.45003e-05	2.42667e+07	1.89101e+07	1	11	0.00508764	6.81762e-05	0	-0.0124476	-0.000397701	4.39374e-06	39.555	0.0644468	0.0496893	-0.0410409	-61.9282	74.6121	35.1108	65.8346	0.0062959	0.0118292	0.0134003	61.9767	1.89101e+10	1.00645e+10	2.14216e+10	-28.0233	0.0000000E+000	0.0000000E+000	0.0000000E+000	28.0233	0.0000000E+000	0.0000000E+000	0.0000000E+000	-28.0233	0.0000000E+000	0.0000000E+000	0.0000000E+000	-61.9767	0.0000000E+000	0.0000000E+000	0.0000000E+000	61.9767	0.532232	28.0233	0.000000000000000E+000	-3.19892e-07	3.36058e-11	-3.19925e-07	3.78609	4.48009e+07	4706.5	4.48056e+07