Folder: EIS/txt (part 69)

File: 18214_R279_UA653_SOC00_C01.mpt
EC-Lab ASCII FILE
Nb header lines : 65

Potentio Electrochemical Impedance Spectroscopy

Run on channel : 1 (SN 66354)
User :
CE vs. WE compliance from -10 V to 10 V
Electrode connection : standard
Potential control : Ewe
Ewe ctrl range : min = -10.00 V, max = 10.00 V
Safety Limits :
	Do not start on E overload
Acquisition started on : 10/08/2025 08:30:18.980
Technique started on : 10/08/2025 08:30:20.891
Loaded Setting File :  C:\Users\Celltest\OneDrive - store-dot.com\Documents\EC-Lab\Data\@Biologic Test Protocols\anode half cell EIS SOC00.mps
Saved on :
	File : 18214_R279_UA653_SOC00_C01.mpr
	Directory : C:\Users\Celltest\OneDrive - store-dot.com\Documents\EC-Lab\Data\Charmaine\
	Host : 169.254.61.224
Device : VMP-3e (SN .003165)
Address : USB
EC-LAB for windows v11.62 (software)
Internet server v27.00 (firmware)
Command interpretor v12.03 (firmware)
Electrode material :
Initial state :
Electrolyte :
Comments :
Electrode surface area : 0.001 cm²
Characteristic mass : 0.001 g
Equivalent Weight : 0.000 g/eq.
Density : 0.000 g/cm3
Volume (V) : 0.001 cm³
Record Ece
Cycle Definition : Charge/Discharge alternance
Mode                Single sine
E (V)               0.0000
vs.                 Eoc
tE (h:m:s)          0:00:0.0000
record              0
dI                  0.000
unit dI             mA
dt (s)              0.000
fi                  100.000
unit fi             kHz
ff                  10.000
unit ff             mHz
Nd                  6
Points              per decade
spacing             Logarithmic
Va (mV)             5.0
pw                  0.10
Na                  2
corr                0
E range min (V)     -10.000
E range max (V)     10.000
I Range             Auto
Bandwidth           5
nc cycles           0
goto Ns'            0
nr cycles           0
inc. cycle          0

freq/Hz	Re(Z)/Ohm	-Im(Z)/Ohm	|Z|/Ohm	Phase(Z)/deg	time/s	<Ewe>/V	<I>/mA	Cs/µF	Cp/µF	cycle number	I Range	|Ewe|/V	|I|/A	Ns	(Q-Qo)/mA.h	<Ece>/V	|Ece|/V	Phase(Zce)/deg	|Zce|/Ohm	Re(Zce)/Ohm	-Im(Zce)/Ohm	Phase(Zwe-ce)/deg	|Zwe-ce|/Ohm	Re(Zwe-ce)/Ohm	-Im(Zwe-ce)/Ohm	Re(Y)/Ohm-1	Im(Y)/Ohm-1	|Y|/Ohm-1	Phase(Y)/deg	Re(C)/nF	Im(C)/nF	|C|/nF	Phase(C)/deg	Re(M)	Im(M)	|M|	Phase(M)/deg	Re(Permittivity)	Im(Permittivity)	|Permittivity|	Phase(Permittivity)/deg	Re(Resistivity)/Ohm.cm	Im(Resistivity)/Ohm.cm	|Resistivity|/Ohm.cm	Phase(Resistivity)/deg	Re(Conductivity)/mS/cm	Im(Conductivity)/mS/cm	|Conductivity|/mS/cm	Phase(Conductivity)/deg	Tan(Delta)	Loss Angle(Delta)/deg	dq/mA.h	Pwe/W	Pce/W	Pwe-ce/W	<Ewe-Ece>/V	Rwe/Ohm	Rce/Ohm	Rwe-ce/Ohm		Ewe-Ece/V
100004	1.32596	0.256749	1.35059	-10.9587	1.91053	0.273323	0.111796	6.19862	0.224009	1	9	0.00464643	0.00344029	0	1.33512e-05	0.000174035	3.81849e-05	83.7712	0.0110993	0.00120426	-0.0110338	-10.4891	1.34972	1.32717	0.245715	0.726914	0.140754	0.740416	10.9587	224.009	1156.88	1178.36	-79.0413	0.0000000E+000	0.0000000E+000	0.0000000E+000	79.0413	0.0000000E+000	0.0000000E+000	0.0000000E+000	-79.0413	0.0000000E+000	0.0000000E+000	0.0000000E+000	-10.9587	0.0000000E+000	0.0000000E+000	0.0000000E+000	10.9587	5.16443	79.0413	1.33512e-05	3.05563e-05	1.94564e-08	3.05369e-05	0.273149	2444.84	1.55673	2443.28
31621.1	1.52754	0.345687	1.56616	-12.7515	3.30752	0.273329	0.109635	14.5599	0.709336	1	9	0.00515395	0.00329081	0	5.11176e-05	0.00021219	1.79121e-05	29.3848	0.00544306	0.00474278	-0.00267076	-12.6182	1.5702	1.53228	0.343016	0.622756	0.140932	0.638503	12.7515	709.336	3134.44	3213.7	-77.2485	0.0000000E+000	0.0000000E+000	0.0000000E+000	77.2485	0.0000000E+000	0.0000000E+000	0.0000000E+000	-77.2485	0.0000000E+000	0.0000000E+000	0.0000000E+000	-12.7515	0.0000000E+000	0.0000000E+000	0.0000000E+000	12.7515	4.41884	77.2485	2.60772e-05	2.99664e-05	2.32634e-08	2.99432e-05	0.273117	2493.08	1.93542	2491.15
10002.2	1.78075	0.484723	1.84554	-15.2271	4.45656	0.273332	0.105276	32.8269	2.26448	1	9	0.0050695	0.00274689	0	7.75081e-05	2.1417e-05	6.29917e-06	-19.0337	0.0022932	0.00216783	0.000747868	-15.2318	1.84783	1.78292	0.485471	0.522823	0.142313	0.541846	15.2271	2264.48	8319.13	8621.82	-74.7729	0.0000000E+000	0.0000000E+000	0.0000000E+000	74.7729	0.0000000E+000	0.0000000E+000	0.0000000E+000	-74.7729	0.0000000E+000	0.0000000E+000	0.0000000E+000	-15.2271	0.0000000E+000	0.0000000E+000	0.0000000E+000	15.2271	3.67375	74.7729	1.26458e-05	2.87754e-05	2.2547e-09	2.87731e-05	0.273311	2596.34	0.203436	2596.13
3163.08	2.13246	0.746628	2.25939	-19.2964	5.35469	0.273173	0.039634	67.3916	7.35921	1	9	0.00497798	0.00220324	0	9.51062e-05	-0.000150279	5.31641e-06	-6.70263	0.002413	0.00239651	0.000281636	-19.2831	2.26175	2.13486	0.746909	0.417733	0.146259	0.442597	19.2964	7359.21	21018.8	22269.9	-70.7036	0.0000000E+000	0.0000000E+000	0.0000000E+000	70.7036	0.0000000E+000	0.0000000E+000	0.0000000E+000	-70.7036	0.0000000E+000	0.0000000E+000	0.0000000E+000	-19.2964	0.0000000E+000	0.0000000E+000	0.0000000E+000	19.2964	2.85613	70.7036	5.48946e-06	1.08269e-05	-5.95616e-09	1.08329e-05	0.273323	6892.38	3.79166	6896.17
1000.32	2.6307	1.30041	2.93456	-26.3042	6.7088	0.273214	0.0716355	122.349	24.0257	1	9	0.00487086	0.00165983	0	0.000121829	0.000231267	9.2528e-06	-0.982738	0.00557455	0.00557373	9.56101e-05	-26.2577	2.9396	2.63627	1.30051	0.305482	0.151006	0.340767	26.3042	24025.7	48603.4	54217.4	-63.6958	0.0000000E+000	0.0000000E+000	0.0000000E+000	63.6958	0.0000000E+000	0.0000000E+000	0.0000000E+000	-63.6958	0.0000000E+000	0.0000000E+000	0.0000000E+000	-26.3042	0.0000000E+000	0.0000000E+000	0.0000000E+000	26.3042	2.02297	63.6958	8.89585e-06	1.95718e-05	1.65669e-08	1.95552e-05	0.272983	3813.94	3.22839	3810.72
316.316	3.66929	2.53031	4.45715	-34.5898	8.30406	0.273239	-0.00822579	198.85	64.0854	1	10	0.00486765	0.0010921	0	0.000123764	5.95716e-05	3.42176e-05	-33.6086	0.031332	0.0260945	0.0173428	-34.583	4.48847	3.69538	2.54765	0.1847	0.127368	0.224359	34.5898	64085.4	92932.4	112887	-55.4102	0.0000000E+000	0.0000000E+000	0.0000000E+000	55.4102	0.0000000E+000	0.0000000E+000	0.0000000E+000	-55.4102	0.0000000E+000	0.0000000E+000	0.0000000E+000	-34.5898	0.0000000E+000	0.0000000E+000	0.0000000E+000	34.5898	1.45013	55.4102	-8.21889e-07	-2.24761e-06	-4.90023e-10	-2.24712e-06	0.273179	33217.3	7.24205	33210.1
100.032	6.11395	4.60983	7.65708	-37.0158	9.65178	0.273242	-0.00779348	345.141	125.095	1	10	0.00479648	0.000626412	0	0.000121985	0.000193113	6.02129e-05	12.6528	0.0961235	0.0937892	-0.0210551	-36.4719	7.71964	6.20774	4.58877	0.104279	0.0786246	0.130598	37.0158	125095	165912	207787	-52.9842	0.0000000E+000	0.0000000E+000	0.0000000E+000	52.9842	0.0000000E+000	0.0000000E+000	0.0000000E+000	-52.9842	0.0000000E+000	0.0000000E+000	0.0000000E+000	-37.0158	0.0000000E+000	0.0000000E+000	0.0000000E+000	37.0158	1.32628	52.9842	-1.48721e-06	-2.12951e-06	-1.50502e-09	-2.128e-06	0.273049	35060.4	24.7788	35035.6
[...]
1.00006	17.7955	1.40356	17.8507	-4.50969	19.7186	0.273278	0.00127961	113386	700.991	1	12	0.00481404	0.000269683	0	0.000114867	0.000326654	1.59336e-06	-45.7916	0.00590825	0.00411965	0.00423508	-4.5222	17.8552	17.7996	1.4078	0.0558467	0.00440474	0.0560202	4.50969	700990	8.88771e+06	8.91531e+06	-85.4903	0.0000000E+000	0.0000000E+000	0.0000000E+000	85.4903	0.0000000E+000	0.0000000E+000	0.0000000E+000	-85.4903	0.0000000E+000	0.0000000E+000	0.0000000E+000	-4.50969	0.0000000E+000	0.0000000E+000	0.0000000E+000	4.50969	12.6788	85.4903	-7.04843e-06	3.4969e-07	4.1799e-10	3.49272e-07	0.272952	213564	255.276	213308
0.316193	18.6964	1.40235	18.7489	-4.2895	34.0629	0.273283	-0.000911692	358932	2008.03	1	12	0.0048134	0.000256729	0	0.000111175	9.77262e-05	2.22204e-06	61.7218	0.00865522	0.00410044	-0.00762228	-4.26534	18.7525	18.7005	1.39473	0.0531869	0.00398935	0.0533363	4.2895	2.00803e+06	2.67715e+07	2.68467e+07	-85.7105	0.0000000E+000	0.0000000E+000	0.0000000E+000	85.7105	0.0000000E+000	0.0000000E+000	0.0000000E+000	-85.7105	0.0000000E+000	0.0000000E+000	0.0000000E+000	-4.2895	0.0000000E+000	0.0000000E+000	0.0000000E+000	4.2895	13.3322	85.7105	9.2162e-06	-2.4915e-07	-8.90962e-11	-2.49061e-07	0.273185	299754	107.192	299646
0.0999041	19.7847	1.97592	19.8831	-5.70328	79.2709	0.273285	0.000398943	806246	7962.28	1	12	0.00481091	0.00024196	0	0.000220604	0.000116803	1.16103e-06	26.4227	0.00479845	0.00429718	-0.00213527	-5.69593	19.8872	19.789	1.97378	0.050045	0.00499805	0.0502939	5.70328	7.96228e+06	7.97255e+07	8.01221e+07	-84.2967	0.0000000E+000	0.0000000E+000	0.0000000E+000	84.2967	0.0000000E+000	0.0000000E+000	0.0000000E+000	-84.2967	0.0000000E+000	0.0000000E+000	0.0000000E+000	-5.70328	0.0000000E+000	0.0000000E+000	0.0000000E+000	5.70328	10.0129	84.2967	4.03386e-05	1.09025e-07	4.65979e-11	1.08978e-07	0.273168	685022	292.782	684729
0.0315922	21.3533	4.12669	21.7484	-10.938	222.153	0.273276	0.000620796	1.22078e+06	43952.8	1	12	0.00481443	0.000221369	0	-4.3981e-06	0.000135881	2.16522e-06	10.5146	0.00978105	0.00961681	-0.0017849	-10.9286	21.7575	21.3629	4.12491	0.045145	0.00872462	0.0459804	10.938	4.39528e+07	2.27431e+08	2.31639e+08	-79.062	0.0000000E+000	0.0000000E+000	0.0000000E+000	79.062	0.0000000E+000	0.0000000E+000	0.0000000E+000	-79.062	0.0000000E+000	0.0000000E+000	0.0000000E+000	-10.938	0.0000000E+000	0.0000000E+000	0.0000000E+000	10.938	5.17444	79.062	-0.000177196	1.69649e-07	8.43542e-11	1.69564e-07	0.27314	440203	218.882	439984
0.0100092	24.3655	9.92203	26.3083	-22.1569	673.375	0.273281	-0.00147407	1.60259e+06	227949	1	12	0.00481301	0.000182947	0	-0.000416464	2.33964e-06	2.75267e-06	9.21423	0.0150463	0.0148521	-0.00240931	-22.1399	26.3211	24.3804	9.91962	0.0352039	0.0143356	0.0380109	22.1569	2.27949e+08	5.59775e+08	6.04408e+08	-67.843	0.0000000E+000	0.0000000E+000	0.0000000E+000	67.843	0.0000000E+000	0.0000000E+000	0.0000000E+000	-67.843	0.0000000E+000	0.0000000E+000	0.0000000E+000	-22.1569	0.0000000E+000	0.0000000E+000	0.0000000E+000	22.1569	2.4557	67.843	7.13794e-05	-4.02835e-07	-3.4488e-12	-4.02831e-07	0.273278	185392	1.5872	185391

File: 18215_R279_UA653_SOC00_C02.mpt
EC-Lab ASCII FILE
Nb header lines : 65

Potentio Electrochemical Impedance Spectroscopy

Run on channel : 2 (SN 66139)
User :
CE vs. WE compliance from -10 V to 10 V
Electrode connection : standard
Potential control : Ewe
Ewe ctrl range : min = -10.00 V, max = 10.00 V
Safety Limits :
	Do not start on E overload
Acquisition started on : 10/08/2025 08:30:28.978
Technique started on : 10/08/2025 08:30:30.572
Loaded Setting File :  C:\Users\Celltest\OneDrive - store-dot.com\Documents\EC-Lab\Data\@Biologic Test Protocols\anode half cell EIS SOC00.mps
Saved on :
	File : 18215_R279_UA653_SOC00_C02.mpr
	Directory : C:\Users\Celltest\OneDrive - store-dot.com\Documents\EC-Lab\Data\Charmaine\
	Host : 169.254.61.224
Device : VMP-3e (SN .003165)
Address : USB
EC-LAB for windows v11.62 (software)
Internet server v27.00 (firmware)
Command interpretor v12.03 (firmware)
Electrode material :
Initial state :
Electrolyte :
Comments :
Electrode surface area : 0.001 cm²
Characteristic mass : 0.001 g
Equivalent Weight : 0.000 g/eq.
Density : 0.000 g/cm3
Volume (V) : 0.001 cm³
Record Ece
Cycle Definition : Charge/Discharge alternance
Mode                Single sine
E (V)               0.0000
vs.                 Eoc
tE (h:m:s)          0:00:0.0000
record              0
dI                  0.000
unit dI             mA
dt (s)              0.000
fi                  100.000
unit fi             kHz
ff                  10.000
unit ff             mHz
Nd                  6
Points              per decade
spacing             Logarithmic
Va (mV)             5.0
pw                  0.10
Na                  2
corr                0
E range min (V)     -10.000
E range max (V)     10.000
I Range             Auto
Bandwidth           5
nc cycles           0
goto Ns'            0
nr cycles           0
inc. cycle          0

freq/Hz	Re(Z)/Ohm	-Im(Z)/Ohm	|Z|/Ohm	Phase(Z)/deg	time/s	<Ewe>/V	<I>/mA	Cs/µF	Cp/µF	cycle number	I Range	|Ewe|/V	|I|/A	Ns	(Q-Qo)/mA.h	<Ece>/V	|Ece|/V	Phase(Zce)/deg	|Zce|/Ohm	Re(Zce)/Ohm	-Im(Zce)/Ohm	Phase(Zwe-ce)/deg	|Zwe-ce|/Ohm	Re(Zwe-ce)/Ohm	-Im(Zwe-ce)/Ohm	Re(Y)/Ohm-1	Im(Y)/Ohm-1	|Y|/Ohm-1	Phase(Y)/deg	Re(C)/nF	Im(C)/nF	|C|/nF	Phase(C)/deg	Re(M)	Im(M)	|M|	Phase(M)/deg	Re(Permittivity)	Im(Permittivity)	|Permittivity|	Phase(Permittivity)/deg	Re(Resistivity)/Ohm.cm	Im(Resistivity)/Ohm.cm	|Resistivity|/Ohm.cm	Phase(Resistivity)/deg	Re(Conductivity)/mS/cm	Im(Conductivity)/mS/cm	|Conductivity|/mS/cm	Phase(Conductivity)/deg	Tan(Delta)	Loss Angle(Delta)/deg	dq/mA.h	Pwe/W	Pce/W	Pwe-ce/W	<Ewe-Ece>/V	Rwe/Ohm	Rce/Ohm	Rwe-ce/Ohm		Ewe-Ece/V
100004	1.26832	-0.00312529	1.26832	0.141183	1.59352	0.270456	0.00935102	-509.23	-0.00309197	1	9	0.00227409	0.001793	0	-3.76222e-06	0.000133978	1.30859e-05	57.3861	0.00729837	0.00393364	-0.00614758	0.417596	1.27228	1.27225	-0.00927286	0.788442	-0.00194282	0.788444	-0.141183	-3.09194	1254.8	1254.8	-90.1412	0.0000000E+000	0.0000000E+000	0.0000000E+000	90.1412	0.0000000E+000	0.0000000E+000	0.0000000E+000	-90.1412	0.0000000E+000	0.0000000E+000	0.0000000E+000	0.141183	0.0000000E+000	0.0000000E+000	0.0000000E+000	-0.141183	405.824	89.8588	-3.76222e-06	2.52904e-06	1.25283e-09	2.52779e-06	0.270322	28922.7	14.3277	28908.3
31621.1	1.38106	0.344998	1.4235	-14.0259	2.99056	0.270434	0.0169864	14.589	0.856932	1	9	0.00494533	0.00347407	0	-0.000256509	0.000343978	9.45822e-06	52.3255	0.00272252	0.00166394	-0.00215486	-13.9256	1.42459	1.38272	0.342844	0.681551	0.170257	0.702495	14.0259	856.932	3430.37	3535.79	-75.9741	0.0000000E+000	0.0000000E+000	0.0000000E+000	75.9741	0.0000000E+000	0.0000000E+000	0.0000000E+000	-75.9741	0.0000000E+000	0.0000000E+000	0.0000000E+000	-14.0259	0.0000000E+000	0.0000000E+000	0.0000000E+000	14.0259	4.00308	75.9741	-0.000253005	4.59372e-06	5.84296e-09	4.58787e-06	0.27009	15920.6	20.2501	15900.4
10002.2	1.6407	0.485069	1.7109	-16.4702	4.01555	0.270436	0.0180666	32.8035	2.63679	1	9	0.00539524	0.00315344	0	-0.000271528	0.000229433	1.40793e-05	-46.5033	0.00446473	0.00307313	0.00323878	-16.5448	1.71477	1.64377	0.488308	0.560503	0.165711	0.584486	16.4702	2636.79	8918.7	9300.32	-73.5298	0.0000000E+000	0.0000000E+000	0.0000000E+000	73.5298	0.0000000E+000	0.0000000E+000	0.0000000E+000	-73.5298	0.0000000E+000	0.0000000E+000	0.0000000E+000	-16.4702	0.0000000E+000	0.0000000E+000	0.0000000E+000	16.4702	3.38241	73.5298	-1.54102e-06	4.88586e-06	4.14506e-09	4.88171e-06	0.270207	14968.9	12.6993	14956.2
3163.08	1.99098	0.745358	2.12593	-20.5243	4.91367	0.270292	-0.0571329	67.5064	8.29809	1	9	0.00522872	0.0024595	0	-0.000277456	0.000248523	9.46908e-06	-80.1839	0.00385	0.000656372	0.00379363	-20.6137	2.12788	1.99164	0.749152	0.440525	0.164918	0.470383	20.5243	8298.09	22165.6	23668	-69.4757	0.0000000E+000	0.0000000E+000	0.0000000E+000	69.4757	0.0000000E+000	0.0000000E+000	0.0000000E+000	-69.4757	0.0000000E+000	0.0000000E+000	0.0000000E+000	-20.5243	0.0000000E+000	0.0000000E+000	0.0000000E+000	20.5243	2.67117	69.4757	-7.21065e-06	-1.54426e-05	-1.41989e-08	-1.54284e-05	0.270043	4730.93	4.34992	4726.58
1000.32	2.49259	1.3141	2.81778	-27.7982	6.26685	0.270343	-0.0234999	121.075	26.3327	1	9	0.00509678	0.00180879	0	-0.000284961	-0.00028602	1.64183e-06	-86.9292	0.000907694	4.8625e-05	0.000906391	-27.8141	2.81824	2.49264	1.315	0.313934	0.165506	0.35489	27.7982	26332.7	49948.1	56464.3	-62.2018	0.0000000E+000	0.0000000E+000	0.0000000E+000	62.2018	0.0000000E+000	0.0000000E+000	0.0000000E+000	-62.2018	0.0000000E+000	0.0000000E+000	0.0000000E+000	-27.7982	0.0000000E+000	0.0000000E+000	0.0000000E+000	27.7982	1.89681	62.2018	-2.92931e-06	-6.35305e-06	6.72145e-09	-6.35977e-06	0.270629	11504	12.1711	11516.2
316.316	3.47744	2.57977	4.32988	-36.5702	7.86205	0.270364	-0.030446	195.037	69.2357	1	10	0.00507415	0.00117189	0	-0.000297635	0.000267614	4.37195e-05	4.16187	0.0373067	0.0372083	-0.00270751	-36.2502	4.35821	3.51465	2.57707	0.185485	0.137604	0.230954	36.5702	69235.7	93327.2	116205	-53.4298	0.0000000E+000	0.0000000E+000	0.0000000E+000	53.4298	0.0000000E+000	0.0000000E+000	0.0000000E+000	-53.4298	0.0000000E+000	0.0000000E+000	0.0000000E+000	-36.5702	0.0000000E+000	0.0000000E+000	0.0000000E+000	36.5702	1.34796	53.4298	-3.6737e-06	-8.23148e-06	-8.14777e-09	-8.22333e-06	0.270096	8880.12	8.78981	8871.33
100.032	5.96728	4.80985	7.66441	-38.8701	9.20978	0.27038	-0.0286392	330.788	130.273	1	10	0.00501106	0.00065381	0	-0.0003094	9.57967e-05	4.13704e-05	-27.2906	0.0632758	0.0562327	0.0290122	-38.7759	7.72641	6.02352	4.83886	0.101583	0.0818794	0.130473	38.8701	130273	161622	207588	-51.1299	0.0000000E+000	0.0000000E+000	0.0000000E+000	51.1299	0.0000000E+000	0.0000000E+000	0.0000000E+000	-51.1299	0.0000000E+000	0.0000000E+000	0.0000000E+000	-38.8701	0.0000000E+000	0.0000000E+000	0.0000000E+000	38.8701	1.24064	51.1299	-2.80555e-06	-7.74349e-06	-2.74354e-09	-7.74075e-06	0.270285	9440.91	3.34495	9437.56
[...]
1.00006	18.6136	1.46953	18.6715	-4.51408	19.277	0.270399	-0.0153188	108297	670.826	1	12	0.00503546	0.000269686	0	-0.000355534	5.7615e-05	2.21894e-06	-8.65973	0.00822787	0.00813407	0.00123884	-4.51591	18.6797	18.6218	1.47077	0.0533913	0.00421519	0.0535574	4.51408	670826	8.49695e+06	8.52339e+06	-85.4859	0.0000000E+000	0.0000000E+000	0.0000000E+000	85.4859	0.0000000E+000	0.0000000E+000	0.0000000E+000	-85.4859	0.0000000E+000	0.0000000E+000	0.0000000E+000	-4.51408	0.0000000E+000	0.0000000E+000	0.0000000E+000	4.51408	12.6664	85.4859	-5.19753e-06	-4.14219e-06	-8.82595e-10	-4.14131e-06	0.270341	17651.4	3.76106	17647.6
0.316193	19.5057	1.37209	19.5539	-4.02374	33.6218	0.270394	-0.0104904	366847	1806.28	1	12	0.00503436	0.000257461	0	-0.000397687	0.000229433	1.36198e-06	-62.8816	0.00529003	0.00241136	0.00470848	-4.037	19.5566	19.5081	1.3768	0.0510147	0.00358853	0.0511408	4.02374	1.80628e+06	2.56781e+07	2.57416e+07	-85.9763	0.0000000E+000	0.0000000E+000	0.0000000E+000	85.9763	0.0000000E+000	0.0000000E+000	0.0000000E+000	-85.9763	0.0000000E+000	0.0000000E+000	0.0000000E+000	-4.02374	0.0000000E+000	0.0000000E+000	0.0000000E+000	4.02374	14.216	85.9763	-2.952e-05	-2.83653e-06	-2.40683e-09	-2.83413e-06	0.270165	25775.5	21.8708	25753.6
0.0999041	20.554	1.85458	20.6375	-5.15582	78.8299	0.27039	-0.00729579	858996	6936.95	1	12	0.00503486	0.000243967	0	-0.000618048	7.67059e-05	1.90705e-06	-12.0709	0.00781683	0.00764399	0.00163467	-5.15843	20.6452	20.5616	1.85621	0.0482595	0.00435444	0.0484555	5.15582	6.93696e+06	7.6881e+07	7.71934e+07	-84.8442	0.0000000E+000	0.0000000E+000	0.0000000E+000	84.8442	0.0000000E+000	0.0000000E+000	0.0000000E+000	-84.8442	0.0000000E+000	0.0000000E+000	0.0000000E+000	-5.15582	0.0000000E+000	0.0000000E+000	0.0000000E+000	5.15582	11.0828	84.8442	-8.73001e-05	-1.97271e-06	-5.5963e-10	-1.97215e-06	0.270313	37061.1	10.5137	37050.6
0.0315922	21.9099	3.85018	22.2456	-9.9667	221.713	0.270392	-0.00392449	1.30846e+06	39195.1	1	12	0.00503414	0.000226298	0	-0.000580425	0.000153069	3.62982e-06	-5.64488	0.01604	0.0159623	0.00157774	-9.96358	22.2616	21.9259	3.85176	0.0442742	0.00778021	0.0449526	9.9667	3.91951e+07	2.23044e+08	2.26462e+08	-80.0333	0.0000000E+000	0.0000000E+000	0.0000000E+000	80.0333	0.0000000E+000	0.0000000E+000	0.0000000E+000	-80.0333	0.0000000E+000	0.0000000E+000	0.0000000E+000	-9.9667	0.0000000E+000	0.0000000E+000	0.0000000E+000	9.9667	5.69062	80.0333	0.000110515	-1.06115e-06	-6.00718e-10	-1.06055e-06	0.270239	68898.7	39.0036	68859.7
0.0100092	24.5976	9.30502	26.2988	-20.7211	672.936	0.270382	0.000105033	1.70885e+06	213929	1	12	0.00503323	0.000191387	0	-0.000301901	0.00017216	1.36486e-06	-7.02062	0.00713141	0.00707794	0.000871648	-20.7174	26.3057	24.6047	9.30589	0.0355649	0.0134539	0.0380246	20.7211	2.13929e+08	5.65515e+08	6.04626e+08	-69.2789	0.0000000E+000	0.0000000E+000	0.0000000E+000	69.2789	0.0000000E+000	0.0000000E+000	0.0000000E+000	-69.2789	0.0000000E+000	0.0000000E+000	0.0000000E+000	-20.7211	0.0000000E+000	0.0000000E+000	0.0000000E+000	20.7211	2.64348	69.2789	-0.000110919	2.8399e-08	1.80824e-11	2.83809e-08	0.27021	2.57427e+06	1639.11	2.57263e+06