Folder: EIS/txt (part 153)

File: 19010_R308_UA709_SOC00_C06.mpt
EC-Lab ASCII FILE
Nb header lines : 66

Potentio Electrochemical Impedance Spectroscopy

Run on channel : 6 (SN 65795)
Grouped channel(s) : 6, 7, 8
User :
CE vs. WE compliance from -10 V to 10 V
Electrode connection : standard
Potential control : Ewe
Ewe ctrl range : min = -10.00 V, max = 10.00 V
Safety Limits :
	Do not start on E overload
Acquisition started on : 11/04/2025 16:28:53.021
Technique started on : 11/04/2025 16:28:54.890
Loaded Setting File :  C:\Users\Celltest\OneDrive - store-dot.com\Documents\EC-Lab\Data\@Biologic Test Protocols\anode half cell EIS SOC00.mps
Saved on :
	File : 19010_R308_UA709_SOC00_C06.mpr
	Directory : C:\Users\Celltest\OneDrive - store-dot.com\Documents\EC-Lab\Data\Charmaine\
	Host : 169.254.61.224
Device : VMP-3e (SN .003165)
Address : USB
EC-LAB for windows v11.62 (software)
Internet server v27.00 (firmware)
Command interpretor v12.03 (firmware)
Electrode material :
Initial state :
Electrolyte :
Comments :
Electrode surface area : 0.001 cm²
Characteristic mass : 0.001 g
Equivalent Weight : 0.000 g/eq.
Density : 0.000 g/cm3
Volume (V) : 0.001 cm³
Record Ece
Cycle Definition : Charge/Discharge alternance
Mode                Single sine
E (V)               0.0000
vs.                 Eoc
tE (h:m:s)          0:00:0.0000
record              0
dI                  0.000
unit dI             mA
dt (s)              0.000
fi                  100.000
unit fi             kHz
ff                  10.000
unit ff             mHz
Nd                  6
Points              per decade
spacing             Logarithmic
Va (mV)             5.0
pw                  0.10
Na                  2
corr                0
E range min (V)     -10.000
E range max (V)     10.000
I Range             Auto
Bandwidth           5
nc cycles           0
goto Ns'            0
nr cycles           0
inc. cycle          0

freq/Hz	Re(Z)/Ohm	-Im(Z)/Ohm	|Z|/Ohm	Phase(Z)/deg	time/s	<Ewe>/V	<I>/mA	Cs/µF	Cp/µF	cycle number	I Range	|Ewe|/V	|I|/A	Ns	(Q-Qo)/mA.h	<Ece>/V	|Ece|/V	Phase(Zce)/deg	|Zce|/Ohm	Re(Zce)/Ohm	-Im(Zce)/Ohm	Phase(Zwe-ce)/deg	|Zwe-ce|/Ohm	Re(Zwe-ce)/Ohm	-Im(Zwe-ce)/Ohm	Re(Y)/Ohm-1	Im(Y)/Ohm-1	|Y|/Ohm-1	Phase(Y)/deg	Re(C)/nF	Im(C)/nF	|C|/nF	Phase(C)/deg	Re(M)	Im(M)	|M|	Phase(M)/deg	Re(Permittivity)	Im(Permittivity)	|Permittivity|	Phase(Permittivity)/deg	Re(Resistivity)/Ohm.cm	Im(Resistivity)/Ohm.cm	|Resistivity|/Ohm.cm	Phase(Resistivity)/deg	Re(Conductivity)/mS/cm	Im(Conductivity)/mS/cm	|Conductivity|/mS/cm	Phase(Conductivity)/deg	Tan(Delta)	Loss Angle(Delta)/deg	dq/mA.h	Pwe/W	Pce/W	Pwe-ce/W	<Ewe-Ece>/V	Rwe/Ohm	Rce/Ohm	Rwe-ce/Ohm		Ewe-Ece/V
100004	1.94816	0.876049	2.13607	-24.2125	1.86856	0.2478	0.0491258	1.81667	0.305564	1	9	0.00492084	0.00230369	0	5.02489e-06	0.000195492	3.85946e-05	51.1238	0.0167534	0.0105151	-0.0130426	-23.7786	2.14037	1.95867	0.863006	0.426967	0.191999	0.46815	24.2125	305.564	679.514	745.056	-65.7875	0.0000000E+000	0.0000000E+000	0.0000000E+000	65.7875	0.0000000E+000	0.0000000E+000	0.0000000E+000	-65.7875	0.0000000E+000	0.0000000E+000	0.0000000E+000	-24.2125	0.0000000E+000	0.0000000E+000	0.0000000E+000	24.2125	2.2238	65.7875	5.02489e-06	1.21734e-05	9.60369e-09	1.21638e-05	0.247604	5044.19	3.97941	5040.21
31621.1	2.77893	1.11181	2.99309	-21.8055	3.01856	0.247777	0.0380626	4.52704	0.624643	1	9	0.0053906	0.00180102	0	2.33364e-05	0.0001191	8.77266e-06	49.9496	0.00487095	0.00313427	-0.00372861	-21.717	2.99462	2.78207	1.10808	0.310198	0.124105	0.334103	21.8055	624.643	1561.28	1681.6	-68.1945	0.0000000E+000	0.0000000E+000	0.0000000E+000	68.1945	0.0000000E+000	0.0000000E+000	0.0000000E+000	-68.1945	0.0000000E+000	0.0000000E+000	0.0000000E+000	-21.8055	0.0000000E+000	0.0000000E+000	0.0000000E+000	21.8055	2.49948	68.1945	4.19643e-06	9.43105e-06	4.53324e-09	9.42652e-06	0.247658	6509.74	3.12904	6506.61
10002.2	3.62945	1.16211	3.81096	-17.7545	4.16953	0.247781	0.0249506	13.6923	1.27322	1	9	0.00523214	0.00137292	0	3.8506e-05	0.00021459	7.85887e-06	-62.7212	0.0057242	0.00262352	0.00508759	-17.8153	3.81501	3.63207	1.1672	0.249903	0.0800166	0.262401	17.7545	1273.22	3976.45	4175.31	-72.2455	0.0000000E+000	0.0000000E+000	0.0000000E+000	72.2455	0.0000000E+000	0.0000000E+000	0.0000000E+000	-72.2455	0.0000000E+000	0.0000000E+000	0.0000000E+000	-17.7545	0.0000000E+000	0.0000000E+000	0.0000000E+000	17.7545	3.12315	72.2455	1.87819e-06	6.18228e-06	5.35414e-09	6.17692e-06	0.247566	9930.84	8.60058	9922.24
3163.08	4.3967	1.3338	4.59456	-16.8759	5.52563	0.24772	-0.0158721	37.7241	3.17917	1	10	0.00516321	0.00112377	0	4.07212e-05	0.000252786	6.88396e-06	15.3724	0.00612579	0.00590663	-0.00162389	-16.8352	4.59974	4.4026	1.33218	0.208276	0.0631835	0.217649	16.8759	3179.17	10479.7	10951.3	-73.1241	0.0000000E+000	0.0000000E+000	0.0000000E+000	73.1241	0.0000000E+000	0.0000000E+000	0.0000000E+000	-73.1241	0.0000000E+000	0.0000000E+000	0.0000000E+000	-16.8759	0.0000000E+000	0.0000000E+000	0.0000000E+000	16.8759	3.29637	73.1241	-1.24279e-06	-3.93184e-06	-4.01223e-09	-3.92782e-06	0.247468	15607.3	15.9264	15591.4
1000.32	5.27972	1.961	5.63214	-20.376	6.87881	0.247742	-0.0100326	81.1342	9.83584	1	10	0.00521128	0.000925275	0	3.7166e-05	0.000271884	6.01963e-06	-78.4116	0.00650578	0.00130687	0.00637317	-20.4321	5.63559	5.28103	1.96737	0.166443	0.0618202	0.177552	20.376	9835.84	26481.7	28249.3	-69.624	0.0000000E+000	0.0000000E+000	0.0000000E+000	69.624	0.0000000E+000	0.0000000E+000	0.0000000E+000	-69.624	0.0000000E+000	0.0000000E+000	0.0000000E+000	-20.376	0.0000000E+000	0.0000000E+000	0.0000000E+000	20.376	2.69237	69.624	-2.03953e-06	-2.48549e-06	-2.72769e-09	-2.48276e-06	0.24747	24693.8	27.1002	24666.7
316.316	6.87226	3.46464	7.69621	-26.7549	8.22901	0.247734	-0.009686	145.225	29.4309	1	10	0.00511125	0.000664126	0	3.43247e-05	0.000233688	6.34982e-06	-90.5438	0.00956116	-9.07415e-05	0.00956073	-26.8187	7.70044	6.87217	3.4742	0.116023	0.058493	0.129934	26.7549	29430.9	58377.4	65376.6	-63.2451	0.0000000E+000	0.0000000E+000	0.0000000E+000	63.2451	0.0000000E+000	0.0000000E+000	0.0000000E+000	-63.2451	0.0000000E+000	0.0000000E+000	0.0000000E+000	-26.7549	0.0000000E+000	0.0000000E+000	0.0000000E+000	26.7549	1.98354	63.2451	-6.89407e-07	-2.39955e-06	-2.2635e-09	-2.39728e-06	0.2475	25576.5	24.1263	25552.3
100.032	10.557	5.20593	11.7708	-26.2491	9.57581	0.247757	-0.00928726	305.621	59.7815	1	10	0.00507076	0.000430791	0	3.05722e-05	0.000157296	5.78869e-06	-49.6291	0.0134373	0.00870382	0.0102375	-26.275	11.7831	10.5657	5.21617	0.0761952	0.0375738	0.0849559	26.2491	59781.5	121230	135168	-63.7509	0.0000000E+000	0.0000000E+000	0.0000000E+000	63.7509	0.0000000E+000	0.0000000E+000	0.0000000E+000	-63.7509	0.0000000E+000	0.0000000E+000	0.0000000E+000	-26.2491	0.0000000E+000	0.0000000E+000	0.0000000E+000	26.2491	2.02788	63.7509	-5.45498e-07	-2.30098e-06	-1.46084e-09	-2.29952e-06	0.2476	26677.1	16.9367	26660.1
[...]
1.00006	19.5073	0.989103	19.5324	-2.90265	19.625	0.247767	-0.00659192	160898	412.594	1	12	0.00506133	0.000259125	0	2.2949e-05	6.18054e-05	3.0676e-06	-88.1592	0.0118383	0.000380269	0.0118322	-2.93726	19.5334	19.5077	1.00094	0.0511313	0.00259257	0.051197	2.90265	412594	8.13728e+06	8.14774e+06	-87.0974	0.0000000E+000	0.0000000E+000	0.0000000E+000	87.0974	0.0000000E+000	0.0000000E+000	0.0000000E+000	-87.0974	0.0000000E+000	0.0000000E+000	0.0000000E+000	-2.90265	0.0000000E+000	0.0000000E+000	0.0000000E+000	2.90265	19.7222	87.0974	-9.27358e-08	-1.63326e-06	-4.07416e-10	-1.63285e-06	0.247705	37586.4	9.37593	37577.1
0.316193	19.8909	1.35906	19.9373	-3.9087	33.9671	0.247773	-0.0036488	370364	1720.97	1	12	0.00506163	0.000253877	0	-3.37203e-05	6.18054e-05	3.18284e-06	79.2914	0.0125369	0.00232954	-0.0123186	-3.87292	19.9388	19.8933	1.34674	0.0500406	0.00341905	0.0501572	3.9087	1.72097e+06	2.51878e+07	2.52465e+07	-86.0913	0.0000000E+000	0.0000000E+000	0.0000000E+000	86.0913	0.0000000E+000	0.0000000E+000	0.0000000E+000	-86.0913	0.0000000E+000	0.0000000E+000	0.0000000E+000	-3.9087	0.0000000E+000	0.0000000E+000	0.0000000E+000	3.9087	14.6358	86.0913	-2.93143e-05	-9.04074e-07	-2.25516e-10	-9.03848e-07	0.247711	67905.2	16.9385	67888.2
0.0999041	20.5598	3.08299	20.7896	-8.52811	79.1748	0.247771	-0.00483732	516731	11363.6	1	12	0.0050615	0.000243463	0	-7.31895e-05	0.00031008	1.22665e-06	8.47799	0.00503837	0.00498331	-0.000742804	-8.52405	20.7945	20.5648	3.08225	0.047569	0.0071331	0.0481009	8.52811	1.13636e+07	7.57812e+07	7.66284e+07	-81.4719	0.0000000E+000	0.0000000E+000	0.0000000E+000	81.4719	0.0000000E+000	0.0000000E+000	0.0000000E+000	-81.4719	0.0000000E+000	0.0000000E+000	0.0000000E+000	-8.52811	0.0000000E+000	0.0000000E+000	0.0000000E+000	8.52811	6.66877	81.4719	1.34546e-05	-1.19855e-06	-1.49996e-09	-1.19705e-06	0.247461	51220.7	64.1016	51156.6
0.0315922	22.3345	7.45733	23.5466	-18.4638	222.058	0.247765	-0.00116543	675549	67758.9	1	12	0.00505377	0.000214628	0	0.000142566	-0.000281959	2.31707e-06	-0.628709	0.0107957	0.0107951	0.00011846	-18.4557	23.5569	22.3453	7.45745	0.0402828	0.0134501	0.0424689	18.4638	6.77589e+07	2.02936e+08	2.1395e+08	-71.5362	0.0000000E+000	0.0000000E+000	0.0000000E+000	71.5362	0.0000000E+000	0.0000000E+000	0.0000000E+000	-71.5362	0.0000000E+000	0.0000000E+000	0.0000000E+000	-18.4638	0.0000000E+000	0.0000000E+000	0.0000000E+000	18.4638	2.99498	71.5362	5.92327e-05	-2.88754e-07	3.28605e-10	-2.89083e-07	0.248047	212595	241.935	212837
0.0100092	26.8685	18.0281	32.3563	-33.8606	673.281	0.247759	-0.00208738	882006	273813	1	12	0.00505969	0.000156374	0	-0.000945126	2.36093e-05	1.91205e-06	-23.0794	0.0122274	0.0112487	0.00479322	-33.8566	32.3683	26.8798	18.0329	0.0256641	0.01722	0.0309059	33.8606	2.73813e+08	4.08082e+08	4.91432e+08	-56.1394	0.0000000E+000	0.0000000E+000	0.0000000E+000	56.1394	0.0000000E+000	0.0000000E+000	0.0000000E+000	-56.1394	0.0000000E+000	0.0000000E+000	0.0000000E+000	-33.8606	0.0000000E+000	0.0000000E+000	0.0000000E+000	33.8606	1.49037	56.1394	-0.00057373	-5.17167e-07	-4.92816e-11	-5.17118e-07	0.247736	118694	11.3105	118683

File: 19011_R308_UA709_SOC00_C07.mpt
EC-Lab ASCII FILE
Nb header lines : 65

Potentio Electrochemical Impedance Spectroscopy

Run on channel : 7 (SN 66126)
Grouped channel(s) : 6, 7, 8
User :
CE vs. WE compliance from -10 V to 10 V
Electrode connection : standard
Potential control : Ewe
Ewe ctrl range : min = -10.00 V, max = 10.00 V
Safety Limits :
	Do not start on E overload
Acquisition started on : 11/04/2025 16:28:53.021
Loaded Setting File :  C:\Users\Celltest\OneDrive - store-dot.com\Documents\EC-Lab\Data\@Biologic Test Protocols\anode half cell EIS SOC00.mps
Saved on :
	File : 19010_R308_UA709_SOC00_C07.mpr
	Directory : C:\Users\Celltest\OneDrive - store-dot.com\Documents\EC-Lab\Data\Charmaine\
	Host : 169.254.61.224
Device : VMP-3e (SN .003165)
Address : USB
EC-LAB for windows v11.62 (software)
Internet server v27.00 (firmware)
Command interpretor v12.03 (firmware)
Electrode material :
Initial state :
Electrolyte :
Comments :
Electrode surface area : 0.001 cm²
Characteristic mass : 0.001 g
Equivalent Weight : 0.000 g/eq.
Density : 0.000 g/cm3
Volume (V) : 0.001 cm³
Record Ece
Cycle Definition : Charge/Discharge alternance
Mode                Single sine
E (V)               0.0000
vs.                 Eoc
tE (h:m:s)          0:00:0.0000
record              0
dI                  0.000
unit dI             mA
dt (s)              0.000
fi                  100.000
unit fi             kHz
ff                  10.000
unit ff             mHz
Nd                  6
Points              per decade
spacing             Logarithmic
Va (mV)             5.0
pw                  0.10
Na                  2
corr                0
E range min (V)     -10.000
E range max (V)     10.000
I Range             Auto
Bandwidth           5
nc cycles           0
goto Ns'            0
nr cycles           0
inc. cycle          0

freq/Hz	Re(Z)/Ohm	-Im(Z)/Ohm	|Z|/Ohm	Phase(Z)/deg	time/s	<Ewe>/V	<I>/mA	Cs/µF	Cp/µF	cycle number	I Range	|Ewe|/V	|I|/A	Ns	(Q-Qo)/mA.h	<Ece>/V	|Ece|/V	Phase(Zce)/deg	|Zce|/Ohm	Re(Zce)/Ohm	-Im(Zce)/Ohm	Phase(Zwe-ce)/deg	|Zwe-ce|/Ohm	Re(Zwe-ce)/Ohm	-Im(Zwe-ce)/Ohm	Re(Y)/Ohm-1	Im(Y)/Ohm-1	|Y|/Ohm-1	Phase(Y)/deg	Re(C)/nF	Im(C)/nF	|C|/nF	Phase(C)/deg	Re(M)	Im(M)	|M|	Phase(M)/deg	Re(Permittivity)	Im(Permittivity)	|Permittivity|	Phase(Permittivity)/deg	Re(Resistivity)/Ohm.cm	Im(Resistivity)/Ohm.cm	|Resistivity|/Ohm.cm	Phase(Resistivity)/deg	Re(Conductivity)/mS/cm	Im(Conductivity)/mS/cm	|Conductivity|/mS/cm	Phase(Conductivity)/deg	Tan(Delta)	Loss Angle(Delta)/deg	dq/mA.h	Pwe/W	Pce/W	Pwe-ce/W	<Ewe-Ece>/V	Rwe/Ohm	Rce/Ohm	Rwe-ce/Ohm		Ewe-Ece/V
100004	2.00618	0.816807	2.16609	-22.1535	1.91054	0.239578	0.0591754	1.94843	0.277059	1	9	0.00459982	0.00212356	0	1.11852e-05	-3.34546e-05	4.13649e-05	75.2538	0.019479	0.00495816	-0.0188374	-21.642	2.16366	2.01114	0.79797	0.427581	0.174088	0.461662	22.1535	277.059	680.491	734.731	-67.8465	0.0000000E+000	0.0000000E+000	0.0000000E+000	67.8465	0.0000000E+000	0.0000000E+000	0.0000000E+000	-67.8465	0.0000000E+000	0.0000000E+000	0.0000000E+000	-22.1535	0.0000000E+000	0.0000000E+000	0.0000000E+000	22.1535	2.45612	67.8465	1.11852e-05	1.41771e-05	-1.97969e-09	1.41791e-05	0.239611	4048.61	0.565347	4049.17
31621.1	2.75258	1.03811	2.94183	-20.6634	3.30955	0.239601	0.0608883	4.84843	0.603738	1	9	0.00531219	0.00180574	0	4.70626e-05	-1.43792e-05	1.68025e-05	30.7727	0.00930504	0.00799492	-0.00476078	-20.522	2.94764	2.76058	1.03335	0.318057	0.119952	0.339924	20.6634	603.738	1600.84	1710.9	-69.3366	0.0000000E+000	0.0000000E+000	0.0000000E+000	69.3366	0.0000000E+000	0.0000000E+000	0.0000000E+000	-69.3366	0.0000000E+000	0.0000000E+000	0.0000000E+000	-20.6634	0.0000000E+000	0.0000000E+000	0.0000000E+000	20.6634	2.65154	69.3366	4.56063e-06	1.45889e-05	-8.75526e-10	1.45898e-05	0.239616	3935.1	0.236158	3935.33
10002.2	3.54637	1.14063	3.72529	-17.8294	4.33455	0.239567	0.0446161	13.9502	1.30781	1	9	0.00539677	0.00144869	0	6.55647e-05	-1.43792e-05	3.55399e-06	24.0479	0.00245325	0.00224032	-0.0009997	-17.8043	3.72712	3.54861	1.13963	0.255543	0.0821907	0.268435	17.8294	1307.81	4066.19	4271.33	-72.1706	0.0000000E+000	0.0000000E+000	0.0000000E+000	72.1706	0.0000000E+000	0.0000000E+000	0.0000000E+000	-72.1706	0.0000000E+000	0.0000000E+000	0.0000000E+000	-17.8294	0.0000000E+000	0.0000000E+000	0.0000000E+000	17.8294	3.10915	72.1706	2.56701e-06	1.06885e-05	-6.41545e-10	1.06892e-05	0.239581	5369.52	0.322288	5369.84
3163.08	4.35314	1.35752	4.5599	-17.3199	5.38964	0.239517	-0.00664437	37.0651	3.28506	1	10	0.00541395	0.0011873	0	7.19545e-05	-0.000434039	3.99528e-06	-77.413	0.00336502	0.000733311	0.00328415	-17.3566	4.56158	4.35388	1.3608	0.209359	0.0652881	0.219303	17.3199	3285.06	10534.2	11034.5	-72.6801	0.0000000E+000	0.0000000E+000	0.0000000E+000	72.6801	0.0000000E+000	0.0000000E+000	0.0000000E+000	-72.6801	0.0000000E+000	0.0000000E+000	0.0000000E+000	-17.3199	0.0000000E+000	0.0000000E+000	0.0000000E+000	17.3199	3.2067	72.6801	4.20615e-07	-1.59144e-06	2.88391e-09	-1.59433e-06	0.239952	36048.2	65.3243	36113.5
1000.32	5.27237	1.98553	5.63384	-20.6359	6.74281	0.239512	-0.00145857	80.132	9.95285	1	10	0.00532401	0.000945005	0	7.25715e-05	-0.000186058	8.061e-06	-57.401	0.00853011	0.00459565	0.00718629	-20.6878	5.64068	5.27696	1.99271	0.16611	0.0625556	0.177499	20.6359	9952.84	26428.8	28240.8	-69.3641	0.0000000E+000	0.0000000E+000	0.0000000E+000	69.3641	0.0000000E+000	0.0000000E+000	0.0000000E+000	-69.3641	0.0000000E+000	0.0000000E+000	0.0000000E+000	-20.6359	0.0000000E+000	0.0000000E+000	0.0000000E+000	20.6359	2.6554	69.3641	9.64715e-08	-3.49344e-07	2.71378e-10	-3.49616e-07	0.239698	164210	127.562	164338
316.316	6.8977	3.4236	7.70061	-26.397	8.09306	0.239519	-0.00218452	146.966	29.0491	1	10	0.00524828	0.00068154	0	7.26051e-05	-7.16055e-05	4.74277e-06	76.4993	0.0069589	0.0016246	-0.00676661	-26.3466	7.69906	6.89933	3.41684	0.11632	0.0577343	0.12986	26.397	29049.1	58526.6	65339.2	-63.603	0.0000000E+000	0.0000000E+000	0.0000000E+000	63.603	0.0000000E+000	0.0000000E+000	0.0000000E+000	-63.603	0.0000000E+000	0.0000000E+000	0.0000000E+000	-26.397	0.0000000E+000	0.0000000E+000	0.0000000E+000	26.397	2.01475	63.603	1.43095e-07	-5.23233e-07	1.56424e-10	-5.23389e-07	0.23959	109644	32.7786	109676
100.032	10.6182	4.91837	11.702	-24.8536	9.4408	0.239522	-0.0019686	323.489	57.1455	1	10	0.00523883	0.000447687	0	7.211e-05	-0.000128832	1.27736e-05	-41.0588	0.0285325	0.0215145	0.0187411	-24.8925	11.7294	10.6397	4.93711	0.0775409	0.035917	0.0854554	24.8536	57145.5	123371	135963	-65.1464	0.0000000E+000	0.0000000E+000	0.0000000E+000	65.1464	0.0000000E+000	0.0000000E+000	0.0000000E+000	-65.1464	0.0000000E+000	0.0000000E+000	0.0000000E+000	-24.8536	0.0000000E+000	0.0000000E+000	0.0000000E+000	24.8536	2.15889	65.1464	-2.60226e-07	-4.71523e-07	2.53618e-10	-4.71776e-07	0.239651	121671	65.4433	121737
[...]
1.00006	18.1929	0.856452	18.2131	-2.69527	19.4916	0.239586	-8.30466e-06	185819	410.893	1	12	0.00522651	0.000286965	0	7.8703e-05	-1.43792e-05	1.94947e-06	69.6231	0.00679341	0.00236543	-0.0063683	-2.67491	18.2151	18.1953	0.850084	0.0548449	0.00258188	0.0549056	2.69527	410893	8.72827e+06	8.73794e+06	-87.3047	0.0000000E+000	0.0000000E+000	0.0000000E+000	87.3047	0.0000000E+000	0.0000000E+000	0.0000000E+000	-87.3047	0.0000000E+000	0.0000000E+000	0.0000000E+000	-2.69527	0.0000000E+000	0.0000000E+000	0.0000000E+000	2.69527	21.2422	87.3047	9.265e-06	-1.98968e-09	1.19415e-13	-1.9898e-09	0.2396	2.88496e+07	1731.46	2.88513e+07
0.316193	18.5515	1.3027	18.5972	-4.01676	33.8352	0.239571	0.00194602	386388	1895.91	1	12	0.00522617	0.00028102	0	8.54096e-05	-9.06809e-05	2.22202e-06	-8.94538	0.00790698	0.0078108	0.00122948	-4.01885	18.605	18.5593	1.30393	0.0536396	0.00376661	0.0537717	4.01676	1.89591e+06	2.69993e+07	2.70658e+07	-85.9832	0.0000000E+000	0.0000000E+000	0.0000000E+000	85.9832	0.0000000E+000	0.0000000E+000	0.0000000E+000	-85.9832	0.0000000E+000	0.0000000E+000	0.0000000E+000	-4.01676	0.0000000E+000	0.0000000E+000	0.0000000E+000	4.01676	14.2408	85.9832	-8.71228e-06	4.6621e-07	-1.76467e-10	4.66386e-07	0.239662	123108	46.5982	123155
0.0999041	19.2635	2.86526	19.4754	-8.46015	79.0441	0.239568	-0.00197857	555998	12034.4	1	12	0.00522577	0.000268326	0	-4.45678e-05	-0.000319586	2.13743e-06	-7.53547	0.00796577	0.00789698	0.00104463	-8.45978	19.4834	19.2714	2.8663	0.050788	0.00755421	0.0513467	8.46015	1.20344e+07	8.09092e+07	8.17993e+07	-81.5398	0.0000000E+000	0.0000000E+000	0.0000000E+000	81.5398	0.0000000E+000	0.0000000E+000	0.0000000E+000	-81.5398	0.0000000E+000	0.0000000E+000	0.0000000E+000	-8.46015	0.0000000E+000	0.0000000E+000	0.0000000E+000	8.46015	6.72314	81.5398	-5.10342e-05	-4.74001e-07	6.32322e-10	-4.74633e-07	0.239887	121082	161.524	121243
0.0315922	20.824	7.00852	21.9717	-18.6012	221.929	0.239568	-0.00196574	718810	73137	1	12	0.00522533	0.00023782	0	0.000190665	8.09979e-05	2.57382e-06	-23.4881	0.0108226	0.00992583	0.00431343	-18.6036	21.9825	20.8339	7.01283	0.0431355	0.0145177	0.045513	18.6012	7.3137e+07	2.17308e+08	2.29285e+08	-71.3988	0.0000000E+000	0.0000000E+000	0.0000000E+000	71.3988	0.0000000E+000	0.0000000E+000	0.0000000E+000	-71.3988	0.0000000E+000	0.0000000E+000	0.0000000E+000	-18.6012	0.0000000E+000	0.0000000E+000	0.0000000E+000	18.6012	2.97124	71.3988	0.000185768	-4.70928e-07	-1.5922e-10	-4.70769e-07	0.239487	121872	41.2049	121831
0.0100092	25.4816	17.144	30.7121	-33.9326	673.152	0.239566	-0.00127859	927492	289012	1	12	0.00522819	0.000170233	0	7.94927e-05	2.37716e-05	1.54083e-06	36.7001	0.00905133	0.00725713	-0.00540931	-33.9167	30.7151	25.4889	17.1386	0.0270153	0.0181758	0.0325605	33.9326	2.89012e+08	4.29568e+08	5.17742e+08	-56.0674	0.0000000E+000	0.0000000E+000	0.0000000E+000	56.0674	0.0000000E+000	0.0000000E+000	0.0000000E+000	-56.0674	0.0000000E+000	0.0000000E+000	0.0000000E+000	-33.9326	0.0000000E+000	0.0000000E+000	0.0000000E+000	33.9326	1.48633	56.0674	-0.000356267	-3.06308e-07	-3.03942e-11	-3.06278e-07	0.239543	187367	18.592	187349