Folder: EIS/txt (part 141)

File: 18942_R308_UA704_SOC00_C07.mpt
EC-Lab ASCII FILE
Nb header lines : 66

Potentio Electrochemical Impedance Spectroscopy

Run on channel : 7 (SN 66126)
Grouped channel(s) : 7, 8
User :
CE vs. WE compliance from -10 V to 10 V
Electrode connection : standard
Potential control : Ewe
Ewe ctrl range : min = -10.00 V, max = 10.00 V
Safety Limits :
	Do not start on E overload
Acquisition started on : 11/04/2025 15:28:53.628
Loaded Setting File :  C:\Users\Celltest\OneDrive - store-dot.com\Documents\EC-Lab\Data\@Biologic Test Protocols\anode half cell EIS SOC00.mps
Saved on :
	File : 18942_R308_UA704_SOC00_C07.mpr
	Directory : C:\Users\Celltest\OneDrive - store-dot.com\Documents\EC-Lab\Data\Charmaine\
	Host : 169.254.61.224
Device : VMP-3e (SN .003165)
Address : USB
EC-LAB for windows v11.62 (software)
Internet server v27.00 (firmware)
Command interpretor v12.03 (firmware)
Electrode material :
Initial state :
Electrolyte :
Comments :
Electrode surface area : 0.001 cm²
Characteristic mass : 0.001 g
Equivalent Weight : 0.000 g/eq.
Density : 0.000 g/cm3
Volume (V) : 0.001 cm³
Record Ece
Cycle Definition : Charge/Discharge alternance
Mode                Single sine
E (V)               0.0000
vs.                 Eoc
tE (h:m:s)          0:00:0.0000
record              0
dI                  0.000
unit dI             mA
dt (s)              0.000
fi                  100.000
unit fi             kHz
ff                  10.000
unit ff             mHz
Nd                  6
Points              per decade
spacing             Logarithmic
Va (mV)             5.0
pw                  0.10
Na                  2
corr                0
E range min (V)     -10.000
E range max (V)     10.000
I Range             Auto
Bandwidth           5
nc cycles           0
goto Ns'            0
nr cycles           0
inc. cycle          0

freq/Hz	Re(Z)/Ohm	-Im(Z)/Ohm	|Z|/Ohm	Phase(Z)/deg	time/s	<Ewe>/V	<I>/mA	Cs/µF	Cp/µF	cycle number	I Range	|Ewe|/V	|I|/A	Ns	(Q-Qo)/mA.h	<Ece>/V	|Ece|/V	Phase(Zce)/deg	|Zce|/Ohm	Re(Zce)/Ohm	-Im(Zce)/Ohm	Phase(Zwe-ce)/deg	|Zwe-ce|/Ohm	Re(Zwe-ce)/Ohm	-Im(Zwe-ce)/Ohm	Re(Y)/Ohm-1	Im(Y)/Ohm-1	|Y|/Ohm-1	Phase(Y)/deg	Re(C)/nF	Im(C)/nF	|C|/nF	Phase(C)/deg	Re(M)	Im(M)	|M|	Phase(M)/deg	Re(Permittivity)	Im(Permittivity)	|Permittivity|	Phase(Permittivity)/deg	Re(Resistivity)/Ohm.cm	Im(Resistivity)/Ohm.cm	|Resistivity|/Ohm.cm	Phase(Resistivity)/deg	Re(Conductivity)/mS/cm	Im(Conductivity)/mS/cm	|Conductivity|/mS/cm	Phase(Conductivity)/deg	Tan(Delta)	Loss Angle(Delta)/deg	dq/mA.h	Pwe/W	Pce/W	Pwe-ce/W	<Ewe-Ece>/V	Rwe/Ohm	Rce/Ohm	Rwe-ce/Ohm		Ewe-Ece/V
100004	1.4471	0.533532	1.54232	-20.2385	1.86953	0.240757	0.0642023	2.98294	0.356957	1	9	0.00494889	0.00320873	0	1.3265e-05	-0.000256923	4.15062e-05	57.834	0.0129354	0.00688648	-0.0109499	-19.7691	1.54505	1.45399	0.522582	0.608344	0.224291	0.648374	20.2385	356.957	968.174	1031.88	-69.7615	0.0000000E+000	0.0000000E+000	0.0000000E+000	69.7615	0.0000000E+000	0.0000000E+000	0.0000000E+000	-69.7615	0.0000000E+000	0.0000000E+000	0.0000000E+000	-20.2385	0.0000000E+000	0.0000000E+000	0.0000000E+000	20.2385	2.7123	69.7615	1.3265e-05	1.54572e-05	-1.64951e-08	1.54737e-05	0.241014	3749.97	4.00178	3753.98
31621.1	1.94604	0.731805	2.07909	-20.6087	3.01853	0.240764	0.0648726	6.87776	0.852105	1	9	0.00543901	0.00261606	0	2.88285e-05	-2.80181e-05	1.21603e-05	41.5628	0.00464831	0.003478	-0.00308388	-20.4955	2.08126	1.94952	0.728721	0.450201	0.169297	0.480981	20.6087	852.105	2265.94	2420.86	-69.3913	0.0000000E+000	0.0000000E+000	0.0000000E+000	69.3913	0.0000000E+000	0.0000000E+000	0.0000000E+000	-69.3913	0.0000000E+000	0.0000000E+000	0.0000000E+000	-20.6087	0.0000000E+000	0.0000000E+000	0.0000000E+000	20.6087	2.65923	69.3913	1.28688e-05	1.5619e-05	-1.81761e-09	1.56208e-05	0.240792	3711.33	0.431895	3711.76
10002.2	2.50848	0.918979	2.67151	-20.1203	4.16754	0.240763	0.0625267	17.3148	2.04887	1	9	0.00523017	0.00195775	0	4.47044e-05	-0.000314149	1.19024e-05	-30.2904	0.00607962	0.00524963	0.00306646	-20.1432	2.6775	2.51373	0.922045	0.351476	0.128763	0.37432	20.1203	2048.87	5592.67	5956.16	-69.8797	0.0000000E+000	0.0000000E+000	0.0000000E+000	69.8797	0.0000000E+000	0.0000000E+000	0.0000000E+000	-69.8797	0.0000000E+000	0.0000000E+000	0.0000000E+000	-20.1203	0.0000000E+000	0.0000000E+000	0.0000000E+000	20.1203	2.72964	69.8797	4.0166e-06	1.50541e-05	-1.96427e-08	1.50738e-05	0.241078	3850.57	5.02425	3855.6
3163.08	3.18149	1.21087	3.40412	-20.8367	5.31767	0.240709	0.0476695	41.554	5.2577	1	9	0.00513227	0.00150766	0	5.85283e-05	-0.000409527	1.16509e-05	22.836	0.00772781	0.0071221	-0.00299913	-20.7471	3.40972	3.18861	1.20787	0.274549	0.104493	0.293761	20.8367	5257.7	13814.3	14781	-69.1633	0.0000000E+000	0.0000000E+000	0.0000000E+000	69.1633	0.0000000E+000	0.0000000E+000	0.0000000E+000	-69.1633	0.0000000E+000	0.0000000E+000	0.0000000E+000	-20.8367	0.0000000E+000	0.0000000E+000	0.0000000E+000	20.8367	2.62744	69.1633	5.65824e-06	1.14745e-05	-1.95219e-08	1.1494e-05	0.241119	5049.55	8.59096	5058.14
1000.32	4.12649	1.81673	4.50871	-23.7619	6.91584	0.240723	-0.0100842	87.5773	14.2189	1	10	0.00503582	0.00111691	0	5.77531e-05	-0.000161546	6.26142e-06	104.591	0.00560602	-0.00141224	-0.00542522	-23.706	4.50523	4.12508	1.8113	0.202991	0.0893686	0.221793	23.7619	14218.9	32296.7	35288.2	-66.2381	0.0000000E+000	0.0000000E+000	0.0000000E+000	66.2381	0.0000000E+000	0.0000000E+000	0.0000000E+000	-66.2381	0.0000000E+000	0.0000000E+000	0.0000000E+000	-23.7619	0.0000000E+000	0.0000000E+000	0.0000000E+000	23.7619	2.27139	66.2381	-1.72549e-06	-2.4275e-06	1.62906e-09	-2.42913e-06	0.240884	23871.3	16.0197	23887.3
316.316	5.59898	2.9247	6.31683	-27.5809	8.26604	0.240715	-0.00986829	172.035	36.8792	1	10	0.00490601	0.000776657	0	5.36055e-05	-0.000256923	1.31014e-05	-62.8882	0.0168689	0.00768763	0.0150153	-27.6691	6.33061	5.60666	2.93971	0.140317	0.0732963	0.158307	27.5809	36879.2	70600.7	79652.5	-62.4191	0.0000000E+000	0.0000000E+000	0.0000000E+000	62.4191	0.0000000E+000	0.0000000E+000	0.0000000E+000	-62.4191	0.0000000E+000	0.0000000E+000	0.0000000E+000	-27.5809	0.0000000E+000	0.0000000E+000	0.0000000E+000	27.5809	1.91438	62.4191	-1.56365e-06	-2.37544e-06	2.53539e-09	-2.37798e-06	0.240972	24392.7	26.0352	24418.8
100.032	8.62124	4.22527	9.60098	-26.1095	9.61377	0.240728	-0.00882592	376.553	72.9298	1	10	0.00486575	0.000506797	0	4.97358e-05	8.64344e-05	9.58677e-06	146.222	0.0189164	-0.0157233	-0.010517	-26.0944	9.58223	8.60552	4.21476	0.0935274	0.0458378	0.104156	26.1095	72929.8	148806	165716	-63.8905	0.0000000E+000	0.0000000E+000	0.0000000E+000	63.8905	0.0000000E+000	0.0000000E+000	0.0000000E+000	-63.8905	0.0000000E+000	0.0000000E+000	0.0000000E+000	-26.1095	0.0000000E+000	0.0000000E+000	0.0000000E+000	26.1095	2.0404	63.8905	-8.86183e-07	-2.12465e-06	-7.62863e-10	-2.12389e-06	0.240642	27275.2	9.79324	27265.4
[...]
0.316193	16.7267	1.34985	16.7811	-4.6138	34.02	0.240753	-0.00231655	372891	2412.77	1	12	0.00485615	0.000289383	0	1.28109e-06	-8.94272e-06	2.52174e-06	-3.19281	0.0087142	0.00870067	0.000485347	-4.61307	16.7898	16.7354	1.35034	0.0593979	0.00479345	0.059591	4.6138	2.41277e+06	2.98978e+07	2.9995e+07	-85.3862	0.0000000E+000	0.0000000E+000	0.0000000E+000	85.3862	0.0000000E+000	0.0000000E+000	0.0000000E+000	-85.3862	0.0000000E+000	0.0000000E+000	0.0000000E+000	-4.6138	0.0000000E+000	0.0000000E+000	0.0000000E+000	4.6138	12.3915	85.3862	-2.85703e-05	-5.57716e-07	2.07162e-11	-5.57737e-07	0.240762	103928	3.86037	103932
0.0999041	17.4961	2.80138	17.7189	-9.09669	79.2292	0.240749	-0.00562819	568676	14214.6	1	12	0.00485289	0.000273882	0	-0.000119898	-0.000409527	2.58142e-06	-71.4252	0.00942529	0.00300236	0.00893432	-9.12367	17.7233	17.4991	2.81031	0.055727	0.00892272	0.0564368	9.09669	1.42146e+07	8.87775e+07	8.99083e+07	-80.9033	0.0000000E+000	0.0000000E+000	0.0000000E+000	80.9033	0.0000000E+000	0.0000000E+000	0.0000000E+000	-80.9033	0.0000000E+000	0.0000000E+000	0.0000000E+000	-9.09669	0.0000000E+000	0.0000000E+000	0.0000000E+000	9.09669	6.24552	80.9033	-2.74687e-05	-1.35498e-06	2.30489e-09	-1.35729e-06	0.241159	42775.6	72.7635	42848.4
0.0315922	19.0621	6.44527	20.1223	-18.6814	222.114	0.240747	-0.00234006	781626	80191.4	1	12	0.00485505	0.000241278	0	0.000157419	-0.000161546	2.5033e-06	34.1734	0.0103752	0.0085838	-0.00582773	-18.6579	20.1285	19.0707	6.43944	0.0470779	0.015918	0.0496962	18.6814	8.01914e+07	2.37169e+08	2.50359e+08	-71.3186	0.0000000E+000	0.0000000E+000	0.0000000E+000	71.3186	0.0000000E+000	0.0000000E+000	0.0000000E+000	-71.3186	0.0000000E+000	0.0000000E+000	0.0000000E+000	-18.6814	0.0000000E+000	0.0000000E+000	0.0000000E+000	18.6814	2.95753	71.3186	0.000151109	-5.63361e-07	3.78027e-10	-5.63739e-07	0.240908	102881	69.0352	102950
0.0146812	21.2065	11.9929	24.3628	-29.4893	463.154	0.240751	-0.00198581	903934	219042	1	12	0.00485402	0.000199239	0	-6.58186e-05	-0.000371376	1.74816e-06	29.5862	0.00877418	0.00763015	-0.0043321	-29.4716	24.3673	21.2142	11.9885	0.0357286	0.0202055	0.0410462	29.4893	2.19042e+08	3.87324e+08	4.44972e+08	-60.5107	0.0000000E+000	0.0000000E+000	0.0000000E+000	60.5107	0.0000000E+000	0.0000000E+000	0.0000000E+000	-60.5107	0.0000000E+000	0.0000000E+000	0.0000000E+000	-29.4893	0.0000000E+000	0.0000000E+000	0.0000000E+000	29.4893	1.76826	60.5107	-0.000265623	-4.78086e-07	7.37483e-10	-4.78823e-07	0.241122	121235	187.014	121422

0.0100092	22.9887	15.8377	27.9162	-34.5643	673.337	0.240751	-0.00248609	1.00399e+06	323149	1	12	0.00485606	0.000173951	0	-0.000711384	-0.000142471	2.38182e-06	-7.95434	0.0136925	0.0135607	0.00189482	-34.5517	27.9284	23.0023	15.8396	0.0294986	0.0203227	0.0358215	34.5643	3.23149e+08	4.69055e+08	5.69595e+08	-55.4357	0.0000000E+000	0.0000000E+000	0.0000000E+000	55.4357	0.0000000E+000	0.0000000E+000	0.0000000E+000	-55.4357	0.0000000E+000	0.0000000E+000	0.0000000E+000	-34.5643	0.0000000E+000	0.0000000E+000	0.0000000E+000	34.5643	1.45152	55.4357	-0.000645565	-5.98529e-07	3.54195e-10	-5.98883e-07	0.240894	96839.4	57.3072	96896.7

File: 18943_R308_UA704_SOC00_C08.mpt
EC-Lab ASCII FILE
Nb header lines : 65

Potentio Electrochemical Impedance Spectroscopy

Run on channel : 8 (SN 65398)
Grouped channel(s) : 7, 8
User :
CE vs. WE compliance from -10 V to 10 V
Electrode connection : standard
Potential control : Ewe
Ewe ctrl range : min = -10.00 V, max = 10.00 V
Safety Limits :
	Do not start on E overload
Acquisition started on : 11/04/2025 15:28:53.628
Loaded Setting File :  C:\Users\Celltest\OneDrive - store-dot.com\Documents\EC-Lab\Data\@Biologic Test Protocols\anode half cell EIS SOC00.mps
Saved on :
	File : 18942_R308_UA704_SOC00_C08.mpr
	Directory : C:\Users\Celltest\OneDrive - store-dot.com\Documents\EC-Lab\Data\Charmaine\
	Host : 169.254.61.224
Device : VMP-3e (SN .003165)
Address : USB
EC-LAB for windows v11.62 (software)
Internet server v27.00 (firmware)
Command interpretor v12.03 (firmware)
Electrode material :
Initial state :
Electrolyte :
Comments :
Electrode surface area : 0.001 cm²
Characteristic mass : 0.001 g
Equivalent Weight : 0.000 g/eq.
Density : 0.000 g/cm3
Volume (V) : 0.001 cm³
Record Ece
Cycle Definition : Charge/Discharge alternance
Mode                Single sine
E (V)               0.0000
vs.                 Eoc
tE (h:m:s)          0:00:0.0000
record              0
dI                  0.000
unit dI             mA
dt (s)              0.000
fi                  100.000
unit fi             kHz
ff                  10.000
unit ff             mHz
Nd                  6
Points              per decade
spacing             Logarithmic
Va (mV)             5.0
pw                  0.10
Na                  2
corr                0
E range min (V)     -10.000
E range max (V)     10.000
I Range             Auto
Bandwidth           5
nc cycles           0
goto Ns'            0
nr cycles           0
inc. cycle          0

freq/Hz	Re(Z)/Ohm	-Im(Z)/Ohm	|Z|/Ohm	Phase(Z)/deg	time/s	<Ewe>/V	<I>/mA	Cs/µF	Cp/µF	cycle number	I Range	|Ewe|/V	|I|/A	Ns	(Q-Qo)/mA.h	<Ece>/V	|Ece|/V	Phase(Zce)/deg	|Zce|/Ohm	Re(Zce)/Ohm	-Im(Zce)/Ohm	Phase(Zwe-ce)/deg	|Zwe-ce|/Ohm	Re(Zwe-ce)/Ohm	-Im(Zwe-ce)/Ohm	Re(Y)/Ohm-1	Im(Y)/Ohm-1	|Y|/Ohm-1	Phase(Y)/deg	Re(C)/nF	Im(C)/nF	|C|/nF	Phase(C)/deg	Re(M)	Im(M)	|M|	Phase(M)/deg	Re(Permittivity)	Im(Permittivity)	|Permittivity|	Phase(Permittivity)/deg	Re(Resistivity)/Ohm.cm	Im(Resistivity)/Ohm.cm	|Resistivity|/Ohm.cm	Phase(Resistivity)/deg	Re(Conductivity)/mS/cm	Im(Conductivity)/mS/cm	|Conductivity|/mS/cm	Phase(Conductivity)/deg	Tan(Delta)	Loss Angle(Delta)/deg	dq/mA.h	Pwe/W	Pce/W	Pwe-ce/W	<Ewe-Ece>/V	Rwe/Ohm	Rce/Ohm	Rwe-ce/Ohm		Ewe-Ece/V
100004	1.49526	0.515409	1.5816	-19.0188	1.91153	0.242882	-0.0184499	3.08782	0.327916	1	9	0.00468796	0.00296406	0	-7.23135e-06	0.000305037	4.54026e-05	99.1615	0.0153177	-0.00243884	-0.0151223	-18.5274	1.57443	1.49283	0.500287	0.597756	0.206043	0.632271	19.0188	327.916	951.323	1006.25	-70.9812	0.0000000E+000	0.0000000E+000	0.0000000E+000	70.9812	0.0000000E+000	0.0000000E+000	0.0000000E+000	-70.9812	0.0000000E+000	0.0000000E+000	0.0000000E+000	-19.0188	0.0000000E+000	0.0000000E+000	0.0000000E+000	19.0188	2.90112	70.9812	-7.23135e-06	-4.48115e-06	-5.62791e-09	-4.47552e-06	0.242577	13164.4	16.5333	13147.9
31621.1	1.98244	0.702854	2.10335	-19.5214	3.43256	0.242878	-0.017185	7.16107	0.799624	1	9	0.00512806	0.00243805	0	5.4955e-06	0.000190509	1.34961e-05	4.76373	0.00553563	0.0055165	-0.000459718	-19.4596	2.10839	1.98796	0.702394	0.448103	0.15887	0.475433	19.5214	799.624	2255.38	2392.94	-70.4786	0.0000000E+000	0.0000000E+000	0.0000000E+000	70.4786	0.0000000E+000	0.0000000E+000	0.0000000E+000	-70.4786	0.0000000E+000	0.0000000E+000	0.0000000E+000	-19.5214	0.0000000E+000	0.0000000E+000	0.0000000E+000	19.5214	2.82056	70.4786	5.01211e-08	-4.17387e-06	-3.2739e-09	-4.1706e-06	0.242688	14133.1	11.0858	14122
10002.2	2.52091	0.854939	2.66194	-18.7338	4.45955	0.242877	-0.0104142	18.6118	1.91983	1	9	0.00488449	0.00183494	0	1.03329e-06	0.00038139	1.30011e-05	-116.657	0.00708528	-0.00317881	0.00633217	-18.8849	2.66097	2.51773	0.861271	0.355764	0.120654	0.375667	18.7338	1919.83	5660.9	5977.59	-71.2662	0.0000000E+000	0.0000000E+000	0.0000000E+000	71.2662	0.0000000E+000	0.0000000E+000	0.0000000E+000	-71.2662	0.0000000E+000	0.0000000E+000	0.0000000E+000	-18.7338	0.0000000E+000	0.0000000E+000	0.0000000E+000	18.7338	2.94864	71.2662	-1.90042e-06	-2.52938e-06	-3.97188e-09	-2.5254e-06	0.242495	23321.6	36.6219	23285
3163.08	3.15781	1.17855	3.37057	-20.4664	5.35768	0.242643	-0.0335168	42.6936	5.21976	1	9	0.00455243	0.00135064	0	-4.49565e-06	0.000305037	3.6979e-06	-56.1443	0.00273788	0.00152528	0.00227366	-20.4935	3.37279	3.15934	1.18082	0.277958	0.103739	0.296686	20.4664	5219.76	13985.9	14928.2	-69.5336	0.0000000E+000	0.0000000E+000	0.0000000E+000	69.5336	0.0000000E+000	0.0000000E+000	0.0000000E+000	-69.5336	0.0000000E+000	0.0000000E+000	0.0000000E+000	-20.4664	0.0000000E+000	0.0000000E+000	0.0000000E+000	20.4664	2.67941	69.5336	-2.30939e-06	-8.13261e-06	-1.02239e-08	-8.12239e-06	0.242338	7239.43	9.10102	7230.32
1000.32	4.04294	1.72709	4.39638	-23.1316	6.95686	0.242798	-0.018793	92.1224	14.2169	1	10	0.00456387	0.0010381	0	-5.19226e-06	0.000190509	6.19141e-06	26.6134	0.0059642	0.00533229	-0.00267177	-23.0723	4.40024	4.04827	1.72442	0.209173	0.0893562	0.22746	23.1316	14216.9	33280.3	36189.8	-66.8684	0.0000000E+000	0.0000000E+000	0.0000000E+000	66.8684	0.0000000E+000	0.0000000E+000	0.0000000E+000	-66.8684	0.0000000E+000	0.0000000E+000	0.0000000E+000	-23.1316	0.0000000E+000	0.0000000E+000	0.0000000E+000	23.1316	2.34089	66.8684	-2.99662e-06	-4.56291e-06	-3.58024e-09	-4.55933e-06	0.242608	12919.6	10.1372	12909.5
316.316	5.46501	2.81102	6.14558	-27.2198	8.30709	0.242811	-0.0178593	178.993	37.4487	1	10	0.00450576	0.000733172	0	-1.11121e-05	0.000171421	1.01127e-05	95.8028	0.0137931	-0.00139454	-0.0137224	-27.1118	6.13807	5.46361	2.7973	0.144699	0.0744283	0.162719	27.2198	37448.7	72805.5	81872.2	-62.7802	0.0000000E+000	0.0000000E+000	0.0000000E+000	62.7802	0.0000000E+000	0.0000000E+000	0.0000000E+000	-62.7802	0.0000000E+000	0.0000000E+000	0.0000000E+000	-27.2198	0.0000000E+000	0.0000000E+000	0.0000000E+000	27.2198	1.94414	62.7802	-2.10171e-06	-4.33643e-06	-3.06146e-09	-4.33337e-06	0.242639	13595.8	9.59841	13586.2
100.032	8.40022	3.97395	9.29279	-25.3178	9.86682	0.242806	-0.0178221	400.367	73.2169	1	10	0.00500409	0.000538491	0	-1.88057e-05	3.78045e-05	4.56188e-06	76.2434	0.00847159	0.00201452	-0.00822858	-25.2666	9.2911	8.40223	3.96572	0.0972743	0.0460183	0.10761	25.3178	73216.9	154767	171212	-64.6822	0.0000000E+000	0.0000000E+000	0.0000000E+000	64.6822	0.0000000E+000	0.0000000E+000	0.0000000E+000	-64.6822	0.0000000E+000	0.0000000E+000	0.0000000E+000	-25.3178	0.0000000E+000	0.0000000E+000	0.0000000E+000	25.3178	2.11382	64.6822	-1.39942e-06	-4.32732e-06	-6.73756e-10	-4.32665e-06	0.242769	13623.9	2.12122	13621.8
[...]
1.00006	15.3881	0.955566	15.4178	-3.55337	18.8837	0.242861	-0.00359763	166545	639.749	1	11	0.00499775	0.000324155	0	-5.32382e-05	9.50687e-05	2.78292e-06	20.1132	0.00858516	0.00806159	-0.00295224	-3.54057	15.4256	15.3962	0.952614	0.0647355	0.00401992	0.0648602	3.55337	639749	1.03023e+07	1.03222e+07	-86.4466	0.0000000E+000	0.0000000E+000	0.0000000E+000	86.4466	0.0000000E+000	0.0000000E+000	0.0000000E+000	-86.4466	0.0000000E+000	0.0000000E+000	0.0000000E+000	-3.55337	0.0000000E+000	0.0000000E+000	0.0000000E+000	3.55337	16.1037	86.4466	-1.01219e-05	-8.73725e-07	-3.42022e-10	-8.73382e-07	0.242766	67506	26.4254	67479.6
0.316193	15.7873	1.27222	15.8384	-4.60726	33.225	0.242852	-0.00547352	395643	2552.74	1	11	0.00500091	0.000315746	0	-3.58578e-05	0.000324125	2.88702e-06	47.4022	0.0091435	0.00618875	-0.00673074	-4.5812	15.8441	15.7934	1.26549	0.0629335	0.00507153	0.0631376	4.60726	2.55274e+06	3.16774e+07	3.17801e+07	-85.3927	0.0000000E+000	0.0000000E+000	0.0000000E+000	85.3927	0.0000000E+000	0.0000000E+000	0.0000000E+000	-85.3927	0.0000000E+000	0.0000000E+000	0.0000000E+000	-4.60726	0.0000000E+000	0.0000000E+000	0.0000000E+000	4.60726	12.4092	85.3927	1.78048e-05	-1.32925e-06	-1.77411e-09	-1.32748e-06	0.242528	44368.5	59.217	44309.3
0.0999041	16.4563	2.71773	16.6792	-9.37768	83.1293	0.242852	8.89411e-05	586179	15563	1	12	0.00499091	0.00029923	0	-3.18713e-05	5.68926e-05	3.00111e-06	44.2563	0.0100294	0.00718334	-0.00699923	-9.34995	16.6851	16.4635	2.71073	0.0591537	0.00976916	0.059955	9.37768	1.5563e+07	9.42365e+07	9.55129e+07	-80.6223	0.0000000E+000	0.0000000E+000	0.0000000E+000	80.6223	0.0000000E+000	0.0000000E+000	0.0000000E+000	-80.6223	0.0000000E+000	0.0000000E+000	0.0000000E+000	-9.37768	0.0000000E+000	0.0000000E+000	0.0000000E+000	9.37768	6.05515	80.6223	-3.0957e-05	2.15995e-08	5.06009e-12	2.15945e-08	0.242795	2.73048e+06	639.666	2.72984e+06
0.0315922	18.0169	6.39642	19.1186	-19.5461	226.013	0.242842	-0.00369597	787595	88158.4	1	12	0.00500112	0.000261584	0	-0.000563098	0.000209597	2.44796e-06	-10.0536	0.00935822	0.00921452	0.00163366	-19.5415	19.1279	18.0261	6.39806	0.0492908	0.0174994	0.052305	19.5461	8.81584e+07	2.48317e+08	2.63502e+08	-70.4539	0.0000000E+000	0.0000000E+000	0.0000000E+000	70.4539	0.0000000E+000	0.0000000E+000	0.0000000E+000	-70.4539	0.0000000E+000	0.0000000E+000	0.0000000E+000	-19.5461	0.0000000E+000	0.0000000E+000	0.0000000E+000	19.5461	2.81671	70.4539	-0.000227833	-8.97537e-07	-7.74665e-10	-8.96763e-07	0.242632	65704.4	56.7096	65647.7
0.0100092	21.9209	15.6054	26.9083	-35.4469	677.236	0.24284	-0.00363636	1.01894e+06	342709	1	12	0.00500212	0.000185895	0	-0.000133119	0.000133245	3.41235e-06	-1.25767	0.0183563	0.0183519	0.000402897	-35.425	26.9235	21.9393	15.6058	0.0302752	0.0215528	0.0371633	35.4469	3.42709e+08	4.81403e+08	5.9093e+08	-54.5531	0.0000000E+000	0.0000000E+000	0.0000000E+000	54.5531	0.0000000E+000	0.0000000E+000	0.0000000E+000	-54.5531	0.0000000E+000	0.0000000E+000	0.0000000E+000	-35.4469	0.0000000E+000	0.0000000E+000	0.0000000E+000	35.4469	1.4047	54.5531	0.000355191	-8.83054e-07	-4.84526e-10	-8.82569e-07	0.242707	66781	36.6423	66744.4