Folder: EIS/txt (part 73)

File: 18265_R297_UC86_SOC50_C01.mpt
EC-Lab ASCII FILE
Nb header lines : 64

Potentio Electrochemical Impedance Spectroscopy

Run on channel : 1 (SN 66354)
User :
CE vs. WE compliance from -10 V to 10 V
Electrode connection : standard
Potential control : Ewe
Ewe ctrl range : min = -10.00 V, max = 10.00 V
Safety Limits :
	Do not start on E overload
Acquisition started on : 10/07/2025 16:29:04.375
Loaded Setting File :  C:\Users\Celltest\OneDrive - store-dot.com\Documents\EC-Lab\Data\txt_done\UC80_17231_EIS_50SOC.mps
Saved on :
	File : UC86_18265_SOC50_EIS_C01.mpr
	Directory : C:\Users\Celltest\OneDrive - store-dot.com\Documents\EC-Lab\Data\Michael\R297\
	Host : 169.254.61.224
Device : VMP-3e (SN .003165)
Address : USB
EC-LAB for windows v11.62 (software)
Internet server v27.00 (firmware)
Command interpretor v12.03 (firmware)
Electrode material :
Initial state :
Electrolyte :
Comments :
Electrode surface area : 0.001 cm²
Characteristic mass : 0.001 g
Equivalent Weight : 0.000 g/eq.
Density : 0.000 g/cm3
Volume (V) : 0.001 cm³
Record Ece
Cycle Definition : Charge/Discharge alternance
Mode                Multi sine
E (V)               0.0000
vs.                 Eoc
tE (h:m:s)          0:00:0.0000
record              0
dI                  0.000
unit dI             mA
dt (s)              0.000
fi                  1.000
unit fi             MHz
ff                  0.100
unit ff             mHz
Nd                  10
Points              per decade
spacing             Logarithmic
Va (mV)             5.0
pw                  0.10
Na                  2
corr                0
E range min (V)     -10.000
E range max (V)     10.000
I Range             Auto
Bandwidth           5
nc cycles           0
goto Ns'            0
nr cycles           0
inc. cycle          0

freq/Hz	Re(Z)/Ohm	-Im(Z)/Ohm	|Z|/Ohm	Phase(Z)/deg	time/s	<Ewe>/V	<I>/mA	Cs/µF	Cp/µF	cycle number	I Range	|Ewe|/V	|I|/A	Ns	(Q-Qo)/mA.h	<Ece>/V	|Ece|/V	Phase(Zce)/deg	|Zce|/Ohm	Re(Zce)/Ohm	-Im(Zce)/Ohm	Phase(Zwe-ce)/deg	|Zwe-ce|/Ohm	Re(Zwe-ce)/Ohm	-Im(Zwe-ce)/Ohm	Re(Y)/Ohm-1	Im(Y)/Ohm-1	|Y|/Ohm-1	Phase(Y)/deg	Re(C)/nF	Im(C)/nF	|C|/nF	Phase(C)/deg	Re(M)	Im(M)	|M|	Phase(M)/deg	Re(Permittivity)	Im(Permittivity)	|Permittivity|	Phase(Permittivity)/deg	Re(Resistivity)/Ohm.cm	Im(Resistivity)/Ohm.cm	|Resistivity|/Ohm.cm	Phase(Resistivity)/deg	Re(Conductivity)/mS/cm	Im(Conductivity)/mS/cm	|Conductivity|/mS/cm	Phase(Conductivity)/deg	Tan(Delta)	Loss Angle(Delta)/deg	dq/mA.h	Pwe/W	Pce/W	Pwe-ce/W	<Ewe-Ece>/V	Rwe/Ohm	Rce/Ohm	Rwe-ce/Ohm		Ewe-Ece/V
1.00002e+06	3.22808	1.55564	3.58336	-25.7298	2.33455	3.78743	0.0318574	0.102307	0.0192814	1	10	0.000237481	6.62732e-05	0	6.61951e-06	-0.000207511	0.000196686	-70.7275	2.96781	0.979557	2.80149	-45.9999	6.05712	4.20764	4.35713	0.251398	0.121151	0.279067	25.7298	19.2814	40.0105	44.4141	-64.2702	0.0000000E+000	0.0000000E+000	0.0000000E+000	64.2702	0.0000000E+000	0.0000000E+000	0.0000000E+000	-64.2702	0.0000000E+000	0.0000000E+000	0.0000000E+000	-25.7298	0.0000000E+000	0.0000000E+000	0.0000000E+000	25.7298	2.07509	64.2702	6.61951e-06	0.000120658	-6.61076e-09	0.000120664	3.78764	118887	6.51373	118894
251206	0.783332	0.22223	0.814245	-15.8385	5.03953	3.78714	0.0192932	2.85094	0.212365	1	9	0.00212132	0.00260526	0	3.45731e-05	0.000402963	5.5076e-05	113.812	0.0211403	-0.00853528	-0.0193407	-14.6741	0.80092	0.774796	0.202889	1.18151	0.335191	1.22813	15.8385	212.365	748.558	778.099	-74.1615	0.0000000E+000	0.0000000E+000	0.0000000E+000	74.1615	0.0000000E+000	0.0000000E+000	0.0000000E+000	-74.1615	0.0000000E+000	0.0000000E+000	0.0000000E+000	-15.8385	0.0000000E+000	0.0000000E+000	0.0000000E+000	15.8385	3.52487	74.1615	3.20981e-06	7.30659e-05	7.77444e-09	7.30581e-05	3.78673	196294	20.8863	196273
63093.8	1.12154	0.592711	1.26853	-27.8555	7.33756	3.78708	0.0451477	4.25589	0.929128	1	9	0.00535039	0.0042178	0	7.97056e-05	0.000288499	3.12032e-05	79.4813	0.00739799	0.00135055	-0.00727367	-27.5359	1.26634	1.12289	0.585437	0.696972	0.368335	0.788315	27.8555	929.128	1758.12	1988.53	-62.1445	0.0000000E+000	0.0000000E+000	0.0000000E+000	62.1445	0.0000000E+000	0.0000000E+000	0.0000000E+000	-62.1445	0.0000000E+000	0.0000000E+000	0.0000000E+000	-27.8555	0.0000000E+000	0.0000000E+000	0.0000000E+000	27.8555	1.89223	62.1445	1.43402e-05	0.000170978	1.30251e-08	0.000170965	3.7868	83882.1	6.39012	83875.7
15847.7	1.74699	1.05807	2.04242	-31.2014	9.75952	3.78707	0.0421673	9.49161	2.54729	1	9	0.00498841	0.0024424	0	0.000128278	-0.000226588	7.89633e-06	-49.9338	0.00323301	0.002081	0.00247423	-31.2304	2.04548	1.74907	1.06054	0.418794	0.253644	0.489615	31.2014	2547.29	4205.86	4917.1	-58.7986	0.0000000E+000	0.0000000E+000	0.0000000E+000	58.7986	0.0000000E+000	0.0000000E+000	0.0000000E+000	-58.7986	0.0000000E+000	0.0000000E+000	0.0000000E+000	-31.2014	0.0000000E+000	0.0000000E+000	0.0000000E+000	31.2014	1.65111	58.7986	5.93677e-06	0.000159691	-9.55462e-09	0.0001597	3.78729	89810.4	5.37354	89815.8
3983.6	2.84757	1.79447	3.36582	-32.2181	11.6101	3.78691	-0.0391217	22.2643	6.32846	1	9	0.00458082	0.00136098	0	0.000147562	-9.30469e-05	5.41654e-06	-144.177	0.00397988	-0.003227	0.00232935	-32.281	3.36434	2.84434	1.7968	0.251357	0.158399	0.297104	32.2181	6328.46	10042.4	11870.1	-57.7819	0.0000000E+000	0.0000000E+000	0.0000000E+000	57.7819	0.0000000E+000	0.0000000E+000	0.0000000E+000	-57.7819	0.0000000E+000	0.0000000E+000	0.0000000E+000	-32.2181	0.0000000E+000	0.0000000E+000	0.0000000E+000	32.2181	1.58686	57.7819	-2.87129e-06	-0.00014815	3.64015e-09	-0.000148154	3.787	96798.3	2.3784	96800.7
1000.32	4.88489	2.92515	5.69374	-30.9138	14.4828	3.78698	-0.0122509	54.3917	14.356	1	10	0.0045167	0.000793274	0	0.000143952	0.000174035	7.06016e-06	-92.6669	0.00890002	-0.000414108	0.00889038	-30.9927	5.69796	4.88448	2.93404	0.150681	0.0902304	0.175631	30.9138	14356	23974	27943.7	-59.0862	0.0000000E+000	0.0000000E+000	0.0000000E+000	59.0862	0.0000000E+000	0.0000000E+000	0.0000000E+000	-59.0862	0.0000000E+000	0.0000000E+000	0.0000000E+000	-30.9138	0.0000000E+000	0.0000000E+000	0.0000000E+000	30.9138	1.66996	59.0862	-7.37458e-07	-4.63939e-05	-2.13209e-09	-4.63917e-05	3.78681	309119	14.2059	309104
251.044	8.48177	3.5557	9.19693	-22.7442	17.398	3.78697	-0.0130634	178.297	26.6507	1	10	0.00494973	0.000538194	0	0.000134381	7.86489e-05	1.22034e-05	90.0302	0.0226747	-1.19565e-05	-0.0226747	-22.6138	9.18817	8.48176	3.53302	0.100277	0.0420377	0.108732	22.7442	26650.7	63572.7	68933	-67.2558	0.0000000E+000	0.0000000E+000	0.0000000E+000	67.2558	0.0000000E+000	0.0000000E+000	0.0000000E+000	-67.2558	0.0000000E+000	0.0000000E+000	0.0000000E+000	-22.7442	0.0000000E+000	0.0000000E+000	0.0000000E+000	22.7442	2.38541	67.2558	-1.06457e-06	-4.94706e-05	-1.02742e-09	-4.94695e-05	3.78689	289892	6.02056	289886
63.0823	11.4157	2.07269	11.6024	-10.2908	20.118	3.78698	-0.00899356	1217.25	38.8466	1	10	0.00493049	0.000424955	0	0.000127539	4.04943e-05	1.01864e-05	135.625	0.0239705	-0.0171335	-0.016764	-10.2243	11.5825	11.3986	2.05593	0.0848027	0.0153971	0.0861892	10.2908	38846.6	213955	217453	-79.7092	0.0000000E+000	0.0000000E+000	0.0000000E+000	79.7092	0.0000000E+000	0.0000000E+000	0.0000000E+000	-79.7092	0.0000000E+000	0.0000000E+000	0.0000000E+000	-10.2908	0.0000000E+000	0.0000000E+000	0.0000000E+000	10.2908	5.50769	79.7092	-1.1931e-06	-3.40584e-05	-3.64187e-10	-3.4058e-05	3.78694	421076	4.50258	421072
[...]
0.0602816	15.4284	2.48636	15.6274	-9.15479	240.747	3.78701	0.00301527	1.06187e+06	26879.6	1	11	0.00502924	0.000321821	0	-0.00110952	-0.000207511	6.82398e-07	56.556	0.00212043	0.00116861	-0.00176934	-9.1477	15.6283	15.4295	2.48459	0.0631749	0.0101809	0.06399	9.15479	2.68796e+07	1.66794e+08	1.68946e+08	-80.8452	0.0000000E+000	0.0000000E+000	0.0000000E+000	80.8452	0.0000000E+000	0.0000000E+000	0.0000000E+000	-80.8452	0.0000000E+000	0.0000000E+000	0.0000000E+000	-9.15479	0.0000000E+000	0.0000000E+000	0.0000000E+000	9.15479	6.20521	80.8452	0.000000000000000E+000	1.14189e-05	-6.25701e-10	1.14195e-05	3.78722	1.25594e+06	68.82	1.25601e+06
0.00796479	21.8489	4.54492	22.3166	-11.7508	20329.6	3.78702	0.000747433	4.39663e+06	182354	1	11	0.00502154	0.000225013	0	0.000476946	-0.000112124	6.1956e-07	-16.23	0.00275344	0.00264371	0.000769569	-11.7514	22.3194	21.8516	4.54569	0.0438705	0.00912574	0.0448096	11.7508	1.82354e+08	8.76635e+08	8.954e+08	-78.2492	0.0000000E+000	0.0000000E+000	0.0000000E+000	78.2492	0.0000000E+000	0.0000000E+000	0.0000000E+000	-78.2492	0.0000000E+000	0.0000000E+000	0.0000000E+000	-11.7508	0.0000000E+000	0.0000000E+000	0.0000000E+000	11.7508	4.80734	78.2492	0.00158647	2.83055e-06	-8.38053e-11	2.83063e-06	3.78713	5.0667e+06	150.012	5.06686e+06
0.0019912	25.4553	6.8184	26.3527	-14.9951	20329.6	3.78702	0.000747433	1.17226e+07	784762	1	11	0.00503481	0.000191055	0	0.000476946	-0.000112124	9.27599e-07	-25.8358	0.00485515	0.00436986	0.00211584	-14.9971	26.3575	25.4597	6.82052	0.0366546	0.00981821	0.0379468	14.9951	7.84762e+08	2.92978e+09	3.03306e+09	-75.0049	0.0000000E+000	0.0000000E+000	0.0000000E+000	75.0049	0.0000000E+000	0.0000000E+000	0.0000000E+000	-75.0049	0.0000000E+000	0.0000000E+000	0.0000000E+000	-14.9951	0.0000000E+000	0.0000000E+000	0.0000000E+000	14.9951	3.73333	75.0049	0.000000000000000E+000	2.83055e-06	-8.38053e-11	2.83063e-06	3.78713	5.0667e+06	150.012	5.06686e+06
0.000497799	27.5393	15.0985	31.4066	-28.7339	20329.6	3.78702	0.000747433	2.11754e+07	4.89392e+06	1	11	0.00503618	0.000160354	0	0.000476946	-0.000112124	1.14801e-06	-15.4377	0.00715924	0.00690094	0.00190573	-28.7309	31.4136	27.5462	15.1004	0.0279196	0.015307	0.0318404	28.7339	4.89392e+09	8.92639e+09	1.01799e+10	-61.2661	0.0000000E+000	0.0000000E+000	0.0000000E+000	61.2661	0.0000000E+000	0.0000000E+000	0.0000000E+000	-61.2661	0.0000000E+000	0.0000000E+000	0.0000000E+000	-28.7339	0.0000000E+000	0.0000000E+000	0.0000000E+000	28.7339	1.82398	61.2661	0.000000000000000E+000	2.83055e-06	-8.38053e-11	2.83063e-06	3.78713	5.0667e+06	150.012	5.06686e+06
9.95598e-05	36.9509	66.9165	76.4407	-61.0928	20329.6	3.78702	0.000747433	2.38893e+07	1.83071e+07	1	11	0.00503538	6.58731e-05	0	0.000476946	-0.000112124	1.92455e-06	-54.5977	0.029216	0.0169253	0.0238141	-61.0903	76.4697	36.9678	66.9403	0.00632376	0.0114521	0.013082	61.0928	1.83071e+10	1.01091e+10	2.09128e+10	-28.9072	0.0000000E+000	0.0000000E+000	0.0000000E+000	28.9072	0.0000000E+000	0.0000000E+000	0.0000000E+000	-28.9072	0.0000000E+000	0.0000000E+000	0.0000000E+000	-61.0928	0.0000000E+000	0.0000000E+000	0.0000000E+000	61.0928	0.552194	28.9072	0.000000000000000E+000	2.83055e-06	-8.38053e-11	2.83063e-06	3.78713	5.0667e+06	150.012	5.06686e+06

File: 18266_R297_UC86_SOC50_C02.mpt
EC-Lab ASCII FILE
Nb header lines : 64

Potentio Electrochemical Impedance Spectroscopy

Run on channel : 2 (SN 66139)
User :
CE vs. WE compliance from -10 V to 10 V
Electrode connection : standard
Potential control : Ewe
Ewe ctrl range : min = -10.00 V, max = 10.00 V
Safety Limits :
	Do not start on E overload
Acquisition started on : 10/07/2025 16:29:25.961
Loaded Setting File :  C:\Users\Celltest\OneDrive - store-dot.com\Documents\EC-Lab\Data\txt_done\UC80_17231_EIS_50SOC.mps
Saved on :
	File : UC86_18266_SOC50_EIS_C02.mpr
	Directory : C:\Users\Celltest\OneDrive - store-dot.com\Documents\EC-Lab\Data\Michael\R297\
	Host : 169.254.61.224
Device : VMP-3e (SN .003165)
Address : USB
EC-LAB for windows v11.62 (software)
Internet server v27.00 (firmware)
Command interpretor v12.03 (firmware)
Electrode material :
Initial state :
Electrolyte :
Comments :
Electrode surface area : 0.001 cm²
Characteristic mass : 0.001 g
Equivalent Weight : 0.000 g/eq.
Density : 0.000 g/cm3
Volume (V) : 0.001 cm³
Record Ece
Cycle Definition : Charge/Discharge alternance
Mode                Multi sine
E (V)               0.0000
vs.                 Eoc
tE (h:m:s)          0:00:0.0000
record              0
dI                  0.000
unit dI             mA
dt (s)              0.000
fi                  1.000
unit fi             MHz
ff                  0.100
unit ff             mHz
Nd                  10
Points              per decade
spacing             Logarithmic
Va (mV)             5.0
pw                  0.10
Na                  2
corr                0
E range min (V)     -10.000
E range max (V)     10.000
I Range             Auto
Bandwidth           5
nc cycles           0
goto Ns'            0
nr cycles           0
inc. cycle          0

freq/Hz	Re(Z)/Ohm	-Im(Z)/Ohm	|Z|/Ohm	Phase(Z)/deg	time/s	<Ewe>/V	<I>/mA	Cs/µF	Cp/µF	cycle number	I Range	|Ewe|/V	|I|/A	Ns	(Q-Qo)/mA.h	<Ece>/V	|Ece|/V	Phase(Zce)/deg	|Zce|/Ohm	Re(Zce)/Ohm	-Im(Zce)/Ohm	Phase(Zwe-ce)/deg	|Zwe-ce|/Ohm	Re(Zwe-ce)/Ohm	-Im(Zwe-ce)/Ohm	Re(Y)/Ohm-1	Im(Y)/Ohm-1	|Y|/Ohm-1	Phase(Y)/deg	Re(C)/nF	Im(C)/nF	|C|/nF	Phase(C)/deg	Re(M)	Im(M)	|M|	Phase(M)/deg	Re(Permittivity)	Im(Permittivity)	|Permittivity|	Phase(Permittivity)/deg	Re(Resistivity)/Ohm.cm	Im(Resistivity)/Ohm.cm	|Resistivity|/Ohm.cm	Phase(Resistivity)/deg	Re(Conductivity)/mS/cm	Im(Conductivity)/mS/cm	|Conductivity|/mS/cm	Phase(Conductivity)/deg	Tan(Delta)	Loss Angle(Delta)/deg	dq/mA.h	Pwe/W	Pce/W	Pwe-ce/W	<Ewe-Ece>/V	Rwe/Ohm	Rce/Ohm	Rwe-ce/Ohm		Ewe-Ece/V
1.00002e+06	0.964349	-0.15292	0.976398	9.01054	2.69452	3.78656	-0.0472256	-1.04076	-0.0255283	1	9	0.000199744	0.000204572	0	-2.52548e-05	1.94333e-05	0.000173141	3.19954	0.846359	0.84504	-0.0472383	6.3125	1.82043	1.80939	-0.200158	1.01153	-0.160402	1.02417	-9.01054	-25.5283	160.988	162.999	-99.0105	0.0000000E+000	0.0000000E+000	0.0000000E+000	99.0105	0.0000000E+000	0.0000000E+000	0.0000000E+000	-99.0105	0.0000000E+000	0.0000000E+000	0.0000000E+000	9.01054	0.0000000E+000	0.0000000E+000	0.0000000E+000	-9.01054	6.30624	80.9895	-2.52548e-05	-0.000178822	-9.1775e-10	-0.000178821	3.78654	80180.2	0.4115	80179.8
251206	0.677875	0.249123	0.722203	-20.1787	4.99452	3.78654	-0.040782	2.54317	0.302611	1	9	0.00183845	0.00254561	0	-5.47546e-05	-7.60209e-05	2.67038e-05	83.9546	0.0104901	0.00110478	-0.0104318	-19.3688	0.719714	0.67898	0.238691	1.29966	0.477634	1.38465	20.1787	302.611	823.419	877.264	-69.8213	0.0000000E+000	0.0000000E+000	0.0000000E+000	69.8213	0.0000000E+000	0.0000000E+000	0.0000000E+000	-69.8213	0.0000000E+000	0.0000000E+000	0.0000000E+000	-20.1787	0.0000000E+000	0.0000000E+000	0.0000000E+000	20.1787	2.72105	69.8213	-7.78555e-06	-0.000154423	3.10028e-09	-0.000154426	3.78662	92848.4	1.86408	92850.2
63093.8	1.02862	0.60902	1.1954	-30.6286	7.29652	3.78642	-0.0309862	4.14192	1.07508	1	9	0.00538386	0.00450383	0	-5.70658e-05	3.85242e-05	1.03707e-05	82.7833	0.00230265	0.000289265	-0.0022844	-30.5273	1.19448	1.02891	0.606736	0.719835	0.426195	0.836543	30.6286	1075.08	1815.79	2110.19	-59.3714	0.0000000E+000	0.0000000E+000	0.0000000E+000	59.3714	0.0000000E+000	0.0000000E+000	0.0000000E+000	-59.3714	0.0000000E+000	0.0000000E+000	0.0000000E+000	-30.6286	0.0000000E+000	0.0000000E+000	0.0000000E+000	30.6286	1.68898	59.3714	-5.30492e-06	-0.000117327	-1.19372e-09	-0.000117326	3.78639	122197	1.24327	122196
15847.7	1.67676	1.10622	2.00879	-33.4144	9.59856	3.78641	-0.0322899	9.07846	2.75313	1	9	0.00464685	0.00231326	0	-8.76751e-05	0.00040125	7.24629e-06	-114.376	0.0031325	-0.00129284	0.00285327	-33.5026	2.00929	1.67547	1.10908	0.415528	0.27414	0.497812	33.4144	2753.13	4173.06	4999.42	-56.5856	0.0000000E+000	0.0000000E+000	0.0000000E+000	56.5856	0.0000000E+000	0.0000000E+000	0.0000000E+000	-56.5856	0.0000000E+000	0.0000000E+000	0.0000000E+000	-33.4144	0.0000000E+000	0.0000000E+000	0.0000000E+000	33.4144	1.51575	56.5856	-2.43665e-06	-0.000122263	-1.29563e-08	-0.00012225	3.78601	117263	12.4265	117251
3983.6	2.83832	1.92529	3.42969	-34.1498	11.5921	3.78624	-0.11654	20.7515	6.53928	1	9	0.00500799	0.00146019	0	-0.000107921	0.000133978	1.11399e-05	-148.614	0.00762911	-0.00651278	0.0039733	-34.2659	3.42654	2.8318	1.92926	0.241297	0.163676	0.291572	34.1498	6539.28	9640.41	11649	-55.8502	0.0000000E+000	0.0000000E+000	0.0000000E+000	55.8502	0.0000000E+000	0.0000000E+000	0.0000000E+000	-55.8502	0.0000000E+000	0.0000000E+000	0.0000000E+000	-34.1498	0.0000000E+000	0.0000000E+000	0.0000000E+000	34.1498	1.47423	55.8502	-9.20555e-06	-0.00044125	-1.56139e-08	-0.000441234	3.78611	32488.7	1.14963	32487.6
1000.32	5.03191	3.12419	5.92289	-31.8351	14.4298	3.78631	-0.048625	50.9266	14.1694	1	10	0.00489103	0.000825785	0	-0.000148569	1.94333e-05	1.36599e-05	-73.9635	0.0165417	0.00456965	0.015898	-31.9422	5.93517	5.03648	3.14008	0.143438	0.0890573	0.168837	31.8351	14169.4	22821.6	26862.6	-58.1649	0.0000000E+000	0.0000000E+000	0.0000000E+000	58.1649	0.0000000E+000	0.0000000E+000	0.0000000E+000	-58.1649	0.0000000E+000	0.0000000E+000	0.0000000E+000	-31.8351	0.0000000E+000	0.0000000E+000	0.0000000E+000	31.8351	1.61063	58.1649	-5.49937e-06	-0.000184109	-9.44946e-10	-0.000184108	3.78629	77867.5	0.399657	77867.1
251.044	8.77867	3.60805	9.49121	-22.3428	17.13	3.7863	-0.0480961	175.71	25.3922	1	10	0.00479497	0.000505201	0	-0.000182567	0.000248523	3.44053e-06	-37.4457	0.00681021	0.00540683	0.00414067	-22.3535	9.49778	8.78407	3.61219	0.0974508	0.0400525	0.105361	22.3428	25392.2	61781.1	66795.7	-67.6572	0.0000000E+000	0.0000000E+000	0.0000000E+000	67.6572	0.0000000E+000	0.0000000E+000	0.0000000E+000	-67.6572	0.0000000E+000	0.0000000E+000	0.0000000E+000	-22.3428	0.0000000E+000	0.0000000E+000	0.0000000E+000	22.3428	2.43308	67.6572	-5.46769e-06	-0.000182106	-1.1953e-08	-0.000182094	3.78606	78723.8	5.16723	78718.6
63.0823	11.748	2.15551	11.9441	-10.3969	19.849	3.7863	-0.0442069	1170.48	38.1203	1	10	0.00478794	0.000400863	0	-0.000215325	-7.60209e-05	2.01558e-06	-104.165	0.00502811	-0.00123044	0.00487524	-10.421	11.9437	11.7467	2.16038	0.0823488	0.0151093	0.0837235	10.3969	38120.3	207764	211232	-79.6031	0.0000000E+000	0.0000000E+000	0.0000000E+000	79.6031	0.0000000E+000	0.0000000E+000	0.0000000E+000	-79.6031	0.0000000E+000	0.0000000E+000	0.0000000E+000	-10.3969	0.0000000E+000	0.0000000E+000	0.0000000E+000	10.3969	5.45022	79.6031	-5.72116e-06	-0.000167381	3.36065e-09	-0.000167384	3.78638	85649.6	1.71966	85651.3
[...]
0.0602816	15.7967	2.54828	16.0009	-9.16384	240.484	3.78634	-0.0178489	1.03607e+06	26278	1	11	0.00499869	0.0003124	0	-0.00291384	1.94333e-05	1.91206e-07	-79.1873	0.000612054	0.000114821	0.000601187	-9.1659	16.0011	15.7968	2.54888	0.0616988	0.00995307	0.0624964	9.16384	2.6278e+07	1.62896e+08	1.65002e+08	-80.8362	0.0000000E+000	0.0000000E+000	0.0000000E+000	80.8362	0.0000000E+000	0.0000000E+000	0.0000000E+000	-80.8362	0.0000000E+000	0.0000000E+000	0.0000000E+000	-9.16384	0.0000000E+000	0.0000000E+000	0.0000000E+000	9.16384	6.19897	80.8362	0.000000000000000E+000	-6.7582e-05	-3.46864e-10	-6.75817e-05	3.78632	212132	1.08877	212131
0.00796479	22.5311	4.82153	23.0412	-12.0788	20329.4	3.78634	5.04441e-05	4.14439e+06	181477	1	11	0.00499387	0.000216737	0	-0.00797266	5.7615e-05	2.20578e-07	-149.473	0.00101772	-0.000876658	0.00051694	-12.0805	23.0404	22.5302	4.82205	0.0424397	0.00908188	0.0434006	12.0788	1.81477e+08	8.48044e+08	8.67244e+08	-77.9212	0.0000000E+000	0.0000000E+000	0.0000000E+000	77.9212	0.0000000E+000	0.0000000E+000	0.0000000E+000	-77.9212	0.0000000E+000	0.0000000E+000	0.0000000E+000	-12.0788	0.0000000E+000	0.0000000E+000	0.0000000E+000	12.0788	4.67301	77.9212	-0.00505882	1.90999e-07	2.90634e-12	1.90996e-07	3.78628	7.50602e+07	1142.16	7.5059e+07
0.0019912	26.4211	7.04371	27.3439	-14.9275	20329.4	3.78634	5.04441e-05	1.13476e+07	752986	1	11	0.00500658	0.000183097	0	-0.00797266	5.7615e-05	2.74919e-07	-88.1822	0.00150149	4.7629e-05	0.00150074	-14.9305	27.3443	26.4212	7.04521	0.035337	0.00942065	0.0365712	14.9275	7.52986e+08	2.82447e+09	2.92311e+09	-75.0725	0.0000000E+000	0.0000000E+000	0.0000000E+000	75.0725	0.0000000E+000	0.0000000E+000	0.0000000E+000	-75.0725	0.0000000E+000	0.0000000E+000	0.0000000E+000	-14.9275	0.0000000E+000	0.0000000E+000	0.0000000E+000	14.9275	3.75102	75.0725	0.000000000000000E+000	1.90999e-07	2.90634e-12	1.90996e-07	3.78628	7.50602e+07	1142.16	7.5059e+07
0.000497799	28.7837	15.1159	32.5114	-27.7065	20329.4	3.78634	5.04441e-05	2.1151e+07	4.57224e+06	1	11	0.0050066	0.000153995	0	-0.00797266	5.7615e-05	5.67162e-07	-24.4473	0.00368299	0.00335278	0.00152423	-27.7061	32.5151	28.7871	15.1175	0.0272317	0.0143009	0.0307584	27.7065	4.57224e+09	8.70644e+09	9.83399e+09	-62.2935	0.0000000E+000	0.0000000E+000	0.0000000E+000	62.2935	0.0000000E+000	0.0000000E+000	0.0000000E+000	-62.2935	0.0000000E+000	0.0000000E+000	0.0000000E+000	-27.7065	0.0000000E+000	0.0000000E+000	0.0000000E+000	27.7065	1.90419	62.2935	0.000000000000000E+000	1.90999e-07	2.90634e-12	1.90996e-07	3.78628	7.50602e+07	1142.16	7.5059e+07
9.95598e-05	39.1192	66.9561	77.5463	-59.7043	20329.4	3.78634	5.04441e-05	2.38752e+07	1.77993e+07	1	11	0.00500718	6.45703e-05	0	-0.00797266	5.7615e-05	1.689e-06	-109.295	0.0261575	-0.00864347	0.0246882	-59.719	77.5632	39.1106	66.9808	0.00650531	0.0111344	0.0128955	59.7043	1.77993e+10	1.03993e+10	2.06146e+10	-30.2957	0.0000000E+000	0.0000000E+000	0.0000000E+000	30.2957	0.0000000E+000	0.0000000E+000	0.0000000E+000	-30.2957	0.0000000E+000	0.0000000E+000	0.0000000E+000	-59.7043	0.0000000E+000	0.0000000E+000	0.0000000E+000	59.7043	0.584252	30.2957	0.000000000000000E+000	1.90999e-07	2.90634e-12	1.90996e-07	3.78628	7.50602e+07	1142.16	7.5059e+07