Folder: EIS/txt (part 122)

File: 18731_R302_UA700_SOC00_C01.mpt
EC-Lab ASCII FILE
Nb header lines : 65

Potentio Electrochemical Impedance Spectroscopy

Run on channel : 1 (SN 66354)
User :
CE vs. WE compliance from -10 V to 10 V
Electrode connection : standard
Potential control : Ewe
Ewe ctrl range : min = -10.00 V, max = 10.00 V
Safety Limits :
	Do not start on E overload
Acquisition started on : 10/31/2025 11:54:10.673
Technique started on : 10/31/2025 11:54:12.585
Loaded Setting File :  C:\Users\Celltest\OneDrive - store-dot.com\Documents\EC-Lab\Data\@Biologic Test Protocols\anode half cell EIS SOC00.mps
Saved on :
	File : 18731_R302_UA700_SOC00_C01.mpr
	Directory : C:\Users\Celltest\OneDrive - store-dot.com\Documents\EC-Lab\Data\Charmaine\
	Host : 169.254.61.224
Device : VMP-3e (SN .003165)
Address : USB
EC-LAB for windows v11.62 (software)
Internet server v27.00 (firmware)
Command interpretor v12.03 (firmware)
Electrode material :
Initial state :
Electrolyte :
Comments :
Electrode surface area : 0.001 cm²
Characteristic mass : 0.001 g
Equivalent Weight : 0.000 g/eq.
Density : 0.000 g/cm3
Volume (V) : 0.001 cm³
Record Ece
Cycle Definition : Charge/Discharge alternance
Mode                Single sine
E (V)               0.0000
vs.                 Eoc
tE (h:m:s)          0:00:0.0000
record              0
dI                  0.000
unit dI             mA
dt (s)              0.000
fi                  100.000
unit fi             kHz
ff                  10.000
unit ff             mHz
Nd                  6
Points              per decade
spacing             Logarithmic
Va (mV)             5.0
pw                  0.10
Na                  2
corr                0
E range min (V)     -10.000
E range max (V)     10.000
I Range             Auto
Bandwidth           5
nc cycles           0
goto Ns'            0
nr cycles           0
inc. cycle          0

freq/Hz	Re(Z)/Ohm	-Im(Z)/Ohm	|Z|/Ohm	Phase(Z)/deg	time/s	<Ewe>/V	<I>/mA	Cs/µF	Cp/µF	cycle number	I Range	|Ewe|/V	|I|/A	Ns	(Q-Qo)/mA.h	<Ece>/V	|Ece|/V	Phase(Zce)/deg	|Zce|/Ohm	Re(Zce)/Ohm	-Im(Zce)/Ohm	Phase(Zwe-ce)/deg	|Zwe-ce|/Ohm	Re(Zwe-ce)/Ohm	-Im(Zwe-ce)/Ohm	Re(Y)/Ohm-1	Im(Y)/Ohm-1	|Y|/Ohm-1	Phase(Y)/deg	Re(C)/nF	Im(C)/nF	|C|/nF	Phase(C)/deg	Re(M)	Im(M)	|M|	Phase(M)/deg	Re(Permittivity)	Im(Permittivity)	|Permittivity|	Phase(Permittivity)/deg	Re(Resistivity)/Ohm.cm	Im(Resistivity)/Ohm.cm	|Resistivity|/Ohm.cm	Phase(Resistivity)/deg	Re(Conductivity)/mS/cm	Im(Conductivity)/mS/cm	|Conductivity|/mS/cm	Phase(Conductivity)/deg	Tan(Delta)	Loss Angle(Delta)/deg	dq/mA.h	Pwe/W	Pce/W	Pwe-ce/W	<Ewe-Ece>/V	Rwe/Ohm	Rce/Ohm	Rwe-ce/Ohm		Ewe-Ece/V
100004	1.63829	0.660042	1.76625	-21.9437	1.91151	0.265854	0.0651533	2.41119	0.33672	1	9	0.00462519	0.00261864	0	2.94356e-06	-5.48923e-05	4.3752e-05	102.89	0.0167079	-0.00372727	-0.0162868	-21.4965	1.75676	1.63456	0.643755	0.525151	0.211575	0.56617	21.9437	336.72	835.774	901.054	-68.0563	0.0000000E+000	0.0000000E+000	0.0000000E+000	68.0563	0.0000000E+000	0.0000000E+000	0.0000000E+000	-68.0563	0.0000000E+000	0.0000000E+000	0.0000000E+000	-21.9437	0.0000000E+000	0.0000000E+000	0.0000000E+000	21.9437	2.4821	68.0563	2.94356e-06	1.73213e-05	-3.57641e-09	1.73249e-05	0.265909	4080.45	0.84251	4081.29
31621.1	2.23304	0.964269	2.43234	-23.3556	3.43457	0.265846	0.0634023	5.21969	0.820334	1	9	0.00512696	0.00210783	0	4.0114e-05	0.000307577	1.12493e-05	-1.40096	0.00533692	0.00533532	0.000130482	-23.3087	2.43729	2.23838	0.964399	0.377439	0.162985	0.411126	23.3556	820.334	1899.72	2069.27	-66.6444	0.0000000E+000	0.0000000E+000	0.0000000E+000	66.6444	0.0000000E+000	0.0000000E+000	0.0000000E+000	-66.6444	0.0000000E+000	0.0000000E+000	0.0000000E+000	-23.3556	0.0000000E+000	0.0000000E+000	0.0000000E+000	23.3556	2.31579	66.6444	3.06905e-06	1.68553e-05	1.95011e-08	1.68358e-05	0.265538	4193	4.85119	4188.15
10002.2	2.98059	1.3191	3.25944	-23.8725	4.46153	0.265854	0.0619121	12.0627	1.97568	1	9	0.00451591	0.00138549	0	5.44439e-05	4.04943e-05	1.06279e-05	-132.351	0.00767089	-0.00516764	0.00566904	-24.0005	3.25702	2.97542	1.32477	0.280554	0.124163	0.306801	23.8725	1975.68	4464.16	4881.8	-66.1275	0.0000000E+000	0.0000000E+000	0.0000000E+000	66.1275	0.0000000E+000	0.0000000E+000	0.0000000E+000	-66.1275	0.0000000E+000	0.0000000E+000	0.0000000E+000	-23.8725	0.0000000E+000	0.0000000E+000	0.0000000E+000	23.8725	2.25956	66.1275	3.56971e-06	1.64596e-05	2.50708e-09	1.64571e-05	0.265813	4294.05	0.65406	4293.4
3163.08	3.95046	1.97186	4.41525	-26.5259	5.64167	0.26576	-0.0153592	25.5172	5.08951	1	10	0.00494234	0.00111938	0	6.2238e-05	9.77262e-05	6.66896e-06	-119.664	0.00595772	-0.00294852	0.00517693	-26.6031	4.41492	3.94752	1.97704	0.202646	0.10115	0.226488	26.5259	5089.51	10196.4	11396.1	-63.4741	0.0000000E+000	0.0000000E+000	0.0000000E+000	63.4741	0.0000000E+000	0.0000000E+000	0.0000000E+000	-63.4741	0.0000000E+000	0.0000000E+000	0.0000000E+000	-26.5259	0.0000000E+000	0.0000000E+000	0.0000000E+000	26.5259	2.00342	63.4741	-1.82794e-06	-4.08185e-06	-1.50099e-09	-4.08035e-06	0.265662	17303	6.36273	17296.7
1000.32	5.17952	3.48345	6.24195	-33.9225	6.9948	0.265769	-0.00602318	45.6742	14.225	1	10	0.00476639	0.000763607	0	6.01798e-05	0.000135881	7.20008e-06	-99.4584	0.00942904	-0.00154948	0.00930086	-34.0013	6.24586	5.17797	3.49275	0.132938	0.0894067	0.160206	33.9225	14225	21151	25489.5	-56.0775	0.0000000E+000	0.0000000E+000	0.0000000E+000	56.0775	0.0000000E+000	0.0000000E+000	0.0000000E+000	-56.0775	0.0000000E+000	0.0000000E+000	0.0000000E+000	-33.9225	0.0000000E+000	0.0000000E+000	0.0000000E+000	33.9225	1.48689	56.0775	-7.33534e-07	-1.60078e-06	-8.18434e-10	-1.59996e-06	0.265633	44124.4	22.5596	44101.9
316.316	7.58567	7.22901	10.4786	-43.6209	8.34505	0.265764	-0.00625798	69.6017	33.1262	1	10	0.00469555	0.000448108	0	5.76073e-05	-5.48923e-05	3.61552e-06	-23.5573	0.0080684	0.00739599	0.00322467	-43.6058	10.4862	7.59307	7.23224	0.0690856	0.0658374	0.0954326	43.6209	33126.2	34760.6	48017.1	-46.3791	0.0000000E+000	0.0000000E+000	0.0000000E+000	46.3791	0.0000000E+000	0.0000000E+000	0.0000000E+000	-46.3791	0.0000000E+000	0.0000000E+000	0.0000000E+000	-43.6209	0.0000000E+000	0.0000000E+000	0.0000000E+000	43.6209	1.04934	46.3791	-1.05033e-06	-1.66315e-06	3.43515e-10	-1.66349e-06	0.265819	42468	8.77156	42476.7
100.032	14.9045	14.4043	20.7274	-44.0224	9.69181	0.265763	-0.00582567	110.456	53.3436	1	10	0.00468613	0.000226083	0	5.49616e-05	9.77262e-05	7.90872e-06	42.6423	0.0349814	0.0257322	-0.0236971	-43.9258	20.7295	14.9302	14.3806	0.0346916	0.0335275	0.0482452	44.0224	53343.6	55195.7	76760	-45.9776	0.0000000E+000	0.0000000E+000	0.0000000E+000	45.9776	0.0000000E+000	0.0000000E+000	0.0000000E+000	-45.9776	0.0000000E+000	0.0000000E+000	0.0000000E+000	-44.0224	0.0000000E+000	0.0000000E+000	0.0000000E+000	44.0224	1.03472	45.9776	-4.2229e-07	-1.54824e-06	-5.6932e-10	-1.54767e-06	0.265665	45619.3	16.7751	45602.5
[...]
1.00006	52.9708	4.92529	53.1993	-5.31216	19.2218	0.265834	-0.000194483	32311.8	276.957	1	12	0.00468248	8.80177e-05	0	5.16487e-05	0.000116803	5.59929e-06	-7.45237	0.0636155	0.0630782	0.00825106	-5.31472	53.2628	53.0338	4.93354	0.0187165	0.00174029	0.0187973	5.31216	276958	2.97864e+06	2.99148e+06	-84.6878	0.0000000E+000	0.0000000E+000	0.0000000E+000	84.6878	0.0000000E+000	0.0000000E+000	0.0000000E+000	-84.6878	0.0000000E+000	0.0000000E+000	0.0000000E+000	-5.31216	0.0000000E+000	0.0000000E+000	0.0000000E+000	5.31216	10.7549	84.6878	-2.53306e-06	-5.17001e-08	-2.27163e-11	-5.16774e-08	0.265717	1.36688e+06	600.585	1.36628e+06
0.316193	56.0034	5.00626	56.2267	-5.10821	33.5649	0.265838	-0.000568734	100544	797.068	1	12	0.00468356	8.32977e-05	0	4.33642e-05	0.000326654	2.10039e-06	2.09251	0.0252155	0.0251987	-0.000920693	-5.10499	56.2517	56.0286	5.00534	0.0177145	0.00158353	0.0177851	5.10821	797068	8.91655e+06	8.9521e+06	-84.8918	0.0000000E+000	0.0000000E+000	0.0000000E+000	84.8918	0.0000000E+000	0.0000000E+000	0.0000000E+000	-84.8918	0.0000000E+000	0.0000000E+000	0.0000000E+000	-5.10821	0.0000000E+000	0.0000000E+000	0.0000000E+000	5.10821	11.1867	84.8918	-4.59448e-07	-1.51191e-07	-1.85779e-10	-1.51005e-07	0.265511	467420	574.353	466846
0.0999041	59.5666	6.48297	59.9183	-6.21138	78.7728	0.265829	-0.000376794	245732	2876.68	1	12	0.00468399	7.81729e-05	0	7.761e-05	4.04943e-05	2.66979e-06	0.149538	0.0341523	0.0341522	-8.91354e-05	-6.20777	59.9523	59.6007	6.48288	0.0165914	0.00180574	0.0166894	6.21138	2.87668e+06	2.64314e+07	2.65875e+07	-83.7886	0.0000000E+000	0.0000000E+000	0.0000000E+000	83.7886	0.0000000E+000	0.0000000E+000	0.0000000E+000	-83.7886	0.0000000E+000	0.0000000E+000	0.0000000E+000	-6.21138	0.0000000E+000	0.0000000E+000	0.0000000E+000	6.21138	9.18815	83.7886	1.59464e-05	-1.00163e-07	-1.5258e-11	-1.00148e-07	0.265789	705504	107.471	705396
0.0315922	64.3017	10.9528	65.2279	-9.66669	221.656	0.265827	0.000335987	459954	12968.8	1	12	0.00468328	7.17988e-05	0	3.27872e-05	7.86489e-05	2.15294e-06	-9.07307	0.0299858	0.0296106	0.00472857	-9.66641	65.2578	64.3313	10.9575	0.0151132	0.0025743	0.0153309	9.66669	1.29688e+07	7.61371e+07	7.72337e+07	-80.3333	0.0000000E+000	0.0000000E+000	0.0000000E+000	80.3333	0.0000000E+000	0.0000000E+000	0.0000000E+000	-80.3333	0.0000000E+000	0.0000000E+000	0.0000000E+000	-9.66669	0.0000000E+000	0.0000000E+000	0.0000000E+000	9.66669	5.87079	80.3333	-4.67752e-05	8.93147e-08	2.6425e-11	8.92882e-08	0.265749	791183	234.083	790949
0.0100092	72.2609	21.7347	75.4588	-16.7403	672.877	0.265832	-0.000572521	731591	60695.4	1	12	0.00468308	6.20614e-05	0	-0.00021112	0.000383886	1.11887e-06	46.6413	0.0180285	0.0123777	-0.013108	-16.728	75.4669	72.2733	21.7216	0.0126906	0.0038171	0.0132523	16.7403	6.06954e+07	2.01793e+08	2.10723e+08	-73.2597	0.0000000E+000	0.0000000E+000	0.0000000E+000	73.2597	0.0000000E+000	0.0000000E+000	0.0000000E+000	-73.2597	0.0000000E+000	0.0000000E+000	0.0000000E+000	-16.7403	0.0000000E+000	0.0000000E+000	0.0000000E+000	16.7403	3.32468	73.2597	-5.29952e-05	-1.52195e-07	-2.19783e-10	-1.51975e-07	0.265449	464319	670.518	463648

File: 18732_R302_UA700_SOC00_C02.mpt
EC-Lab ASCII FILE
Nb header lines : 65

Potentio Electrochemical Impedance Spectroscopy

Run on channel : 2 (SN 66139)
User :
CE vs. WE compliance from -10 V to 10 V
Electrode connection : standard
Potential control : Ewe
Ewe ctrl range : min = -10.00 V, max = 10.00 V
Safety Limits :
	Do not start on E overload
Acquisition started on : 10/31/2025 11:54:15.981
Technique started on : 10/31/2025 11:54:18.036
Loaded Setting File :  C:\Users\Celltest\OneDrive - store-dot.com\Documents\EC-Lab\Data\@Biologic Test Protocols\anode half cell EIS SOC00.mps
Saved on :
	File : 18732_R302_UA700_SOC00_C02.mpr
	Directory : C:\Users\Celltest\OneDrive - store-dot.com\Documents\EC-Lab\Data\Charmaine\
	Host : 169.254.61.224
Device : VMP-3e (SN .003165)
Address : USB
EC-LAB for windows v11.62 (software)
Internet server v27.00 (firmware)
Command interpretor v12.03 (firmware)
Electrode material :
Initial state :
Electrolyte :
Comments :
Electrode surface area : 0.001 cm²
Characteristic mass : 0.001 g
Equivalent Weight : 0.000 g/eq.
Density : 0.000 g/cm3
Volume (V) : 0.001 cm³
Record Ece
Cycle Definition : Charge/Discharge alternance
Mode                Single sine
E (V)               0.0000
vs.                 Eoc
tE (h:m:s)          0:00:0.0000
record              0
dI                  0.000
unit dI             mA
dt (s)              0.000
fi                  100.000
unit fi             kHz
ff                  10.000
unit ff             mHz
Nd                  6
Points              per decade
spacing             Logarithmic
Va (mV)             5.0
pw                  0.10
Na                  2
corr                0
E range min (V)     -10.000
E range max (V)     10.000
I Range             Auto
Bandwidth           5
nc cycles           0
goto Ns'            0
nr cycles           0
inc. cycle          0

freq/Hz	Re(Z)/Ohm	-Im(Z)/Ohm	|Z|/Ohm	Phase(Z)/deg	time/s	<Ewe>/V	<I>/mA	Cs/µF	Cp/µF	cycle number	I Range	|Ewe|/V	|I|/A	Ns	(Q-Qo)/mA.h	<Ece>/V	|Ece|/V	Phase(Zce)/deg	|Zce|/Ohm	Re(Zce)/Ohm	-Im(Zce)/Ohm	Phase(Zwe-ce)/deg	|Zwe-ce|/Ohm	Re(Zwe-ce)/Ohm	-Im(Zwe-ce)/Ohm	Re(Y)/Ohm-1	Im(Y)/Ohm-1	|Y|/Ohm-1	Phase(Y)/deg	Re(C)/nF	Im(C)/nF	|C|/nF	Phase(C)/deg	Re(M)	Im(M)	|M|	Phase(M)/deg	Re(Permittivity)	Im(Permittivity)	|Permittivity|	Phase(Permittivity)/deg	Re(Resistivity)/Ohm.cm	Im(Resistivity)/Ohm.cm	|Resistivity|/Ohm.cm	Phase(Resistivity)/deg	Re(Conductivity)/mS/cm	Im(Conductivity)/mS/cm	|Conductivity|/mS/cm	Phase(Conductivity)/deg	Tan(Delta)	Loss Angle(Delta)/deg	dq/mA.h	Pwe/W	Pce/W	Pwe-ce/W	<Ewe-Ece>/V	Rwe/Ohm	Rce/Ohm	Rwe-ce/Ohm		Ewe-Ece/V
100004	1.6258	0.706924	1.77285	-23.5001	2.05455	0.264329	0.032667	2.25129	0.35796	1	9	0.00493157	0.00278173	0	4.42106e-07	0.000114888	2.58774e-05	41.5746	0.00930263	0.00695922	-0.00617318	-23.2281	1.77679	1.63276	0.700751	0.517281	0.224921	0.564065	23.5001	357.96	823.248	897.704	-66.4999	0.0000000E+000	0.0000000E+000	0.0000000E+000	66.4999	0.0000000E+000	0.0000000E+000	0.0000000E+000	-66.4999	0.0000000E+000	0.0000000E+000	0.0000000E+000	-23.5001	0.0000000E+000	0.0000000E+000	0.0000000E+000	23.5001	2.29983	66.4999	4.42106e-07	8.63483e-06	3.75303e-09	8.63108e-06	0.264214	8091.64	3.51693	8088.12
31621.1	2.26723	1.042	2.49522	-24.6832	3.20555	0.264303	0.0177313	4.8303	0.842354	1	9	0.00545503	0.00218619	0	8.36364e-06	-0.000114203	1.83627e-05	-29.7873	0.00839941	0.00728965	0.00417267	-24.7003	2.50358	2.27452	1.04618	0.364149	0.16736	0.400767	24.6832	842.354	1832.83	2017.13	-65.3168	0.0000000E+000	0.0000000E+000	0.0000000E+000	65.3168	0.0000000E+000	0.0000000E+000	0.0000000E+000	-65.3168	0.0000000E+000	0.0000000E+000	0.0000000E+000	-24.6832	0.0000000E+000	0.0000000E+000	0.0000000E+000	24.6832	2.17584	65.3168	6.51582e-06	4.68643e-06	-2.02496e-09	4.68846e-06	0.264417	14906	6.44072	14912.4
10002.2	3.07799	1.38678	3.37597	-24.2538	4.35655	0.2643	0.0234672	11.474	1.93612	1	9	0.00535623	0.00158657	0	9.0571e-06	0.000114888	9.56581e-06	51.7955	0.00602923	0.0037289	-0.00473782	-24.1545	3.37743	3.08172	1.38204	0.270066	0.121677	0.296211	24.2538	1936.12	4297.27	4713.29	-65.7462	0.0000000E+000	0.0000000E+000	0.0000000E+000	65.7462	0.0000000E+000	0.0000000E+000	0.0000000E+000	-65.7462	0.0000000E+000	0.0000000E+000	0.0000000E+000	-24.2538	0.0000000E+000	0.0000000E+000	0.0000000E+000	24.2538	2.21953	65.7462	4.19358e-06	6.20237e-06	2.69609e-09	6.19968e-06	0.264185	11262.5	4.89567	11257.6
3163.08	4.03235	1.98878	4.49612	-26.2528	5.66461	0.264265	-0.0114883	25.3002	4.95017	1	10	0.00509455	0.0011331	0	5.08488e-06	0.000382159	1.03261e-05	-7.37871	0.00911317	0.0090377	0.00117038	-26.2153	4.50475	4.04139	1.98995	0.199472	0.0983808	0.222414	26.2528	4950.17	10036.7	11191.1	-63.7472	0.0000000E+000	0.0000000E+000	0.0000000E+000	63.7472	0.0000000E+000	0.0000000E+000	0.0000000E+000	-63.7472	0.0000000E+000	0.0000000E+000	0.0000000E+000	-26.2528	0.0000000E+000	0.0000000E+000	0.0000000E+000	26.2528	2.02755	63.7472	-1.77072e-06	-3.03596e-06	-4.39037e-09	-3.03157e-06	0.263883	23002.9	33.265	22969.7
1000.32	5.30088	3.48502	6.34387	-33.3226	7.01882	0.26426	-0.0113319	45.6537	13.7777	1	10	0.00489406	0.000771464	0	7.32636e-07	0.000191251	3.57794e-06	60.2823	0.00463786	0.00229911	-0.00402788	-33.2808	6.34358	5.30318	3.48099	0.131716	0.0865958	0.157633	33.3226	13777.7	20956.6	25080	-56.6774	0.0000000E+000	0.0000000E+000	0.0000000E+000	56.6774	0.0000000E+000	0.0000000E+000	0.0000000E+000	-56.6774	0.0000000E+000	0.0000000E+000	0.0000000E+000	-33.3226	0.0000000E+000	0.0000000E+000	0.0000000E+000	33.3226	1.52105	56.6774	-1.34374e-06	-2.99456e-06	-2.16723e-09	-2.99239e-06	0.264069	23320	16.8773	23303.2
316.316	7.75979	7.20176	10.5868	-42.864	8.36704	0.264262	-0.0103931	69.8651	32.3304	1	10	0.00471636	0.000445495	0	-3.41832e-06	1.94333e-05	9.62901e-06	120.926	0.0216142	-0.011108	-0.0185414	-42.8313	10.566	7.74869	7.18322	0.0692346	0.0642557	0.0944575	42.864	32330.4	34835.5	47526.5	-47.136	0.0000000E+000	0.0000000E+000	0.0000000E+000	47.136	0.0000000E+000	0.0000000E+000	0.0000000E+000	-47.136	0.0000000E+000	0.0000000E+000	0.0000000E+000	-42.864	0.0000000E+000	0.0000000E+000	0.0000000E+000	42.864	1.07749	47.136	-1.08806e-06	-2.74651e-06	-2.01973e-10	-2.74631e-06	0.264243	25426.7	1.86983	25424.8
100.032	15.0466	14.1507	20.6553	-43.2424	9.71384	0.264259	-0.00997963	112.436	52.771	1	10	0.00466904	0.000226046	0	-6.69121e-06	9.57967e-05	1.30672e-05	-3.02005	0.057808	0.0577277	0.00304564	-43.1391	20.6995	15.1043	14.1537	0.0352676	0.0331676	0.0484137	43.2424	52771	56112.1	77028.2	-46.7576	0.0000000E+000	0.0000000E+000	0.0000000E+000	46.7576	0.0000000E+000	0.0000000E+000	0.0000000E+000	-46.7576	0.0000000E+000	0.0000000E+000	0.0000000E+000	-43.2424	0.0000000E+000	0.0000000E+000	0.0000000E+000	43.2424	1.06331	46.7576	-1.52335e-06	-2.63721e-06	-9.56016e-10	-2.63626e-06	0.264164	26479.9	9.59922	26470.3
[...]
1.00006	51.9185	5.08667	52.1671	-5.59564	19.2459	0.264288	-0.00567419	31286.7	297.462	1	12	0.00466656	8.9454e-05	0	-2.41511e-05	9.57967e-05	3.94464e-06	-42.856	0.0440969	0.0323259	0.0299928	-5.62494	52.2022	51.9509	5.11666	0.0190778	0.00186913	0.0191692	5.59564	297462	3.03613e+06	3.05067e+06	-84.4044	0.0000000E+000	0.0000000E+000	0.0000000E+000	84.4044	0.0000000E+000	0.0000000E+000	0.0000000E+000	-84.4044	0.0000000E+000	0.0000000E+000	0.0000000E+000	-5.59564	0.0000000E+000	0.0000000E+000	0.0000000E+000	5.59564	10.2068	84.4044	-1.95634e-06	-1.49962e-06	-5.43569e-10	-1.49908e-06	0.264192	46577.2	16.8829	46560.3
0.316193	55.089	5.11765	55.3262	-5.30742	33.5889	0.264284	-0.00449461	98355.2	841.542	1	12	0.00467008	8.44098e-05	0	-3.20931e-05	5.7615e-05	2.12957e-06	-17.1697	0.025229	0.0241046	0.00744768	-5.31278	55.3509	55.1131	5.12509	0.0179971	0.00167189	0.0180746	5.30742	841542	9.0588e+06	9.0978e+06	-84.6926	0.0000000E+000	0.0000000E+000	0.0000000E+000	84.6926	0.0000000E+000	0.0000000E+000	0.0000000E+000	-84.6926	0.0000000E+000	0.0000000E+000	0.0000000E+000	-5.30742	0.0000000E+000	0.0000000E+000	0.0000000E+000	5.30742	10.7645	84.6926	-5.44574e-06	-1.18785e-06	-2.58957e-10	-1.1876e-06	0.264227	58800.3	12.8187	58787.5
0.0999041	58.7776	6.51548	59.1376	-6.3254	78.7971	0.264282	-0.00281678	244506	2967.94	1	12	0.00466858	7.89443e-05	0	-0.000111776	0.000133978	1.25515e-06	-96.5432	0.0158992	-0.00181174	0.0157956	-6.3408	59.1376	58.7758	6.53128	0.0168068	0.00186302	0.0169097	6.3254	2.96794e+06	2.67745e+07	2.69385e+07	-83.6746	0.0000000E+000	0.0000000E+000	0.0000000E+000	83.6746	0.0000000E+000	0.0000000E+000	0.0000000E+000	-83.6746	0.0000000E+000	0.0000000E+000	0.0000000E+000	-6.3254	0.0000000E+000	0.0000000E+000	0.0000000E+000	6.3254	9.02122	83.6746	-3.93409e-05	-7.44424e-07	-3.77387e-10	-7.44046e-07	0.264148	93824.3	47.5644	93776.8
0.0315922	63.7099	11.1254	64.674	-9.90544	221.682	0.264291	-0.00205823	452819	13399.7	1	12	0.00466925	7.21966e-05	0	-0.000210165	-0.000171475	1.66791e-06	-15.7642	0.0231023	0.0222334	0.00627642	-9.90753	64.697	63.7322	11.1317	0.0152317	0.00265984	0.0154622	9.90544	1.33997e+07	7.67339e+07	7.78951e+07	-80.0946	0.0000000E+000	0.0000000E+000	0.0000000E+000	80.0946	0.0000000E+000	0.0000000E+000	0.0000000E+000	-80.0946	0.0000000E+000	0.0000000E+000	0.0000000E+000	-9.90544	0.0000000E+000	0.0000000E+000	0.0000000E+000	9.90544	5.72653	80.0946	-1.04978e-05	-5.43972e-07	3.52936e-10	-5.44325e-07	0.264462	128407	83.3119	128490
0.0100092	71.5507	21.8516	74.8131	-16.9827	672.904	0.264288	-0.000266115	727677	62079.9	1	12	0.00466925	6.24122e-05	0	1.00043e-06	-0.000343293	1.01875e-06	-8.83114	0.0163229	0.0161294	0.00250594	-16.9809	74.8292	71.5668	21.8541	0.0127838	0.00390417	0.0133667	16.9827	6.20799e+07	2.03274e+08	2.12542e+08	-73.0173	0.0000000E+000	0.0000000E+000	0.0000000E+000	73.0173	0.0000000E+000	0.0000000E+000	0.0000000E+000	-73.0173	0.0000000E+000	0.0000000E+000	0.0000000E+000	-16.9827	0.0000000E+000	0.0000000E+000	0.0000000E+000	16.9827	3.27439	73.0173	8.39349e-05	-7.0331e-08	9.13553e-11	-7.04224e-08	0.264632	993137	1290.02	994427