Folder: EIS/txt (part 124)

File: 18799_R307_UC93_26p5_SOC50_C01.mpt
EC-Lab ASCII FILE
Nb header lines : 65

Potentio Electrochemical Impedance Spectroscopy

Run on channel : 1 (SN 66354)
Grouped channel(s) : 1, 2, 3, 4, 5
User :
CE vs. WE compliance from -10 V to 10 V
Electrode connection : standard
Potential control : Ewe
Ewe ctrl range : min = -10.00 V, max = 10.00 V
Safety Limits :
	Do not start on E overload
Acquisition started on : 11/04/2025 16:29:50.795
Loaded Setting File :  C:\Users\Celltest\OneDrive - store-dot.com\Documents\EC-Lab\Data\@Biologic Test Protocols\cathode half cell EIS SOC50.mps
Saved on :
	File : 18799_R307_UC93_26p5_SOC00_C01.mpr
	Directory : C:\Users\Celltest\OneDrive - store-dot.com\Documents\EC-Lab\Data\Anna\
	Host : 169.254.61.224
Device : VMP-3e (SN .003165)
Address : USB
EC-LAB for windows v11.62 (software)
Internet server v27.00 (firmware)
Command interpretor v12.03 (firmware)
Electrode material :
Initial state :
Electrolyte :
Comments :
Electrode surface area : 0.001 cm²
Characteristic mass : 0.001 g
Equivalent Weight : 0.000 g/eq.
Density : 0.000 g/cm3
Volume (V) : 0.001 cm³
Record Ece
Cycle Definition : Charge/Discharge alternance
Mode                Multi sine
E (V)               0.0000
vs.                 Eoc
tE (h:m:s)          0:00:0.0000
record              0
dI                  0.000
unit dI             mA
dt (s)              0.000
fi                  1.000
unit fi             MHz
ff                  0.100
unit ff             mHz
Nd                  10
Points              per decade
spacing             Logarithmic
Va (mV)             5.0
pw                  0.10
Na                  2
corr                0
E range min (V)     -10.000
E range max (V)     10.000
I Range             Auto
Bandwidth           5
nc cycles           0
goto Ns'            0
nr cycles           0
inc. cycle          0

freq/Hz	Re(Z)/Ohm	-Im(Z)/Ohm	|Z|/Ohm	Phase(Z)/deg	time/s	<Ewe>/V	<I>/mA	Cs/µF	Cp/µF	cycle number	I Range	|Ewe|/V	|I|/A	Ns	(Q-Qo)/mA.h	<Ece>/V	|Ece|/V	Phase(Zce)/deg	|Zce|/Ohm	Re(Zce)/Ohm	-Im(Zce)/Ohm	Phase(Zwe-ce)/deg	|Zwe-ce|/Ohm	Re(Zwe-ce)/Ohm	-Im(Zwe-ce)/Ohm	Re(Y)/Ohm-1	Im(Y)/Ohm-1	|Y|/Ohm-1	Phase(Y)/deg	Re(C)/nF	Im(C)/nF	|C|/nF	Phase(C)/deg	Re(M)	Im(M)	|M|	Phase(M)/deg	Re(Permittivity)	Im(Permittivity)	|Permittivity|	Phase(Permittivity)/deg	Re(Resistivity)/Ohm.cm	Im(Resistivity)/Ohm.cm	|Resistivity|/Ohm.cm	Phase(Resistivity)/deg	Re(Conductivity)/mS/cm	Im(Conductivity)/mS/cm	|Conductivity|/mS/cm	Phase(Conductivity)/deg	Tan(Delta)	Loss Angle(Delta)/deg	dq/mA.h	Pwe/W	Pce/W	Pwe-ce/W	<Ewe-Ece>/V	Rwe/Ohm	Rce/Ohm	Rwe-ce/Ohm		Ewe-Ece/V
1.00002e+06	3.39575	2.67467	4.32261	-38.2258	2.23355	1.04905	0.0244333	0.0595034	0.0227819	1	10	0.000289161	6.6895e-05	0	9.98313e-06	2.34201e-05	0.00019393	-72.0796	2.89902	0.892014	2.75838	-51.7195	6.9212	4.28776	5.43305	0.181737	0.143146	0.231342	38.2258	22.7819	28.9238	36.8185	-51.7742	0.0000000E+000	0.0000000E+000	0.0000000E+000	51.7742	0.0000000E+000	0.0000000E+000	0.0000000E+000	-51.7742	0.0000000E+000	0.0000000E+000	0.0000000E+000	-38.2258	0.0000000E+000	0.0000000E+000	0.0000000E+000	38.2258	1.26959	51.7742	9.98313e-06	2.56319e-05	5.72232e-10	2.56313e-05	1.04903	42935.3	0.95853	42934.4
251206	2.58755	0.672748	2.67357	-14.5739	4.93855	1.04856	0.0933548	0.941754	0.0596291	1	9	0.0051526	0.00192723	0	6.6909e-05	0.00030958	5.97561e-05	116.985	0.0310062	-0.0140693	-0.0276304	-14.0729	2.6531	2.57348	0.645117	0.361997	0.0941171	0.374032	14.5739	59.6291	229.348	236.973	-75.4261	0.0000000E+000	0.0000000E+000	0.0000000E+000	75.4261	0.0000000E+000	0.0000000E+000	0.0000000E+000	-75.4261	0.0000000E+000	0.0000000E+000	0.0000000E+000	-14.5739	0.0000000E+000	0.0000000E+000	0.0000000E+000	14.5739	3.84624	75.4261	8.45e-06	9.78885e-05	2.89007e-08	9.78596e-05	1.04825	11232	3.31616	11228.7
63093.8	3.56828	1.67651	3.9425	-25.1659	7.61251	1.04857	0.150615	1.50462	0.27208	1	9	0.005018	0.0012728	0	0.000169789	-1.47345e-05	1.90996e-05	48.6968	0.015006	0.00990464	-0.0112729	-24.9566	3.9467	3.57818	1.66524	0.22957	0.107861	0.253646	25.1659	272.08	579.093	639.825	-64.8341	0.0000000E+000	0.0000000E+000	0.0000000E+000	64.8341	0.0000000E+000	0.0000000E+000	0.0000000E+000	-64.8341	0.0000000E+000	0.0000000E+000	0.0000000E+000	-25.1659	0.0000000E+000	0.0000000E+000	0.0000000E+000	25.1659	2.12839	64.8341	1.94041e-05	0.000157929	-2.21923e-09	0.000157932	1.04858	6961.9	0.0978291	6962
15847.7	5.73322	2.6754	6.32674	-25.016	10.0675	1.04874	0.167432	3.75375	0.671249	1	10	0.0053816	0.000850613	0	0.000273511	0.000424044	1.23661e-05	-65.7874	0.0145379	0.00596235	0.013259	-25.1019	6.33775	5.73918	2.68866	0.143232	0.0668389	0.158059	25.016	671.249	1438.45	1587.36	-64.984	0.0000000E+000	0.0000000E+000	0.0000000E+000	64.984	0.0000000E+000	0.0000000E+000	0.0000000E+000	-64.984	0.0000000E+000	0.0000000E+000	0.0000000E+000	-25.016	0.0000000E+000	0.0000000E+000	0.0000000E+000	25.016	2.14294	64.984	1.20576e-05	0.000175593	7.09986e-08	0.000175522	1.04832	6263.67	2.53263	6261.14
3983.6	8.55924	2.61548	8.94993	-16.9918	11.7941	1.04857	0.18837	15.2754	1.30453	1	10	0.00489546	0.000546983	0	0.000358284	0.000195116	7.92574e-06	-40.7476	0.0144899	0.0109774	0.00945797	-17.0291	8.9632	8.57022	2.62494	0.106855	0.0326521	0.111733	16.9918	1304.53	4269.13	4464	-73.0082	0.0000000E+000	0.0000000E+000	0.0000000E+000	73.0082	0.0000000E+000	0.0000000E+000	0.0000000E+000	-73.0082	0.0000000E+000	0.0000000E+000	0.0000000E+000	-16.9918	0.0000000E+000	0.0000000E+000	0.0000000E+000	16.9918	3.27253	73.0082	1.56281e-05	0.00019752	3.6754e-08	0.000197483	1.04838	5566.55	1.03581	5565.52
1000.32	10.5761	1.85993	10.7384	-9.97419	14.4228	1.04868	0.2644	85.5428	2.56627	1	10	0.00482283	0.000449121	0	0.000533156	0.000214193	8.31159e-06	-97.3984	0.0185063	-0.00238301	0.0183523	-10.0728	10.7392	10.5737	1.87829	0.0917166	0.0161295	0.0931241	9.97419	2566.27	14592.5	14816.4	-80.0258	0.0000000E+000	0.0000000E+000	0.0000000E+000	80.0258	0.0000000E+000	0.0000000E+000	0.0000000E+000	-80.0258	0.0000000E+000	0.0000000E+000	0.0000000E+000	-9.97419	0.0000000E+000	0.0000000E+000	0.0000000E+000	9.97419	5.68626	80.0258	3.23866e-05	0.00027727	5.66326e-08	0.000277213	1.04846	3966.25	0.810111	3965.44
251.044	11.7622	1.53002	11.8613	-7.4114	17.123	1.04867	0.318929	414.355	6.89452	1	10	0.00481641	0.000406061	0	0.000749747	-9.10437e-05	3.03042e-05	-68.3948	0.0746297	0.0274793	0.0693864	-7.72569	11.8977	11.7897	1.59941	0.0836036	0.0108751	0.0843079	7.4114	6894.52	53002.3	53448.8	-82.5886	0.0000000E+000	0.0000000E+000	0.0000000E+000	82.5886	0.0000000E+000	0.0000000E+000	0.0000000E+000	-82.5886	0.0000000E+000	0.0000000E+000	0.0000000E+000	-7.4114	0.0000000E+000	0.0000000E+000	0.0000000E+000	7.4114	7.68759	82.5886	3.91093e-05	0.000334452	-2.90365e-08	0.000334481	1.04876	3288.11	0.285467	3288.4
63.0823	12.8415	1.90188	12.9816	-8.42448	19.844	1.04868	0.371706	1326.57	28.4734	1	10	0.00480933	0.000370473	0	0.0010085	-5.28891e-05	4.22844e-06	-64.3587	0.0114136	0.00493908	0.0102896	-8.46619	12.988	12.8465	1.91217	0.076201	0.0112857	0.0770322	8.42448	28473.4	192253	194350	-81.5755	0.0000000E+000	0.0000000E+000	0.0000000E+000	81.5755	0.0000000E+000	0.0000000E+000	0.0000000E+000	-81.5755	0.0000000E+000	0.0000000E+000	0.0000000E+000	-8.42448	0.0000000E+000	0.0000000E+000	0.0000000E+000	8.42448	6.75202	81.5755	4.65963e-05	0.000389801	-1.96592e-08	0.000389821	1.04873	2821.27	0.142288	2821.41
[...]
0.0602816	26.8194	-12.3799	29.5388	24.7781	240.463	1.04875	3.66522	-213265	-37459.7	1	11	0.00503067	0.000170307	0	0.156412	0.000252348	4.71764e-07	63.8185	0.00277008	0.00122221	-0.00248587	24.7815	29.541	26.8207	-12.3823	0.0307371	-0.0141883	0.0338537	-24.7781	-3.74597e+07	8.11518e+07	8.93803e+07	-114.778	0.0000000E+000	0.0000000E+000	0.0000000E+000	114.778	0.0000000E+000	0.0000000E+000	0.0000000E+000	-114.778	0.0000000E+000	0.0000000E+000	0.0000000E+000	24.7781	0.0000000E+000	0.0000000E+000	0.0000000E+000	-24.7781	2.16638	65.2219	0.000000000000000E+000	0.0038439	9.2491e-07	0.00384297	1.0485	286.135	0.0688493	286.067
0.00796479	28.5104	8.80122	29.8379	-17.1556	20329.4	1.0488	20.0045	2.2704e+06	197538	1	11	0.00502423	0.000168384	0	108.246	0.000137884	6.08167e-07	-21.667	0.00361179	0.0033566	0.00133352	-17.1561	29.8415	28.5137	8.80255	0.0320232	0.00988564	0.0335144	17.1556	1.97538e+08	6.39898e+08	6.69695e+08	-72.8444	0.0000000E+000	0.0000000E+000	0.0000000E+000	72.8444	0.0000000E+000	0.0000000E+000	0.0000000E+000	-72.8444	0.0000000E+000	0.0000000E+000	0.0000000E+000	-17.1556	0.0000000E+000	0.0000000E+000	0.0000000E+000	17.1556	3.23937	72.8444	108.089	0.0209807	2.7583e-06	0.0209779	1.04866	52.4282	0.00689266	52.4213
0.0019912	3.69335	-37.3823	37.5643	84.3575	20329.4	1.0488	20.0045	-2.13816e+06	-2.11749e+06	1	11	0.00503585	0.000134059	0	108.246	0.000137884	8.86128e-07	73.2667	0.00660997	0.00190312	-0.00633008	84.3556	37.5708	3.69525	-37.3887	0.00261739	-0.026492	0.026621	-84.3575	-2.11749e+09	2.09206e+08	2.1278e+09	-174.358	0.0000000E+000	0.0000000E+000	0.0000000E+000	174.358	0.0000000E+000	0.0000000E+000	0.0000000E+000	-174.358	0.0000000E+000	0.0000000E+000	0.0000000E+000	84.3575	0.0000000E+000	0.0000000E+000	0.0000000E+000	-84.3575	0.0987993	5.64247	0.000000000000000E+000	0.0209807	2.7583e-06	0.0209779	1.04866	52.4282	0.00689266	52.4213
0.000497799	9.46211	-3.00363	9.9274	17.6114	20329.4	1.0488	20.0045	-1.06444e+08	-9.7441e+06	1	11	0.0050368	0.000507364	0	108.246	0.000137884	5.28041e-07	14.5622	0.00104076	0.00100732	-0.000261677	17.6111	9.92844	9.46311	-3.00389	0.0960101	-0.0304772	0.100731	-17.6114	-9.74409e+09	3.06961e+10	3.22055e+10	-107.611	0.0000000E+000	0.0000000E+000	0.0000000E+000	107.611	0.0000000E+000	0.0000000E+000	0.0000000E+000	-107.611	0.0000000E+000	0.0000000E+000	0.0000000E+000	17.6114	0.0000000E+000	0.0000000E+000	0.0000000E+000	-17.6114	3.15022	72.3886	0.000000000000000E+000	0.0209807	2.7583e-06	0.0209779	1.04866	52.4282	0.00689266	52.4213
9.95598e-05	9.52295	-1.96203	9.72297	11.6419	20329.4	1.0488	20.0045	-8.14761e+08	-3.31775e+07	1	11	0.00503827	0.000518182	0	108.246	0.000137884	1.57193e-06	14.7169	0.00303354	0.00293402	-0.000770648	11.6428	9.726	9.52588	-1.9628	0.100733	-0.0207543	0.102849	-11.6419	-3.31775e+10	1.61031e+11	1.64413e+11	-101.642	0.0000000E+000	0.0000000E+000	0.0000000E+000	101.642	0.0000000E+000	0.0000000E+000	0.0000000E+000	-101.642	0.0000000E+000	0.0000000E+000	0.0000000E+000	11.6419	0.0000000E+000	0.0000000E+000	0.0000000E+000	-11.6419	4.85362	78.3581	0.000000000000000E+000	0.0209807	2.7583e-06	0.0209779	1.04866	52.4282	0.00689266	52.4213

File: 18800_R307_UC93_26p5_SOC50_C02.mpt
EC-Lab ASCII FILE
Nb header lines : 65

Potentio Electrochemical Impedance Spectroscopy

Run on channel : 2 (SN 66139)
Grouped channel(s) : 1, 2, 3, 4, 5
User :
CE vs. WE compliance from -10 V to 10 V
Electrode connection : standard
Potential control : Ewe
Ewe ctrl range : min = -10.00 V, max = 10.00 V
Safety Limits :
	Do not start on E overload
Acquisition started on : 11/04/2025 16:29:50.795
Loaded Setting File :  C:\Users\Celltest\OneDrive - store-dot.com\Documents\EC-Lab\Data\@Biologic Test Protocols\cathode half cell EIS SOC50.mps
Saved on :
	File : 18799_R307_UC93_26p5_SOC00_C02.mpr
	Directory : C:\Users\Celltest\OneDrive - store-dot.com\Documents\EC-Lab\Data\Anna\
	Host : 169.254.61.224
Device : VMP-3e (SN .003165)
Address : USB
EC-LAB for windows v11.62 (software)
Internet server v27.00 (firmware)
Command interpretor v12.03 (firmware)
Electrode material :
Initial state :
Electrolyte :
Comments :
Electrode surface area : 0.001 cm²
Characteristic mass : 0.001 g
Equivalent Weight : 0.000 g/eq.
Density : 0.000 g/cm3
Volume (V) : 0.001 cm³
Record Ece
Cycle Definition : Charge/Discharge alternance
Mode                Multi sine
E (V)               0.0000
vs.                 Eoc
tE (h:m:s)          0:00:0.0000
record              0
dI                  0.000
unit dI             mA
dt (s)              0.000
fi                  1.000
unit fi             MHz
ff                  0.100
unit ff             mHz
Nd                  10
Points              per decade
spacing             Logarithmic
Va (mV)             5.0
pw                  0.10
Na                  2
corr                0
E range min (V)     -10.000
E range max (V)     10.000
I Range             Auto
Bandwidth           5
nc cycles           0
goto Ns'            0
nr cycles           0
inc. cycle          0

freq/Hz	Re(Z)/Ohm	-Im(Z)/Ohm	|Z|/Ohm	Phase(Z)/deg	time/s	<Ewe>/V	<I>/mA	Cs/µF	Cp/µF	cycle number	I Range	|Ewe|/V	|I|/A	Ns	(Q-Qo)/mA.h	<Ece>/V	|Ece|/V	Phase(Zce)/deg	|Zce|/Ohm	Re(Zce)/Ohm	-Im(Zce)/Ohm	Phase(Zwe-ce)/deg	|Zwe-ce|/Ohm	Re(Zwe-ce)/Ohm	-Im(Zwe-ce)/Ohm	Re(Y)/Ohm-1	Im(Y)/Ohm-1	|Y|/Ohm-1	Phase(Y)/deg	Re(C)/nF	Im(C)/nF	|C|/nF	Phase(C)/deg	Re(M)	Im(M)	|M|	Phase(M)/deg	Re(Permittivity)	Im(Permittivity)	|Permittivity|	Phase(Permittivity)/deg	Re(Resistivity)/Ohm.cm	Im(Resistivity)/Ohm.cm	|Resistivity|/Ohm.cm	Phase(Resistivity)/deg	Re(Conductivity)/mS/cm	Im(Conductivity)/mS/cm	|Conductivity|/mS/cm	Phase(Conductivity)/deg	Tan(Delta)	Loss Angle(Delta)/deg	dq/mA.h	Pwe/W	Pce/W	Pwe-ce/W	<Ewe-Ece>/V	Rwe/Ohm	Rce/Ohm	Rwe-ce/Ohm		Ewe-Ece/V
1.00002e+06	3.43668	1.61947	3.79914	-25.2313	2.23355	3.96115	-0.0397553	0.098274	0.0178572	1	10	0.000253069	6.66122e-05	0	-1.51565e-05	0.000503768	0.000178281	-65.6602	2.67641	1.10308	2.43852	-41.7928	6.08906	4.53976	4.05799	0.238105	0.112202	0.263217	25.2313	17.8572	37.8949	41.8916	-64.7687	0.0000000E+000	0.0000000E+000	0.0000000E+000	64.7687	0.0000000E+000	0.0000000E+000	0.0000000E+000	-64.7687	0.0000000E+000	0.0000000E+000	0.0000000E+000	-25.2313	0.0000000E+000	0.0000000E+000	0.0000000E+000	25.2313	2.1221	64.7687	-1.51565e-05	-0.000157477	-2.00275e-08	-0.000157457	3.96065	99638.4	12.6717	99625.7
251206	1.72233	0.289928	1.74656	-9.55532	4.93655	3.96109	-0.0524772	2.18524	0.0602163	1	9	0.00449039	0.00257099	0	-5.51771e-05	8.37695e-05	2.03929e-05	115.172	0.00793191	-0.00337379	-0.00717863	-9.34091	1.74205	1.71895	0.28275	0.564611	0.0950439	0.572554	9.55532	60.2163	357.716	362.749	-80.4447	0.0000000E+000	0.0000000E+000	0.0000000E+000	80.4447	0.0000000E+000	0.0000000E+000	0.0000000E+000	-80.4447	0.0000000E+000	0.0000000E+000	0.0000000E+000	-9.55532	0.0000000E+000	0.0000000E+000	0.0000000E+000	9.55532	5.94052	80.4447	-5.44188e-06	-0.000207867	-4.39599e-09	-0.000207863	3.96101	75482.1	1.5963	75480.5
63093.8	2.13844	0.878434	2.31184	-22.332	7.36356	3.961	-0.0334818	2.8716	0.414599	1	9	0.00502116	0.00217193	0	-7.422e-05	0.000179224	1.00056e-05	57.2652	0.00460678	0.00249112	-0.00387514	-22.2197	2.31267	2.14094	0.874559	0.400114	0.164359	0.432556	22.332	414.599	1009.29	1091.13	-67.668	0.0000000E+000	0.0000000E+000	0.0000000E+000	67.668	0.0000000E+000	0.0000000E+000	0.0000000E+000	-67.668	0.0000000E+000	0.0000000E+000	0.0000000E+000	-22.332	0.0000000E+000	0.0000000E+000	0.0000000E+000	22.332	2.43438	67.668	-1.61448e-06	-0.000132621	-6.00073e-09	-0.000132615	3.96082	118303	5.35287	118298
15847.7	3.15889	1.77883	3.6253	-29.3847	9.41557	3.96104	-0.00320089	5.64572	1.35926	1	9	0.00466011	0.00128544	0	-9.37856e-05	-3.07756e-05	9.62231e-06	-101.555	0.00748563	-0.00149946	0.00733391	-29.4973	3.6276	3.15739	1.78617	0.240351	0.135346	0.275839	29.3847	1359.26	2413.79	2770.19	-60.6153	0.0000000E+000	0.0000000E+000	0.0000000E+000	60.6153	0.0000000E+000	0.0000000E+000	0.0000000E+000	-60.6153	0.0000000E+000	0.0000000E+000	0.0000000E+000	-29.3847	0.0000000E+000	0.0000000E+000	0.0000000E+000	29.3847	1.77582	60.6153	8.72074e-08	-1.26788e-05	9.85094e-11	-1.26789e-05	3.96107	1.23748e+06	9.61469	1.23749e+06
3983.6	4.91949	3.08249	5.80544	-32.0707	11.2961	3.96097	-0.0443336	12.9611	3.65406	1	10	0.00460425	0.000793092	0	-0.000111129	0.000141042	7.32716e-06	-54.6536	0.00923873	0.00534477	0.00753575	-32.1056	5.81397	4.92484	3.09002	0.145965	0.0914599	0.172252	32.0707	3654.06	5831.69	6881.91	-57.9293	0.0000000E+000	0.0000000E+000	0.0000000E+000	57.9293	0.0000000E+000	0.0000000E+000	0.0000000E+000	-57.9293	0.0000000E+000	0.0000000E+000	0.0000000E+000	-32.0707	0.0000000E+000	0.0000000E+000	0.0000000E+000	32.0707	1.59595	57.9293	-3.06247e-06	-0.000175604	-6.2529e-09	-0.000175598	3.96083	89344.7	3.18138	89341.5
1000.32	8.25521	5.69294	10.0279	-34.5908	14.1398	3.96095	-0.0255995	27.9476	9.00743	1	10	0.00485349	0.000484	0	-0.000131363	0.000370132	5.66655e-06	-24.8194	0.0117077	0.0106264	0.00491444	-34.5795	10.0394	8.26583	5.69785	0.082094	0.0566135	0.0997221	34.5908	9007.43	13061.5	15866.2	-55.4092	0.0000000E+000	0.0000000E+000	0.0000000E+000	55.4092	0.0000000E+000	0.0000000E+000	0.0000000E+000	-55.4092	0.0000000E+000	0.0000000E+000	0.0000000E+000	-34.5908	0.0000000E+000	0.0000000E+000	0.0000000E+000	34.5908	1.45008	55.4092	-2.85465e-06	-0.000101398	-9.47518e-09	-0.000101389	3.96058	154728	14.4586	154713
251.044	15.572	8.34126	17.6653	-28.1761	16.841	3.96095	-0.0258006	76.0042	16.9456	1	10	0.00480409	0.00027195	0	-0.00015001	-6.89573e-05	2.51484e-05	-78.7496	0.0924743	0.0180414	0.0906973	-28.407	17.7242	15.59	8.43196	0.0499	0.0267293	0.056608	28.1761	16945.6	31635.2	35887.9	-61.8239	0.0000000E+000	0.0000000E+000	0.0000000E+000	61.8239	0.0000000E+000	0.0000000E+000	0.0000000E+000	-61.8239	0.0000000E+000	0.0000000E+000	0.0000000E+000	-28.1761	0.0000000E+000	0.0000000E+000	0.0000000E+000	28.1761	1.86686	61.8239	-2.87096e-06	-0.000102195	1.77914e-09	-0.000102197	3.96101	153521	2.6727	153524
[...]
0.0602816	31.7688	4.3316	32.0627	-7.76428	241.1	3.96099	-0.0156965	609518	11124.6	1	11	0.00499685	0.000155846	0	-0.00186043	0.000160133	3.31504e-07	49.8113	0.00212712	0.00137265	-0.00162496	-7.76108	32.0638	31.7701	4.32998	0.030903	0.00421356	0.0311889	7.76428	1.11246e+07	8.15897e+07	8.23446e+07	-82.2357	0.0000000E+000	0.0000000E+000	0.0000000E+000	82.2357	0.0000000E+000	0.0000000E+000	0.0000000E+000	-82.2357	0.0000000E+000	0.0000000E+000	0.0000000E+000	-7.76428	0.0000000E+000	0.0000000E+000	0.0000000E+000	7.76428	7.33418	82.2357	0.000000000000000E+000	-6.21737e-05	-2.51353e-09	-6.21712e-05	3.96083	252348	10.2018	252338
0.00796479	41.2501	9.2934	42.284	-12.6964	20330	3.96104	-0.000587474	2.15016e+06	103865	1	11	0.00499347	0.000118094	0	-0.0155317	-0.000183502	4.09205e-07	178.175	0.00346509	-0.00346333	-0.000110349	-12.6973	42.2806	41.2466	9.29329	0.0230713	0.00519783	0.0236496	12.6964	1.03865e+08	4.61019e+08	4.72574e+08	-77.3036	0.0000000E+000	0.0000000E+000	0.0000000E+000	77.3036	0.0000000E+000	0.0000000E+000	0.0000000E+000	-77.3036	0.0000000E+000	0.0000000E+000	0.0000000E+000	-12.6964	0.0000000E+000	0.0000000E+000	0.0000000E+000	12.6964	4.43865	77.3036	-0.0136712	-2.32701e-06	1.07803e-10	-2.32712e-06	3.96123	6.7425e+06	312.358	6.74281e+06
0.0019912	50.5253	13.1876	52.2179	-14.6284	20330	3.96104	-0.000587474	6.06096e+06	386573	1	11	0.00500586	9.58648e-05	0	-0.0155317	-0.000183502	8.33783e-07	-18.4709	0.00869749	0.00824944	0.00275556	-14.629	52.2266	50.5335	13.1903	0.0185297	0.00483643	0.0191505	14.6284	3.86573e+08	1.48107e+09	1.53069e+09	-75.3716	0.0000000E+000	0.0000000E+000	0.0000000E+000	75.3716	0.0000000E+000	0.0000000E+000	0.0000000E+000	-75.3716	0.0000000E+000	0.0000000E+000	0.0000000E+000	-14.6284	0.0000000E+000	0.0000000E+000	0.0000000E+000	14.6284	3.83128	75.3716	0.000000000000000E+000	-2.32701e-06	1.07803e-10	-2.32712e-06	3.96123	6.7425e+06	312.358	6.74281e+06
0.000497799	57.4908	19.7165	60.7777	-18.9295	20330.1	3.96104	-0.000587474	1.62157e+07	1.7065e+06	1	11	0.00500633	8.23711e-05	0	-0.0155317	-0.000183502	6.67827e-07	22.6487	0.00810753	0.00748231	-0.00312205	-18.9244	60.7838	57.4983	19.7134	0.0155636	0.00533754	0.0164534	18.9295	1.7065e+09	4.97594e+09	5.26043e+09	-71.0705	0.0000000E+000	0.0000000E+000	0.0000000E+000	71.0705	0.0000000E+000	0.0000000E+000	0.0000000E+000	-71.0705	0.0000000E+000	0.0000000E+000	0.0000000E+000	-18.9295	0.0000000E+000	0.0000000E+000	0.0000000E+000	18.9295	2.91587	71.0705	0.000000000000000E+000	-2.32701e-06	1.07803e-10	-2.32712e-06	3.96123	6.7425e+06	312.358	6.74281e+06
9.95598e-05	69.2307	86.1687	110.535	-51.2205	20330.1	3.96104	-0.000587474	1.85518e+07	1.12743e+07	1	11	0.00500891	4.53152e-05	0	-0.0155317	-0.000183502	2.6165e-06	-42.9653	0.05774	0.0422522	0.0393531	-51.2162	110.592	69.2729	86.2081	0.00566632	0.00705264	0.00904693	51.2205	1.12743e+10	9.05809e+09	1.44623e+10	-38.7795	0.0000000E+000	0.0000000E+000	0.0000000E+000	38.7795	0.0000000E+000	0.0000000E+000	0.0000000E+000	-38.7795	0.0000000E+000	0.0000000E+000	0.0000000E+000	-51.2205	0.0000000E+000	0.0000000E+000	0.0000000E+000	51.2205	0.803432	38.7795	0.000000000000000E+000	-2.32701e-06	1.07803e-10	-2.32712e-06	3.96123	6.7425e+06	312.358	6.74281e+06