Folder: EIS/txt (part 190)

File: 19499_R316_UA715_SOC00_C01.mpt
EC-Lab ASCII FILE
Nb header lines : 65

Potentio Electrochemical Impedance Spectroscopy

Run on channel : 1 (SN 66354)
User :
CE vs. WE compliance from -10 V to 10 V
Electrode connection : standard
Potential control : Ewe
Ewe ctrl range : min = -10.00 V, max = 10.00 V
Safety Limits :
	Do not start on E overload
Acquisition started on : 12/04/2025 15:14:18.077
Technique started on : 12/04/2025 15:14:19.989
Loaded Setting File :  C:\Users\Celltest\OneDrive - store-dot.com\Documents\EC-Lab\Data\@Biologic Test Protocols\anode half cell EIS SOC00.mps
Saved on :
	File : 19499_R316_UA715_SOC00_C01.mpr
	Directory : C:\Users\Celltest\OneDrive - store-dot.com\Documents\EC-Lab\Data\Charmaine\
	Host : 169.254.61.224
Device : VMP-3e (SN .003165)
Address : USB
EC-LAB for windows v11.62 (software)
Internet server v27.00 (firmware)
Command interpretor v12.03 (firmware)
Electrode material :
Initial state :
Electrolyte :
Comments :
Electrode surface area : 0.001 cm²
Characteristic mass : 0.001 g
Equivalent Weight : 0.000 g/eq.
Density : 0.000 g/cm3
Volume (V) : 0.001 cm³
Record Ece
Cycle Definition : Charge/Discharge alternance
Mode                Single sine
E (V)               0.0000
vs.                 Eoc
tE (h:m:s)          0:00:0.0000
record              0
dI                  0.000
unit dI             mA
dt (s)              0.000
fi                  100.000
unit fi             kHz
ff                  10.000
unit ff             mHz
Nd                  6
Points              per decade
spacing             Logarithmic
Va (mV)             5.0
pw                  0.10
Na                  2
corr                0
E range min (V)     -10.000
E range max (V)     10.000
I Range             Auto
Bandwidth           5
nc cycles           0
goto Ns'            0
nr cycles           0
inc. cycle          0

freq/Hz	Re(Z)/Ohm	-Im(Z)/Ohm	|Z|/Ohm	Phase(Z)/deg	time/s	<Ewe>/V	<I>/mA	Cs/µF	Cp/µF	cycle number	I Range	|Ewe|/V	|I|/A	Ns	(Q-Qo)/mA.h	<Ece>/V	|Ece|/V	Phase(Zce)/deg	|Zce|/Ohm	Re(Zce)/Ohm	-Im(Zce)/Ohm	Phase(Zwe-ce)/deg	|Zwe-ce|/Ohm	Re(Zwe-ce)/Ohm	-Im(Zwe-ce)/Ohm	Re(Y)/Ohm-1	Im(Y)/Ohm-1	|Y|/Ohm-1	Phase(Y)/deg	Re(C)/nF	Im(C)/nF	|C|/nF	Phase(C)/deg	Re(M)	Im(M)	|M|	Phase(M)/deg	Re(Permittivity)	Im(Permittivity)	|Permittivity|	Phase(Permittivity)/deg	Re(Resistivity)/Ohm.cm	Im(Resistivity)/Ohm.cm	|Resistivity|/Ohm.cm	Phase(Resistivity)/deg	Re(Conductivity)/mS/cm	Im(Conductivity)/mS/cm	|Conductivity|/mS/cm	Phase(Conductivity)/deg	Tan(Delta)	Loss Angle(Delta)/deg	dq/mA.h	Pwe/W	Pce/W	Pwe-ce/W	<Ewe-Ece>/V	Rwe/Ohm	Rce/Ohm	Rwe-ce/Ohm		Ewe-Ece/V
100004	1.29263	0.434915	1.36383	-18.596	1.91153	0.270794	0.0795707	3.65931	0.372125	1	9	0.00464878	0.00340862	0	9.28858e-06	-8.47007e-05	3.81987e-05	93.1156	0.0112065	-0.000609085	-0.0111899	-18.1573	1.35972	1.29202	0.423725	0.694948	0.233822	0.733229	18.596	372.125	1106	1166.93	-71.404	0.0000000E+000	0.0000000E+000	0.0000000E+000	71.404	0.0000000E+000	0.0000000E+000	0.0000000E+000	-71.404	0.0000000E+000	0.0000000E+000	0.0000000E+000	-18.596	0.0000000E+000	0.0000000E+000	0.0000000E+000	18.596	2.97213	71.404	9.28858e-06	2.15473e-05	-6.7397e-09	2.1554e-05	0.270879	3403.19	1.06447	3404.26
31621.1	1.66224	0.606567	1.76945	-20.0475	3.43454	0.27081	0.082253	8.29782	0.975087	1	9	0.00506813	0.00286424	0	4.06578e-05	0.000144227	1.7039e-05	51.5234	0.00594887	0.00370136	-0.00465714	-19.8649	1.77134	1.66594	0.60191	0.530904	0.193732	0.565147	20.0475	975.087	2672.13	2844.49	-69.9525	0.0000000E+000	0.0000000E+000	0.0000000E+000	69.9525	0.0000000E+000	0.0000000E+000	0.0000000E+000	-69.9525	0.0000000E+000	0.0000000E+000	0.0000000E+000	-20.0475	0.0000000E+000	0.0000000E+000	0.0000000E+000	20.0475	2.74041	69.9525	9.99041e-06	2.22749e-05	1.18631e-08	2.22631e-05	0.270666	3292.4	1.75345	3290.65
10002.2	2.13734	0.809445	2.28548	-20.7425	4.46153	0.270808	0.0809864	19.6579	2.46579	1	9	0.0049448	0.00216357	0	5.55604e-05	-8.3915e-06	7.05712e-06	-109.541	0.00326179	-0.00109101	0.00307392	-20.8242	2.28555	2.13625	0.812519	0.409184	0.154965	0.437545	20.7425	2465.79	6510.92	6962.2	-69.2575	0.0000000E+000	0.0000000E+000	0.0000000E+000	69.2575	0.0000000E+000	0.0000000E+000	0.0000000E+000	-69.2575	0.0000000E+000	0.0000000E+000	0.0000000E+000	-20.7425	0.0000000E+000	0.0000000E+000	0.0000000E+000	20.7425	2.6405	69.2575	8.83792e-06	2.19317e-05	-6.79597e-10	2.19324e-05	0.270816	3343.87	0.103616	3343.97
3163.08	2.72997	1.1434	2.95975	-22.7256	5.36165	0.270614	0.0345302	44.0059	6.56749	1	9	0.00454036	0.00153403	0	7.21511e-05	-6.56234e-05	7.47162e-06	-117.62	0.00487057	-0.00225804	0.00431552	-22.8195	2.95934	2.72771	1.14772	0.311636	0.130524	0.337866	22.7256	6567.49	15680.4	17000.2	-67.2744	0.0000000E+000	0.0000000E+000	0.0000000E+000	67.2744	0.0000000E+000	0.0000000E+000	0.0000000E+000	-67.2744	0.0000000E+000	0.0000000E+000	0.0000000E+000	-22.7256	0.0000000E+000	0.0000000E+000	0.0000000E+000	22.7256	2.38758	67.2744	4.73457e-06	9.34435e-06	-2.26599e-09	9.34662e-06	0.27068	7837.03	1.90047	7838.93
1000.32	3.4904	1.86713	3.95842	-28.1438	7.17481	0.270725	-0.0167195	85.2132	18.9589	1	10	0.0049394	0.00124782	0	9.56156e-05	0.000373155	9.75204e-06	-16.8701	0.00781525	0.00747892	0.00226801	-28.1217	3.96608	3.49788	1.8694	0.222757	0.11916	0.252626	28.1438	18958.9	35441.6	40193.9	-61.8562	0.0000000E+000	0.0000000E+000	0.0000000E+000	61.8562	0.0000000E+000	0.0000000E+000	0.0000000E+000	-61.8562	0.0000000E+000	0.0000000E+000	0.0000000E+000	-28.1438	0.0000000E+000	0.0000000E+000	0.0000000E+000	28.1438	1.86939	61.8562	-1.73011e-06	-4.52639e-06	-6.23895e-09	-4.52015e-06	0.270352	16192.2	22.3185	16169.9
316.316	4.65471	3.79404	6.00509	-39.1834	8.52401	0.270719	-0.0159443	132.616	52.9374	1	10	0.00483915	0.000805842	0	8.89417e-05	-2.74688e-05	3.99242e-06	34.8867	0.00495435	0.00406398	-0.00283367	-39.1379	6.00645	4.65878	3.79121	0.129078	0.105211	0.166525	39.1834	52937.4	64946.1	83787.6	-50.8166	0.0000000E+000	0.0000000E+000	0.0000000E+000	50.8166	0.0000000E+000	0.0000000E+000	0.0000000E+000	-50.8166	0.0000000E+000	0.0000000E+000	0.0000000E+000	-39.1834	0.0000000E+000	0.0000000E+000	0.0000000E+000	39.1834	1.22685	50.8166	-2.5427e-06	-4.31642e-06	4.37971e-10	-4.31686e-06	0.270746	16979	1.7228	16980.8
100.032	8.2668	7.97353	11.4855	-43.9655	9.87079	0.270709	-0.0166971	199.54	96.168	1	10	0.00481034	0.000418818	0	8.30177e-05	0.000392232	8.72483e-06	-53.6001	0.020832	0.0123621	0.0167676	-43.9828	11.5061	8.27916	7.9903	0.0626666	0.0604435	0.0870661	43.9655	96168	99705	138526	-46.0345	0.0000000E+000	0.0000000E+000	0.0000000E+000	46.0345	0.0000000E+000	0.0000000E+000	0.0000000E+000	-46.0345	0.0000000E+000	0.0000000E+000	0.0000000E+000	-43.9655	0.0000000E+000	0.0000000E+000	0.0000000E+000	43.9655	1.03678	46.0345	-1.66078e-06	-4.52006e-06	-6.54915e-09	-4.51351e-06	0.270316	16212.9	23.491	16189.4
[...]
1.00006	31.3934	2.60777	31.5015	-4.7485	19.922	0.27078	-0.00420732	61027.3	418.213	1	12	0.0048095	0.000152675	0	6.15669e-05	-8.47007e-05	2.2461e-06	29.2878	0.0147116	0.0128311	-0.00719686	-4.73353	31.5137	31.4062	2.60057	0.0316355	0.00262788	0.0317445	4.7485	418213	5.03463e+06	5.05197e+06	-85.2515	0.0000000E+000	0.0000000E+000	0.0000000E+000	85.2515	0.0000000E+000	0.0000000E+000	0.0000000E+000	-85.2515	0.0000000E+000	0.0000000E+000	0.0000000E+000	-4.7485	0.0000000E+000	0.0000000E+000	0.0000000E+000	4.7485	12.0384	85.2515	-3.77312e-06	-1.13926e-06	3.56363e-10	-1.13961e-06	0.270865	64359.3	20.1318	64379.4
0.316193	32.6393	2.5731	32.7406	-4.50757	34.264	0.270777	-0.00296756	195619	1208.24	1	12	0.00481164	0.000146963	0	7.04388e-05	0.00012515	2.81421e-06	5.60977	0.0191492	0.0190574	-0.00187188	-4.50168	32.7594	32.6583	2.57123	0.0304487	0.00240041	0.0305432	4.50757	1.20824e+06	1.53263e+07	1.53738e+07	-85.4924	0.0000000E+000	0.0000000E+000	0.0000000E+000	85.4924	0.0000000E+000	0.0000000E+000	0.0000000E+000	-85.4924	0.0000000E+000	0.0000000E+000	0.0000000E+000	-4.50757	0.0000000E+000	0.0000000E+000	0.0000000E+000	4.50757	12.6848	85.4924	3.21869e-06	-8.03546e-07	-3.71389e-10	-8.03174e-07	0.270652	91245.6	42.1726	91203.4
0.0999041	34.1774	4.0604	34.4178	-6.77519	79.4717	0.270769	-0.00065996	392345	5460.59	1	12	0.00480955	0.00013974	0	1.2063e-06	-8.47007e-05	2.71243e-06	-18.3395	0.0194105	0.0184246	0.00610746	-6.78166	34.4368	34.1959	4.06651	0.0288518	0.0034277	0.0290547	6.77519	5.46059e+06	4.59632e+07	4.62864e+07	-83.2248	0.0000000E+000	0.0000000E+000	0.0000000E+000	83.2248	0.0000000E+000	0.0000000E+000	0.0000000E+000	-83.2248	0.0000000E+000	0.0000000E+000	0.0000000E+000	-6.77519	0.0000000E+000	0.0000000E+000	0.0000000E+000	6.77519	8.41725	83.2248	-4.27166e-05	-1.78696e-07	5.58991e-11	-1.78752e-07	0.270853	410281	128.342	410409
0.0315922	36.897	8.18015	37.7929	-12.5004	222.355	0.270766	-0.00152585	615856	28852.3	1	12	0.00481121	0.000127304	0	-0.000123846	8.6995e-05	1.65019e-06	-61.5096	0.0129625	0.00618328	0.0113928	-12.5152	37.8014	36.9032	8.19154	0.0258327	0.00572717	0.02646	12.5004	2.88523e+07	1.3014e+08	1.333e+08	-77.4996	0.0000000E+000	0.0000000E+000	0.0000000E+000	77.4996	0.0000000E+000	0.0000000E+000	0.0000000E+000	-77.4996	0.0000000E+000	0.0000000E+000	0.0000000E+000	-12.5004	0.0000000E+000	0.0000000E+000	0.0000000E+000	12.5004	4.51055	77.4996	-1.10846e-05	-4.13148e-07	-1.32741e-10	-4.13015e-07	0.270679	177453	57.0143	177396
0.0100092	41.6957	17.6809	45.2895	-22.9791	673.576	0.270763	0.000338964	899330	137066	1	12	0.00480931	0.00010619	0	0.000438171	0.000468541	3.83768e-06	10.7588	0.0361396	0.0355044	-0.00674635	-22.9538	45.3196	41.7312	17.6741	0.020328	0.00862001	0.0220802	22.9791	1.37066e+08	3.23234e+08	3.51095e+08	-67.0209	0.0000000E+000	0.0000000E+000	0.0000000E+000	67.0209	0.0000000E+000	0.0000000E+000	0.0000000E+000	-67.0209	0.0000000E+000	0.0000000E+000	0.0000000E+000	-22.9791	0.0000000E+000	0.0000000E+000	0.0000000E+000	22.9791	2.35824	67.0209	0.000260382	9.17789e-08	1.58819e-10	9.16201e-08	0.270294	798795	1382.27	797413

File: 19500_R316_UA715_SOC00_C02.mpt
EC-Lab ASCII FILE
Nb header lines : 65

Potentio Electrochemical Impedance Spectroscopy

Run on channel : 2 (SN 66139)
User :
CE vs. WE compliance from -10 V to 10 V
Electrode connection : standard
Potential control : Ewe
Ewe ctrl range : min = -10.00 V, max = 10.00 V
Safety Limits :
	Do not start on E overload
Acquisition started on : 12/04/2025 15:14:24.544
Technique started on : 12/04/2025 15:14:26.414
Loaded Setting File :  C:\Users\Celltest\OneDrive - store-dot.com\Documents\EC-Lab\Data\@Biologic Test Protocols\anode half cell EIS SOC00.mps
Saved on :
	File : 19500_R316_UA715_SOC00_C02.mpr
	Directory : C:\Users\Celltest\OneDrive - store-dot.com\Documents\EC-Lab\Data\Charmaine\
	Host : 169.254.61.224
Device : VMP-3e (SN .003165)
Address : USB
EC-LAB for windows v11.62 (software)
Internet server v27.00 (firmware)
Command interpretor v12.03 (firmware)
Electrode material :
Initial state :
Electrolyte :
Comments :
Electrode surface area : 0.001 cm²
Characteristic mass : 0.001 g
Equivalent Weight : 0.000 g/eq.
Density : 0.000 g/cm3
Volume (V) : 0.001 cm³
Record Ece
Cycle Definition : Charge/Discharge alternance
Mode                Single sine
E (V)               0.0000
vs.                 Eoc
tE (h:m:s)          0:00:0.0000
record              0
dI                  0.000
unit dI             mA
dt (s)              0.000
fi                  100.000
unit fi             kHz
ff                  10.000
unit ff             mHz
Nd                  6
Points              per decade
spacing             Logarithmic
Va (mV)             5.0
pw                  0.10
Na                  2
corr                0
E range min (V)     -10.000
E range max (V)     10.000
I Range             Auto
Bandwidth           5
nc cycles           0
goto Ns'            0
nr cycles           0
inc. cycle          0

freq/Hz	Re(Z)/Ohm	-Im(Z)/Ohm	|Z|/Ohm	Phase(Z)/deg	time/s	<Ewe>/V	<I>/mA	Cs/µF	Cp/µF	cycle number	I Range	|Ewe|/V	|I|/A	Ns	(Q-Qo)/mA.h	<Ece>/V	|Ece|/V	Phase(Zce)/deg	|Zce|/Ohm	Re(Zce)/Ohm	-Im(Zce)/Ohm	Phase(Zwe-ce)/deg	|Zwe-ce|/Ohm	Re(Zwe-ce)/Ohm	-Im(Zwe-ce)/Ohm	Re(Y)/Ohm-1	Im(Y)/Ohm-1	|Y|/Ohm-1	Phase(Y)/deg	Re(C)/nF	Im(C)/nF	|C|/nF	Phase(C)/deg	Re(M)	Im(M)	|M|	Phase(M)/deg	Re(Permittivity)	Im(Permittivity)	|Permittivity|	Phase(Permittivity)/deg	Re(Resistivity)/Ohm.cm	Im(Resistivity)/Ohm.cm	|Resistivity|/Ohm.cm	Phase(Resistivity)/deg	Re(Conductivity)/mS/cm	Im(Conductivity)/mS/cm	|Conductivity|/mS/cm	Phase(Conductivity)/deg	Tan(Delta)	Loss Angle(Delta)/deg	dq/mA.h	Pwe/W	Pce/W	Pwe-ce/W	<Ewe-Ece>/V	Rwe/Ohm	Rce/Ohm	Rwe-ce/Ohm		Ewe-Ece/V
100004	1.19758	0.402508	1.26341	-18.5775	1.86954	0.273861	-0.00390851	3.95393	0.401317	1	9	0.00494685	0.00391546	0	-4.29613e-06	-0.000131766	2.32486e-05	89.7979	0.00593765	2.09484e-05	-0.00593761	-18.3216	1.26155	1.1976	0.39657	0.750264	0.252164	0.791506	18.5775	401.317	1194.04	1259.67	-71.4225	0.0000000E+000	0.0000000E+000	0.0000000E+000	71.4225	0.0000000E+000	0.0000000E+000	0.0000000E+000	-71.4225	0.0000000E+000	0.0000000E+000	0.0000000E+000	-18.5775	0.0000000E+000	0.0000000E+000	0.0000000E+000	18.5775	2.9753	71.4225	-4.29613e-06	-1.07039e-06	5.1501e-10	-1.0709e-06	0.273993	70067.7	33.7126	70101.5
31621.1	1.54653	0.596433	1.65755	-21.0896	3.39456	0.273839	-0.0138904	8.43881	1.09262	1	9	0.00514466	0.00310377	0	-4.2892e-05	-9.35844e-05	7.54401e-06	58.4569	0.0024306	0.00127154	-0.00207147	-21.007	1.658	1.5478	0.594361	0.562889	0.217083	0.603298	21.0896	1092.62	2833.12	3036.51	-68.9104	0.0000000E+000	0.0000000E+000	0.0000000E+000	68.9104	0.0000000E+000	0.0000000E+000	0.0000000E+000	-68.9104	0.0000000E+000	0.0000000E+000	0.0000000E+000	-21.0896	0.0000000E+000	0.0000000E+000	0.0000000E+000	21.0896	2.59297	68.9104	1.27106e-06	-3.80374e-06	1.29993e-09	-3.80504e-06	0.273933	19714.2	6.73734	19721
10002.2	2.0288	0.837997	2.19505	-22.4431	4.54353	0.273832	-0.0138532	18.9881	2.76742	1	9	0.00484399	0.00220678	0	-4.34108e-05	0.000307323	7.34e-06	-68.414	0.00332612	0.00122367	0.00309284	-22.5055	2.19737	2.03002	0.84109	0.421065	0.173921	0.45557	22.4431	2767.42	6699.96	7249.01	-67.5569	0.0000000E+000	0.0000000E+000	0.0000000E+000	67.5569	0.0000000E+000	0.0000000E+000	0.0000000E+000	-67.5569	0.0000000E+000	0.0000000E+000	0.0000000E+000	-22.4431	0.0000000E+000	0.0000000E+000	0.0000000E+000	22.4431	2.42101	67.5569	-8.08153e-07	-3.79346e-06	-4.25741e-09	-3.7892e-06	0.273525	19766.7	22.1843	19744.5
3163.08	2.66102	1.23395	2.93319	-24.8777	5.57064	0.273615	-0.0786239	40.7769	7.21646	1	9	0.00488865	0.00166666	0	-5.57643e-05	9.7324e-05	9.55673e-06	44.114	0.00573405	0.0041168	-0.0039914	-24.7732	2.93525	2.66513	1.22995	0.30929	0.143422	0.340925	24.8777	7216.46	15562.4	17154.2	-65.1223	0.0000000E+000	0.0000000E+000	0.0000000E+000	65.1223	0.0000000E+000	0.0000000E+000	0.0000000E+000	-65.1223	0.0000000E+000	0.0000000E+000	0.0000000E+000	-24.8777	0.0000000E+000	0.0000000E+000	0.0000000E+000	24.8777	2.15651	65.1223	-8.80296e-06	-2.15127e-05	-7.65199e-09	-2.1505e-05	0.273518	3480.05	1.23784	3478.81
1000.32	3.42552	2.0055	3.96941	-30.3472	7.1698	0.273783	-0.0263631	79.3338	20.2512	1	10	0.00491103	0.00123722	0	-5.09936e-05	-9.35844e-05	6.18591e-06	50.555	0.00499986	0.0031766	-0.00386106	-30.2759	3.97021	3.4287	2.00164	0.217407	0.127283	0.251926	30.3472	20251.2	34590.4	40082.5	-59.6528	0.0000000E+000	0.0000000E+000	0.0000000E+000	59.6528	0.0000000E+000	0.0000000E+000	0.0000000E+000	-59.6528	0.0000000E+000	0.0000000E+000	0.0000000E+000	-30.3472	0.0000000E+000	0.0000000E+000	0.0000000E+000	30.3472	1.70806	59.6528	-2.49301e-06	-7.21777e-06	2.46718e-09	-7.22023e-06	0.273876	10385.1	3.54982	10388.6
316.316	4.67314	4.08006	6.20364	-41.1238	8.52008	0.273779	-0.0270225	123.32	53.3424	1	10	0.00482562	0.000777868	0	-6.03934e-05	0.000288232	6.26308e-06	47.8304	0.00805159	0.00540525	-0.00596753	-41.0494	6.20379	4.67855	4.07409	0.121427	0.106016	0.161196	41.1238	53342.4	61096.3	81105.9	-48.8762	0.0000000E+000	0.0000000E+000	0.0000000E+000	48.8762	0.0000000E+000	0.0000000E+000	0.0000000E+000	-48.8762	0.0000000E+000	0.0000000E+000	0.0000000E+000	-41.1238	0.0000000E+000	0.0000000E+000	0.0000000E+000	41.1238	1.14536	48.8762	-3.04657e-06	-7.3982e-06	-7.78876e-09	-7.39041e-06	0.273491	10131.5	10.6664	10120.9
100.032	8.46972	8.69902	12.1412	-45.7652	9.8678	0.273778	-0.0257149	182.899	93.8917	1	10	0.00479698	0.000395099	0	-6.89689e-05	0.000307323	9.58612e-06	-28.2473	0.0242626	0.0213732	0.011483	-45.7308	12.1644	8.49109	8.7105	0.0574572	0.0590128	0.0823641	45.7652	93891.7	91416.8	131045	-44.2348	0.0000000E+000	0.0000000E+000	0.0000000E+000	44.2348	0.0000000E+000	0.0000000E+000	0.0000000E+000	-44.2348	0.0000000E+000	0.0000000E+000	0.0000000E+000	-45.7652	0.0000000E+000	0.0000000E+000	0.0000000E+000	45.7652	0.97364	44.2348	-3.27802e-06	-7.0402e-06	-7.9028e-09	-7.0323e-06	0.273471	10646.7	11.9512	10634.7
[...]
1.00006	34.8831	2.92223	35.0053	-4.78861	19.6056	0.273833	-0.00790088	54460	379.524	1	12	0.00479263	0.000136911	0	-9.26564e-05	4.00515e-05	1.14401e-06	37.6647	0.00835581	0.00661446	-0.00510573	-4.77938	35.0114	34.8897	2.91712	0.0284674	0.00238477	0.0285671	4.78861	379524	4.53044e+06	4.54631e+06	-85.2114	0.0000000E+000	0.0000000E+000	0.0000000E+000	85.2114	0.0000000E+000	0.0000000E+000	0.0000000E+000	-85.2114	0.0000000E+000	0.0000000E+000	0.0000000E+000	-4.78861	0.0000000E+000	0.0000000E+000	0.0000000E+000	4.78861	11.9371	85.2114	-2.36527e-07	-2.16352e-06	-3.16442e-10	-2.16321e-06	0.273793	34658.6	5.06924	34653.5
0.316193	36.2217	2.8103	36.3306	-4.43647	33.946	0.273831	-0.0051224	179108	1071.71	1	12	0.00478872	0.00013181	0	-0.000120492	0.000211869	2.95527e-06	26.8748	0.0224208	0.0199992	-0.0101351	-4.4181	36.3498	36.2417	2.80017	0.0274425	0.00212916	0.027525	4.43647	1.0717e+06	1.38131e+07	1.38546e+07	-85.5635	0.0000000E+000	0.0000000E+000	0.0000000E+000	85.5635	0.0000000E+000	0.0000000E+000	0.0000000E+000	-85.5635	0.0000000E+000	0.0000000E+000	0.0000000E+000	-4.43647	0.0000000E+000	0.0000000E+000	0.0000000E+000	4.43647	12.8889	85.5635	-1.78303e-05	-1.40267e-06	-1.08528e-09	-1.40159e-06	0.273619	53457.6	41.3613	53416.2
0.0999041	37.9893	4.26945	38.2285	-6.41232	79.1551	0.273824	-0.00370873	373134	4654.1	1	12	0.00478746	0.000125233	0	-0.0002225	-0.000265402	2.15034e-06	-48.2632	0.0171707	0.0114307	0.012813	-6.42949	38.2412	38.0007	4.28227	0.0259949	0.00292145	0.0261585	6.41232	4.6541e+06	4.14118e+07	4.16726e+07	-83.5877	0.0000000E+000	0.0000000E+000	0.0000000E+000	83.5877	0.0000000E+000	0.0000000E+000	0.0000000E+000	-83.5877	0.0000000E+000	0.0000000E+000	0.0000000E+000	-6.41232	0.0000000E+000	0.0000000E+000	0.0000000E+000	6.41232	8.89793	83.5877	-3.49076e-05	-1.01554e-06	9.84304e-10	-1.01652e-06	0.274089	73832.3	71.5615	73903.8
0.0315922	40.5007	8.29109	41.3407	-11.5694	222.04	0.273816	-0.00122374	607615	24439.7	1	12	0.00479017	0.000115871	0	-0.000140194	0.000250051	1.97635e-06	-40.9132	0.0170565	0.0128896	0.0111705	-11.581	41.3555	40.5136	8.30226	0.0236978	0.00485128	0.0241893	11.5694	2.44397e+07	1.19385e+08	1.2186e+08	-78.4306	0.0000000E+000	0.0000000E+000	0.0000000E+000	78.4306	0.0000000E+000	0.0000000E+000	0.0000000E+000	-78.4306	0.0000000E+000	0.0000000E+000	0.0000000E+000	-11.5694	0.0000000E+000	0.0000000E+000	0.0000000E+000	11.5694	4.88485	78.4306	7.70161e-05	-3.35078e-07	-3.05996e-10	-3.34772e-07	0.273566	223754	204.334	223550
0.0100092	45.5865	18.2147	49.0908	-21.7798	673.263	0.273812	0.000484988	872972	120183	1	12	0.00478924	9.75588e-05	0	-9.54307e-05	0.00023096	3.73079e-06	17.5604	0.0382414	0.0364594	-0.0115379	-21.7515	49.1204	45.623	18.2031	0.0189163	0.00755825	0.0203704	21.7798	1.20183e+08	3.00787e+08	3.23908e+08	-68.2202	0.0000000E+000	0.0000000E+000	0.0000000E+000	68.2202	0.0000000E+000	0.0000000E+000	0.0000000E+000	-68.2202	0.0000000E+000	0.0000000E+000	0.0000000E+000	-21.7798	0.0000000E+000	0.0000000E+000	0.0000000E+000	21.7798	2.50274	68.2202	-0.000113079	1.32795e-07	1.12013e-10	1.32683e-07	0.273581	564575	476.218	564099