Folder: EIS/txt (part 59)

File: 17705_R287_UA661_SOC00_C04.mpt
EC-Lab ASCII FILE

Nb header lines : 63

Potentio Electrochemical Impedance Spectroscopy

Run on channel : 4 (SN 66756)
User :
CE vs. WE compliance from -10 V to 10 V
Electrode connection : standard
Potential control : Ewe
Ewe ctrl range : min = -10.00 V, max = 10.00 V
Safety Limits :
	Do not start on E overload
Acquisition started on : 09/22/2025 10:03:07.935
Loaded Setting File :  C:\Users\Celltest\OneDrive - store-dot.com\Documents\EC-Lab\Data\Gyutae\17739_R277_UA674_SOC00_C03.mpr
Saved on :
	File : 17705_R287_UA661_SOC00_C04.mpr
	Directory : C:\Users\Celltest\OneDrive - store-dot.com\Documents\EC-Lab\Data\Charmaine\
	Host : 169.254.61.224
Device : VMP-3e (SN .003165)
Address : USB
EC-LAB for windows v11.62 (software)
Internet server v27.00 (firmware)
Command interpretor v12.03 (firmware)
Electrode material :
Initial state :
Electrolyte :
Comments :
Electrode surface area : 0.001 cm²
Characteristic mass : 0.001 g
Equivalent Weight : 0.000 g/eq.
Density : 0.000 g/cm3
Volume (V) : 0.001 cm³
Cycle Definition : Charge/Discharge alternance
Mode                Single sine
E (V)               0.0000
vs.                 Eoc
tE (h:m:s)          0:00:0.0000
record              0
dI                  0.000
unit dI             mA
dt (s)              0.000
fi                  100.000
unit fi             kHz
ff                  10.000
unit ff             mHz
Nd                  6
Points              per decade
spacing             Logarithmic
Va (mV)             5.0
pw                  0.10
Na                  2
corr                0
E range min (V)     -10.000
E range max (V)     10.000
I Range             Auto
Bandwidth           5
nc cycles           0
goto Ns'            0
nr cycles           0
inc. cycle          0

freq/Hz	Re(Z)/Ohm	-Im(Z)/Ohm	|Z|/Ohm	Phase(Z)/deg	time/s	<Ewe>/V	<I>/mA	Cs/µF	Cp/µF	cycle number	I Range	|Ewe|/V	|I|/A	Ns	(Q-Qo)/mA.h	Re(Y)/Ohm-1	Im(Y)/Ohm-1	|Y|/Ohm-1	Phase(Y)/deg	Re(C)/nF	Im(C)/nF	|C|/nF	Phase(C)/deg	Re(M)	Im(M)	|M|	Phase(M)/deg	Re(Permittivity)	Im(Permittivity)	|Permittivity|	Phase(Permittivity)/deg	Re(Resistivity)/Ohm.cm	Im(Resistivity)/Ohm.cm	|Resistivity|/Ohm.cm	Phase(Resistivity)/deg	Re(Conductivity)/mS/cm	Im(Conductivity)/mS/cm	|Conductivity|/mS/cm	Phase(Conductivity)/deg	Tan(Delta)	Loss Angle(Delta)/deg	dq/mA.h	Pwe/W	Rwe/Ohm
100004	1.28512	0.289186	1.31726	-12.6818	2.0665	0.281091	-0.0104285	5.50335	0.265241	1	9	0.00469514	0.00356434	0	-1.13527e-05	0.740634	0.166662	0.759154	12.6818	265.241	1178.71	1208.19	-77.3182	0.0000000E+000	0.0000000E+000	0.0000000E+000	77.3182	0.0000000E+000	0.0000000E+000	0.0000000E+000	-77.3182	0.0000000E+000	0.0000000E+000	0.0000000E+000	-12.6818	0.0000000E+000	0.0000000E+000	0.0000000E+000	12.6818	4.44393	77.3182	-1.13527e-05	-2.93136e-06	26954
46420.4	1.42477	0.349472	1.467	-13.7816	3.2235	0.281099	-0.0129088	9.81069	0.556753	1	9	0.00506234	0.00345081	0	-1.51735e-05	0.662038	0.162387	0.681662	13.7816	556.753	2269.84	2337.12	-76.2184	0.0000000E+000	0.0000000E+000	0.0000000E+000	76.2184	0.0000000E+000	0.0000000E+000	0.0000000E+000	-76.2184	0.0000000E+000	0.0000000E+000	0.0000000E+000	-13.7816	0.0000000E+000	0.0000000E+000	0.0000000E+000	13.7816	4.07692	76.2184	-8.05024e-07	-3.62865e-06	21775.8
21544.7	1.60006	0.44944	1.66198	-15.6895	4.23949	0.281115	-0.023091	16.4365	1.20199	1	9	0.00520686	0.00313293	0	-1.23069e-05	0.579274	0.162712	0.601692	15.6895	1201.99	4279.21	4444.82	-74.3105	0.0000000E+000	0.0000000E+000	0.0000000E+000	74.3105	0.0000000E+000	0.0000000E+000	0.0000000E+000	-74.3105	0.0000000E+000	0.0000000E+000	0.0000000E+000	-15.6895	0.0000000E+000	0.0000000E+000	0.0000000E+000	15.6895	3.56011	74.3105	2.91283e-06	-6.49122e-06	12174.2
10002.2	1.80818	0.584542	1.90032	-17.9148	5.11348	0.281208	-0.0176456	27.2212	2.57565	1	9	0.00492545	0.00259191	0	-1.49055e-05	0.500714	0.161869	0.526228	17.9148	2575.66	7967.34	8373.32	-72.0852	0.0000000E+000	0.0000000E+000	0.0000000E+000	72.0852	0.0000000E+000	0.0000000E+000	0.0000000E+000	-72.0852	0.0000000E+000	0.0000000E+000	0.0000000E+000	-17.9148	0.0000000E+000	0.0000000E+000	0.0000000E+000	17.9148	3.09333	72.0852	-2.40618e-06	-4.96208e-06	15936.5
4641.49	2.08915	0.784393	2.23156	-20.5791	5.96271	0.281116	0.020062	43.7149	5.40109	1	9	0.00452267	0.00202669	0	-2.79234e-05	0.419523	0.157514	0.448118	20.5791	5401.09	14385.3	15365.8	-69.4209	0.0000000E+000	0.0000000E+000	0.0000000E+000	69.4209	0.0000000E+000	0.0000000E+000	0.0000000E+000	-69.4209	0.0000000E+000	0.0000000E+000	0.0000000E+000	-20.5791	0.0000000E+000	0.0000000E+000	0.0000000E+000	20.5791	2.6634	69.4209	7.96762e-07	5.63973e-06	14012.4
2155.69	2.44032	1.06367	2.66206	-23.5511	7.11969	0.281107	0.025843	69.4105	11.0817	1	9	0.00492237	0.00184908	0	-2.02904e-05	0.344358	0.150097	0.375649	23.5511	11081.7	25424	27734.2	-66.4489	0.0000000E+000	0.0000000E+000	0.0000000E+000	66.4489	0.0000000E+000	0.0000000E+000	0.0000000E+000	-66.4489	0.0000000E+000	0.0000000E+000	0.0000000E+000	-23.5511	0.0000000E+000	0.0000000E+000	0.0000000E+000	23.5511	2.29424	66.4489	2.55124e-06	7.26466e-06	10877.5
1000.32	2.92747	1.52481	3.30077	-27.5133	8.30968	0.281101	-0.0159058	104.344	22.2671	1	10	0.00500625	0.00151669	0	-1.77002e-05	0.268696	0.139953	0.302959	27.5133	22267.1	42750.6	48202	-62.4867	0.0000000E+000	0.0000000E+000	0.0000000E+000	62.4867	0.0000000E+000	0.0000000E+000	0.0000000E+000	-62.4867	0.0000000E+000	0.0000000E+000	0.0000000E+000	-27.5133	0.0000000E+000	0.0000000E+000	0.0000000E+000	27.5133	1.91989	62.4867	1.82721e-06	-4.47114e-06	17672.8
463.961	3.61441	2.25755	4.26151	-31.9888	9.24419	0.281101	-0.0155496	151.95	42.6431	1	10	0.00493054	0.00115699	0	-2.08204e-05	0.199026	0.124311	0.234659	31.9888	42643.1	68273	80496.2	-58.0112	0.0000000E+000	0.0000000E+000	0.0000000E+000	58.0112	0.0000000E+000	0.0000000E+000	0.0000000E+000	-58.0112	0.0000000E+000	0.0000000E+000	0.0000000E+000	-31.9888	0.0000000E+000	0.0000000E+000	0.0000000E+000	31.9888	1.60103	58.0112	-1.80103e-06	-4.371e-06	18077.7
215.345	4.67768	3.36892	5.76457	-35.7619	10.1784	0.281067	-0.015973	219.38	74.9278	1	10	0.00487876	0.000846335	0	-2.33014e-05	0.140766	0.101381	0.173474	35.7619	74927.8	104036	128209	-54.2381	0.0000000E+000	0.0000000E+000	0.0000000E+000	54.2381	0.0000000E+000	0.0000000E+000	0.0000000E+000	-54.2381	0.0000000E+000	0.0000000E+000	0.0000000E+000	-35.7619	0.0000000E+000	0.0000000E+000	0.0000000E+000	35.7619	1.38848	54.2381	-1.16647e-06	-4.48948e-06	17596.4
100.032	6.5187	5.01195	8.22272	-37.5552	11.1087	0.281057	-0.0158555	317.449	117.939	1	10	0.00488169	0.000593683	0	-2.79786e-05	0.0964118	0.074127	0.121614	37.5552	117939	153395	193493	-52.4448	0.0000000E+000	0.0000000E+000	0.0000000E+000	52.4448	0.0000000E+000	0.0000000E+000	0.0000000E+000	-52.4448	0.0000000E+000	0.0000000E+000	0.0000000E+000	-37.5552	0.0000000E+000	0.0000000E+000	0.0000000E+000	37.5552	1.30063	52.4448	-2.3365e-06	-4.4563e-06	17726.2
46.4415	9.64038	6.69263	11.7358	-34.7695	12.0426	0.281046	-0.0179407	512.055	166.528	1	10	0.00487954	0.000415784	0	-3.2245e-05	0.0699957	0.048593	0.0852096	34.7695	166528	239875	292013	-55.2305	0.0000000E+000	0.0000000E+000	0.0000000E+000	55.2305	0.0000000E+000	0.0000000E+000	0.0000000E+000	-55.2305	0.0000000E+000	0.0000000E+000	0.0000000E+000	-34.7695	0.0000000E+000	0.0000000E+000	0.0000000E+000	34.7695	1.44045	55.2305	-2.35533e-06	-5.04215e-06	15665.3
[...]
0.464091	28.8661	3.99792	29.1416	-7.88523	29.0489	0.281128	-0.00120106	85779.5	1614.45	1	12	0.00489408	0.000167941	0	-5.92958e-05	0.0339907	0.00470767	0.0343152	7.88523	1.61445e+06	1.16568e+07	1.1768e+07	-82.1148	0.0000000E+000	0.0000000E+000	0.0000000E+000	82.1148	0.0000000E+000	0.0000000E+000	0.0000000E+000	-82.1148	0.0000000E+000	0.0000000E+000	0.0000000E+000	-7.88523	0.0000000E+000	0.0000000E+000	0.0000000E+000	7.88523	7.22028	82.1148	-1.01443e-05	-3.37652e-07	234067
0.215268	30.2834	3.76314	30.5163	-7.08349	45.5288	0.281134	-0.00217699	196468	2987.63	1	12	0.00487594	0.000159781	0	-5.78582e-05	0.0325192	0.00404097	0.0327693	7.08349	2.98763e+06	2.40426e+07	2.42275e+07	-82.9165	0.0000000E+000	0.0000000E+000	0.0000000E+000	82.9165	0.0000000E+000	0.0000000E+000	0.0000000E+000	-82.9165	0.0000000E+000	0.0000000E+000	0.0000000E+000	-7.08349	0.0000000E+000	0.0000000E+000	0.0000000E+000	7.08349	8.04738	82.9165	6.22693e-06	-6.12026e-07	129139
0.0999041	31.6128	4.04751	31.8709	-7.2961	80.9343	0.281126	-0.00133576	393595	6348	1	12	0.00486907	0.000152775	0	-4.47822e-06	0.0311226	0.00398474	0.0313766	7.2961	6.348e+06	4.95807e+07	4.99854e+07	-82.7039	0.0000000E+000	0.0000000E+000	0.0000000E+000	82.7039	0.0000000E+000	0.0000000E+000	0.0000000E+000	-82.7039	0.0000000E+000	0.0000000E+000	0.0000000E+000	-7.2961	0.0000000E+000	0.0000000E+000	0.0000000E+000	7.2961	7.81044	82.7039	3.21705e-05	-3.75516e-07	210462
0.0464052	33.2838	5.49609	33.7346	-9.37653	157.171	0.281125	0.000227669	624021	16563.7	1	12	0.00487094	0.00014439	0	2.07975e-05	0.0292471	0.00482952	0.0296432	9.37653	1.65637e+07	1.00308e+08	1.01667e+08	-80.6235	0.0000000E+000	0.0000000E+000	0.0000000E+000	80.6235	0.0000000E+000	0.0000000E+000	0.0000000E+000	-80.6235	0.0000000E+000	0.0000000E+000	0.0000000E+000	-9.37653	0.0000000E+000	0.0000000E+000	0.0000000E+000	9.37653	6.05591	80.6235	-3.80462e-06	6.40035e-08	1.23479e+06
0.0215268	35.361	8.19682	36.2986	-13.0509	321.401	0.281131	0.000120511	901978	45994.7	1	12	0.00486806	0.000134112	0	-0.000225191	0.0268377	0.00622109	0.0275493	13.0509	4.59947e+07	1.9842e+08	2.03682e+08	-76.9491	0.0000000E+000	0.0000000E+000	0.0000000E+000	76.9491	0.0000000E+000	0.0000000E+000	0.0000000E+000	-76.9491	0.0000000E+000	0.0000000E+000	0.0000000E+000	-13.0509	0.0000000E+000	0.0000000E+000	0.0000000E+000	13.0509	4.31399	76.9491	-0.000171261	3.38794e-08	2.33283e+06
0.0146812	36.9596	10.1252	38.3214	-15.3205	464.596	0.281126	-0.000724019	1.07067e+06	74744.8	1	12	0.00487501	0.000127214	0	-0.000463155	0.0251677	0.0068948	0.0260951	15.3205	7.47448e+07	2.72837e+08	2.8289e+08	-74.6795	0.0000000E+000	0.0000000E+000	0.0000000E+000	74.6795	0.0000000E+000	0.0000000E+000	0.0000000E+000	-74.6795	0.0000000E+000	0.0000000E+000	0.0000000E+000	-15.3205	0.0000000E+000	0.0000000E+000	0.0000000E+000	15.3205	3.65025	74.6795	-0.000237964	-2.0354e-07	388285

0.0100092	38.9173	12.7312	40.9468	-18.1147	674.617	0.281125	-0.00132653	1.24898e+06	120740	1	12	0.00487821	0.000119135	0	-0.000660136	0.0232115	0.00759327	0.0244219	18.1147	1.2074e+08	3.69084e+08	3.88331e+08	-71.8853	0.0000000E+000	0.0000000E+000	0.0000000E+000	71.8853	0.0000000E+000	0.0000000E+000	0.0000000E+000	-71.8853	0.0000000E+000	0.0000000E+000	0.0000000E+000	-18.1147	0.0000000E+000	0.0000000E+000	0.0000000E+000	18.1147	3.05685	71.8853	-0.000196981	-3.72921e-07	211925

File: 17706_R287_UA662_SOC00_C05.mpt
EC-Lab ASCII FILE
Nb header lines : 63

Potentio Electrochemical Impedance Spectroscopy

Run on channel : 5 (SN 65912)
User :
CE vs. WE compliance from -10 V to 10 V
Electrode connection : standard
Potential control : Ewe
Ewe ctrl range : min = -10.00 V, max = 10.00 V
Safety Limits :
	Do not start on E overload
Acquisition started on : 09/22/2025 10:03:28.043
Loaded Setting File :  C:\Users\Celltest\OneDrive - store-dot.com\Documents\EC-Lab\Data\Gyutae\17740_R277_UA674_SOC00_C04.mpr
Saved on :
	File : 17706_R287_UA662_SOC00_C05.mpr
	Directory : C:\Users\Celltest\OneDrive - store-dot.com\Documents\EC-Lab\Data\Charmaine\
	Host : 169.254.61.224
Device : VMP-3e (SN .003165)
Address : USB
EC-LAB for windows v11.62 (software)
Internet server v27.00 (firmware)
Command interpretor v12.03 (firmware)
Electrode material :
Initial state :
Electrolyte :
Comments :
Electrode surface area : 0.001 cm²
Characteristic mass : 0.001 g
Equivalent Weight : 0.000 g/eq.
Density : 0.000 g/cm3
Volume (V) : 0.001 cm³
Cycle Definition : Charge/Discharge alternance
Mode                Single sine
E (V)               0.0000
vs.                 Eoc
tE (h:m:s)          0:00:0.0000
record              0
dI                  0.000
unit dI             mA
dt (s)              0.000
fi                  100.000
unit fi             kHz
ff                  10.000
unit ff             mHz
Nd                  6
Points              per decade
spacing             Logarithmic
Va (mV)             5.0
pw                  0.10
Na                  2
corr                0
E range min (V)     -10.000
E range max (V)     10.000
I Range             Auto
Bandwidth           5
nc cycles           0
goto Ns'            0
nr cycles           0
inc. cycle          0

freq/Hz	Re(Z)/Ohm	-Im(Z)/Ohm	|Z|/Ohm	Phase(Z)/deg	time/s	<Ewe>/V	<I>/mA	Cs/µF	Cp/µF	cycle number	I Range	|Ewe|/V	|I|/A	Ns	(Q-Qo)/mA.h	Re(Y)/Ohm-1	Im(Y)/Ohm-1	|Y|/Ohm-1	Phase(Y)/deg	Re(C)/nF	Im(C)/nF	|C|/nF	Phase(C)/deg	Re(M)	Im(M)	|M|	Phase(M)/deg	Re(Permittivity)	Im(Permittivity)	|Permittivity|	Phase(Permittivity)/deg	Re(Resistivity)/Ohm.cm	Im(Resistivity)/Ohm.cm	|Resistivity|/Ohm.cm	Phase(Resistivity)/deg	Re(Conductivity)/mS/cm	Im(Conductivity)/mS/cm	|Conductivity|/mS/cm	Phase(Conductivity)/deg	Tan(Delta)	Loss Angle(Delta)/deg	dq/mA.h	Pwe/W	Rwe/Ohm
100004	1.13379	0.239765	1.15887	-11.9405	1.8645	0.275352	-0.0017159	6.6377	0.284134	1	9	0.00489759	0.00422619	0	2.06451e-06	0.844241	0.178533	0.862912	11.9405	284.134	1343.6	1373.32	-78.0595	0.0000000E+000	0.0000000E+000	0.0000000E+000	78.0595	0.0000000E+000	0.0000000E+000	0.0000000E+000	-78.0595	0.0000000E+000	0.0000000E+000	0.0000000E+000	-11.9405	0.0000000E+000	0.0000000E+000	0.0000000E+000	11.9405	4.72876	78.0595	2.06451e-06	-4.72477e-07	160471
46420.4	1.25836	0.298023	1.29317	-13.3241	3.02049	0.275333	-0.00735774	11.5043	0.611013	1	9	0.00505917	0.00391223	0	-1.84093e-05	0.752478	0.178213	0.773294	13.3241	611.014	2579.92	2651.28	-76.6759	0.0000000E+000	0.0000000E+000	0.0000000E+000	76.6759	0.0000000E+000	0.0000000E+000	0.0000000E+000	-76.6759	0.0000000E+000	0.0000000E+000	0.0000000E+000	-13.3241	0.0000000E+000	0.0000000E+000	0.0000000E+000	13.3241	4.22236	76.6759	-7.0068e-06	-2.02583e-06	37420.9
21544.7	1.40843	0.379517	1.45866	-15.0808	4.03549	0.275334	-0.00808392	19.4648	1.31765	1	9	0.00527639	0.00361729	0	-1.90381e-05	0.661949	0.17837	0.68556	15.0808	1317.65	4889.95	5064.37	-74.9192	0.0000000E+000	0.0000000E+000	0.0000000E+000	74.9192	0.0000000E+000	0.0000000E+000	0.0000000E+000	-74.9192	0.0000000E+000	0.0000000E+000	0.0000000E+000	-15.0808	0.0000000E+000	0.0000000E+000	0.0000000E+000	15.0808	3.7111	74.9192	-1.25002e-06	-2.22578e-06	34059.4
10002.2	1.58883	0.479642	1.65965	-16.7982	4.76848	0.275334	-0.000189097	33.1746	2.7708	1	9	0.00494887	0.00298187	0	-2.21697e-05	0.576824	0.174133	0.602535	16.7982	2770.8	9178.4	9587.51	-73.2018	0.0000000E+000	0.0000000E+000	0.0000000E+000	73.2018	0.0000000E+000	0.0000000E+000	0.0000000E+000	-73.2018	0.0000000E+000	0.0000000E+000	0.0000000E+000	-16.7982	0.0000000E+000	0.0000000E+000	0.0000000E+000	16.7982	3.31254	73.2018	-1.27243e-06	-5.20649e-08	1.45605e+06
4641.49	1.80029	0.645034	1.91236	-19.7123	5.61771	0.275326	0.0279456	53.1594	6.04795	1	9	0.00454138	0.00237476	0	-3.71811e-05	0.492271	0.176378	0.522915	19.7123	6047.95	16879.8	17930.6	-70.2877	0.0000000E+000	0.0000000E+000	0.0000000E+000	70.2877	0.0000000E+000	0.0000000E+000	0.0000000E+000	-70.2877	0.0000000E+000	0.0000000E+000	0.0000000E+000	-19.7123	0.0000000E+000	0.0000000E+000	0.0000000E+000	19.7123	2.791	70.2877	1.70181e-06	7.69415e-06	9852.23
2155.69	2.05667	0.919337	2.2528	-24.0847	6.7747	0.275329	0.0303475	80.308	13.3741	1	9	0.00480822	0.00213433	0	-3.01121e-05	0.405249	0.181147	0.443893	24.0847	13374.1	29919.6	32772.7	-65.9153	0.0000000E+000	0.0000000E+000	0.0000000E+000	65.9153	0.0000000E+000	0.0000000E+000	0.0000000E+000	-65.9153	0.0000000E+000	0.0000000E+000	0.0000000E+000	-24.0847	0.0000000E+000	0.0000000E+000	0.0000000E+000	24.0847	2.23713	65.9153	9.37535e-07	8.35555e-06	9072.54
1000.32	2.42272	1.42209	2.80926	-30.4122	7.71068	0.275324	0.0276104	111.88	28.67	1	9	0.00476467	0.00169606	0	-2.4383e-05	0.306987	0.180196	0.355966	30.4122	28670	48842.9	56635.6	-59.5878	0.0000000E+000	0.0000000E+000	0.0000000E+000	59.5878	0.0000000E+000	0.0000000E+000	0.0000000E+000	-59.5878	0.0000000E+000	0.0000000E+000	0.0000000E+000	-30.4122	0.0000000E+000	0.0000000E+000	0.0000000E+000	30.4122	1.70363	59.5878	3.59173e-06	7.60179e-06	9971.74
463.961	3.01482	2.26626	3.77162	-36.9325	8.8992	0.275279	-0.0160109	151.366	54.6505	1	10	0.00481501	0.00127664	0	-2.79988e-05	0.211937	0.159315	0.265138	36.9325	54650.5	72701.9	90951.9	-53.0675	0.0000000E+000	0.0000000E+000	0.0000000E+000	53.0675	0.0000000E+000	0.0000000E+000	0.0000000E+000	-53.0675	0.0000000E+000	0.0000000E+000	0.0000000E+000	-36.9325	0.0000000E+000	0.0000000E+000	0.0000000E+000	36.9325	1.3303	53.0675	-2.3792e-06	-4.40747e-06	17193.2
215.345	4.12699	3.59726	5.4747	-41.0768	9.83343	0.275285	-0.0165266	205.454	88.7029	1	10	0.00476453	0.00087028	0	-3.08183e-05	0.137693	0.120019	0.182658	41.0768	88702.9	101765	134998	-48.9232	0.0000000E+000	0.0000000E+000	0.0000000E+000	48.9232	0.0000000E+000	0.0000000E+000	0.0000000E+000	-48.9232	0.0000000E+000	0.0000000E+000	0.0000000E+000	-41.0768	0.0000000E+000	0.0000000E+000	0.0000000E+000	41.0768	1.14726	48.9232	-1.12829e-06	-4.54954e-06	16657.1
100.032	6.20846	5.37146	8.2096	-40.8658	10.7647	0.275281	-0.0158304	296.202	126.803	1	10	0.00474699	0.000578224	0	-3.54623e-05	0.092117	0.0796982	0.121809	40.8658	126803	146562	193802	-49.1342	0.0000000E+000	0.0000000E+000	0.0000000E+000	49.1342	0.0000000E+000	0.0000000E+000	0.0000000E+000	-49.1342	0.0000000E+000	0.0000000E+000	0.0000000E+000	-40.8658	0.0000000E+000	0.0000000E+000	0.0000000E+000	40.8658	1.15582	49.1342	-2.38267e-06	-4.35779e-06	17389.4
46.4415	9.70956	7.03863	11.9924	-35.939	11.6975	0.275278	-0.0180793	486.884	167.722	1	10	0.00474563	0.00039572	0	-3.98143e-05	0.0675129	0.0489413	0.0833861	35.939	167722	231366	285764	-54.061	0.0000000E+000	0.0000000E+000	0.0000000E+000	54.061	0.0000000E+000	0.0000000E+000	0.0000000E+000	-54.061	0.0000000E+000	0.0000000E+000	0.0000000E+000	-35.939	0.0000000E+000	0.0000000E+000	0.0000000E+000	35.939	1.37947	54.061	-2.27552e-06	-4.97683e-06	15226.1
[...]
1.00006	24.8104	3.27921	25.0262	-7.52918	21.0181	0.275306	-0.00535476	48531.4	833.243	1	12	0.00474553	0.000189622	0	-6.14871e-05	0.0396136	0.00523576	0.0399581	7.52918	833243	6.3043e+06	6.35912e+06	-82.4708	0.0000000E+000	0.0000000E+000	0.0000000E+000	82.4708	0.0000000E+000	0.0000000E+000	0.0000000E+000	-82.4708	0.0000000E+000	0.0000000E+000	0.0000000E+000	-7.52918	0.0000000E+000	0.0000000E+000	0.0000000E+000	7.52918	7.56598	82.4708	-1.06954e-05	-1.4742e-06	51413.5
0.464091	26.0485	2.75473	26.1938	-6.03681	28.7029	0.275314	-0.00516123	124491	1376.9	1	12	0.00474443	0.000181128	0	-8.67233e-05	0.0379653	0.00401498	0.038177	6.03681	1.3769e+06	1.30198e+07	1.30924e+07	-83.9632	0.0000000E+000	0.0000000E+000	0.0000000E+000	83.9632	0.0000000E+000	0.0000000E+000	0.0000000E+000	-83.9632	0.0000000E+000	0.0000000E+000	0.0000000E+000	-6.03681	0.0000000E+000	0.0000000E+000	0.0000000E+000	6.03681	9.45592	83.9632	-1.22178e-05	-1.42096e-06	53342.7
0.215268	26.9861	2.73376	27.1242	-5.78447	45.1829	0.275309	-0.00521518	270446	2747.18	1	12	0.00474756	0.00017503	0	-8.72689e-05	0.0366797	0.00371574	0.0368674	5.78447	2.74718e+06	2.71186e+07	2.72573e+07	-84.2155	0.0000000E+000	0.0000000E+000	0.0000000E+000	84.2155	0.0000000E+000	0.0000000E+000	0.0000000E+000	-84.2155	0.0000000E+000	0.0000000E+000	0.0000000E+000	-5.78447	0.0000000E+000	0.0000000E+000	0.0000000E+000	5.78447	9.87142	84.2155	5.20455e-06	-1.43578e-06	52789.9
0.0999041	27.9411	3.20992	28.1248	-6.5535	80.5911	0.275313	-0.00292551	496299	6464.73	1	12	0.00474668	0.000168772	0	-5.6202e-05	0.0353234	0.00405801	0.0355558	6.5535	6.46473e+06	5.62729e+07	5.66431e+07	-83.4465	0.0000000E+000	0.0000000E+000	0.0000000E+000	83.4465	0.0000000E+000	0.0000000E+000	0.0000000E+000	-83.4465	0.0000000E+000	0.0000000E+000	0.0000000E+000	-6.5535	0.0000000E+000	0.0000000E+000	0.0000000E+000	6.5535	8.70461	83.4465	1.57567e-05	-8.05432e-07	94107.6
0.0464052	29.0984	4.63982	29.466	-9.05969	156.828	0.275308	-0.000610482	739184	18327.9	1	12	0.0047464	0.000161081	0	-0.000110375	0.033514	0.0053439	0.0339374	9.05969	1.83279e+07	1.14942e+08	1.16394e+08	-80.9403	0.0000000E+000	0.0000000E+000	0.0000000E+000	80.9403	0.0000000E+000	0.0000000E+000	0.0000000E+000	-80.9403	0.0000000E+000	0.0000000E+000	0.0000000E+000	-9.05969	0.0000000E+000	0.0000000E+000	0.0000000E+000	9.05969	6.27146	80.9403	-5.3201e-05	-1.68071e-07	450968
0.0215268	30.8012	7.04344	31.5962	-12.8806	321.057	0.275309	-0.000819059	1.04968e+06	52162	1	12	0.00474583	0.000150202	0	-0.000457767	0.0308529	0.00705527	0.0316493	12.8806	5.2162e+07	2.28106e+08	2.33994e+08	-77.1194	0.0000000E+000	0.0000000E+000	0.0000000E+000	77.1194	0.0000000E+000	0.0000000E+000	0.0000000E+000	-77.1194	0.0000000E+000	0.0000000E+000	0.0000000E+000	-12.8806	0.0000000E+000	0.0000000E+000	0.0000000E+000	12.8806	4.37303	77.1194	-0.000212668	-2.25494e-07	336128
0.0100092	33.4748	11.5561	35.4134	-19.0455	674.274	0.275309	-0.00170964	1.37598e+06	146520	1	12	0.00474566	0.000134008	0	-0.000771299	0.0266922	0.00921459	0.0282379	19.0455	1.4652e+08	4.2443e+08	4.49009e+08	-70.9545	0.0000000E+000	0.0000000E+000	0.0000000E+000	70.9545	0.0000000E+000	0.0000000E+000	0.0000000E+000	-70.9545	0.0000000E+000	0.0000000E+000	0.0000000E+000	-19.0455	0.0000000E+000	0.0000000E+000	0.0000000E+000	19.0455	2.89673	70.9545	-8.91332e-05	-4.70678e-07	161034