Folder: EIS/txt (part 28)

File: 17461_R277_UA655_SOC00_C03.mpt
EC-Lab ASCII FILE
Nb header lines : 63

Potentio Electrochemical Impedance Spectroscopy

Run on channel : 3 (SN 65921)
User :
CE vs. WE compliance from -10 V to 10 V
Electrode connection : standard
Potential control : Ewe
Ewe ctrl range : min = -10.00 V, max = 10.00 V
Safety Limits :
	Do not start on E overload
Acquisition started on : 09/12/2025 09:48:42.600
Loaded Setting File :  C:\Users\Celltest\OneDrive - store-dot.com\Documents\EC-Lab\Data\Charmaine\R279\17382_C01.mpr
Saved on :
	File : 17461_C03.mpr
	Directory : C:\Users\Celltest\OneDrive - store-dot.com\Documents\EC-Lab\Data\Gyutae\R277\
	Host : 169.254.61.224
Device : VMP-3e (SN .003165)
Address : USB
EC-LAB for windows v11.62 (software)
Internet server v27.00 (firmware)
Command interpretor v12.03 (firmware)
Electrode material :
Initial state :
Electrolyte :
Comments :
Electrode surface area : 0.001 cm²
Characteristic mass : 0.001 g
Equivalent Weight : 0.000 g/eq.
Density : 0.000 g/cm3
Volume (V) : 0.001 cm³
Cycle Definition : Charge/Discharge alternance
Mode                Single sine
E (V)               0.0000
vs.                 Eoc
tE (h:m:s)          0:00:0.0000
record              0
dI                  0.000
unit dI             mA
dt (s)              0.000
fi                  100.000
unit fi             kHz
ff                  10.000
unit ff             mHz
Nd                  6
Points              per decade
spacing             Logarithmic
Va (mV)             5.0
pw                  0.10
Na                  2
corr                0
E range min (V)     -10.000
E range max (V)     10.000
I Range             Auto
Bandwidth           5
nc cycles           0
goto Ns'            0
nr cycles           0
inc. cycle          0

freq/Hz	Re(Z)/Ohm	-Im(Z)/Ohm	|Z|/Ohm	Phase(Z)/deg	time/s	<Ewe>/V	<I>/mA	Cs/µF	Cp/µF	cycle number	I Range	|Ewe|/V	|I|/A	Ns	(Q-Qo)/mA.h	Re(Y)/Ohm-1	Im(Y)/Ohm-1	|Y|/Ohm-1	Phase(Y)/deg	Re(C)/nF	Im(C)/nF	|C|/nF	Phase(C)/deg	Re(M)	Im(M)	|M|	Phase(M)/deg	Re(Permittivity)	Im(Permittivity)	|Permittivity|	Phase(Permittivity)/deg	Re(Resistivity)/Ohm.cm	Im(Resistivity)/Ohm.cm	|Resistivity|/Ohm.cm	Phase(Resistivity)/deg	Re(Conductivity)/mS/cm	Im(Conductivity)/mS/cm	|Conductivity|/mS/cm	Phase(Conductivity)/deg	Tan(Delta)	Loss Angle(Delta)/deg	dq/mA.h	Pwe/W	Rwe/Ohm
100004	1.3054	0.275819	1.33422	-11.9306	1.86548	0.274733	-0.00847202	5.77005	0.246589	1	9	0.00457442	0.00342853	0	-1.45941e-05	0.733311	0.154942	0.749501	11.9306	246.589	1167.06	1192.82	-78.0694	0.0000000E+000	0.0000000E+000	0.0000000E+000	78.0694	0.0000000E+000	0.0000000E+000	0.0000000E+000	-78.0694	0.0000000E+000	0.0000000E+000	0.0000000E+000	-11.9306	0.0000000E+000	0.0000000E+000	0.0000000E+000	11.9306	4.73281	78.0694	-1.45941e-05	-2.32754e-06	32428.2
46420.4	1.44654	0.330144	1.48374	-12.8564	2.8805	0.274746	-0.00794991	10.3851	0.514162	1	9	0.00502751	0.0033884	0	-2.92912e-06	0.657077	0.149964	0.673973	12.8564	514.162	2252.83	2310.76	-77.1436	0.0000000E+000	0.0000000E+000	0.0000000E+000	77.1436	0.0000000E+000	0.0000000E+000	0.0000000E+000	-77.1436	0.0000000E+000	0.0000000E+000	0.0000000E+000	-12.8564	0.0000000E+000	0.0000000E+000	0.0000000E+000	12.8564	4.38155	77.1436	9.92741e-06	-2.1842e-06	34559.6
21544.7	1.60797	0.410614	1.65957	-14.325	3.7545	0.274735	0.00346192	17.9906	1.10134	1	9	0.00532328	0.00320763	0	-1.21488e-06	0.583831	0.149088	0.602566	14.325	1101.34	4312.88	4451.28	-75.675	0.0000000E+000	0.0000000E+000	0.0000000E+000	75.675	0.0000000E+000	0.0000000E+000	0.0000000E+000	-75.675	0.0000000E+000	0.0000000E+000	0.0000000E+000	-14.325	0.0000000E+000	0.0000000E+000	0.0000000E+000	14.325	3.91601	75.675	-2.0144e-06	9.51111e-07	79359.2
10002.2	1.80803	0.516763	1.88043	-15.9507	4.62848	0.274747	0.00955941	30.7916	2.3254	1	9	0.0051061	0.00271538	0	-5.0171e-06	0.511317	0.146142	0.531792	15.9507	2325.4	8136.06	8461.85	-74.0493	0.0000000E+000	0.0000000E+000	0.0000000E+000	74.0493	0.0000000E+000	0.0000000E+000	0.0000000E+000	-74.0493	0.0000000E+000	0.0000000E+000	0.0000000E+000	-15.9507	0.0000000E+000	0.0000000E+000	0.0000000E+000	15.9507	3.49877	74.0493	-1.04657e-08	2.62642e-06	28741
4641.49	2.06415	0.659412	2.16692	-17.7166	5.47771	0.274758	0.0248871	52.0004	4.81543	1	9	0.00520656	0.00240275	0	9.87113e-08	0.439599	0.140434	0.461485	17.7166	4815.43	15073.7	15824.2	-72.2834	0.0000000E+000	0.0000000E+000	0.0000000E+000	72.2834	0.0000000E+000	0.0000000E+000	0.0000000E+000	-72.2834	0.0000000E+000	0.0000000E+000	0.0000000E+000	-17.7166	0.0000000E+000	0.0000000E+000	0.0000000E+000	17.7166	3.13029	72.2834	4.94643e-06	6.83793e-06	11040.2
2155.69	2.40163	0.865001	2.55265	-19.8077	6.4117	0.274764	0.0250362	85.3527	9.80092	1	9	0.00509893	0.0019975	0	6.61437e-06	0.368572	0.13275	0.391749	19.8077	9800.92	27211.7	28922.9	-70.1924	0.0000000E+000	0.0000000E+000	0.0000000E+000	70.1924	0.0000000E+000	0.0000000E+000	0.0000000E+000	-70.1924	0.0000000E+000	0.0000000E+000	0.0000000E+000	-19.8077	0.0000000E+000	0.0000000E+000	0.0000000E+000	19.8077	2.77644	70.1924	4.71646e-06	6.87904e-06	10974.7
1000.32	2.85421	1.11002	3.06246	-21.2515	7.3477	0.274754	0.0281502	143.334	18.831	1	9	0.00502894	0.00164213	0	1.25442e-05	0.30433	0.118357	0.326535	21.2515	18831	48420.2	51953	-68.7485	0.0000000E+000	0.0000000E+000	0.0000000E+000	68.7485	0.0000000E+000	0.0000000E+000	0.0000000E+000	-68.7485	0.0000000E+000	0.0000000E+000	0.0000000E+000	-21.2515	0.0000000E+000	0.0000000E+000	0.0000000E+000	21.2515	2.5713	68.7485	3.01314e-06	7.73437e-06	9760.27
463.961	3.42447	1.39136	3.69633	-22.1118	8.53619	0.274759	-0.0269903	246.547	34.933	1	10	0.00503685	0.00136266	0	7.89027e-06	0.250641	0.101835	0.270539	22.1118	34933	85978.6	92804.3	-67.8882	0.0000000E+000	0.0000000E+000	0.0000000E+000	67.8882	0.0000000E+000	0.0000000E+000	0.0000000E+000	-67.8882	0.0000000E+000	0.0000000E+000	0.0000000E+000	-22.1118	0.0000000E+000	0.0000000E+000	0.0000000E+000	22.1118	2.46124	67.8882	-2.6672e-06	-7.41582e-06	10179.9
215.345	4.18095	1.72816	4.52403	-22.4573	9.47041	0.274753	-0.0259872	427.665	62.4048	1	10	0.00499203	0.00110345	0	8.03744e-07	0.204279	0.0844368	0.221042	22.4573	62404.8	150977	163366	-67.5427	0.0000000E+000	0.0000000E+000	0.0000000E+000	67.5427	0.0000000E+000	0.0000000E+000	0.0000000E+000	-67.5427	0.0000000E+000	0.0000000E+000	0.0000000E+000	-22.4573	0.0000000E+000	0.0000000E+000	0.0000000E+000	22.4573	2.41931	67.5427	-3.99967e-06	-7.14005e-06	10572.6
100.032	5.1949	2.04725	5.58375	-21.5088	10.4017	0.27476	-0.0242663	777.159	104.472	1	10	0.00497728	0.000891387	0	-4.88543e-06	0.166619	0.0656628	0.179091	21.5088	104472	265098	284941	-68.4912	0.0000000E+000	0.0000000E+000	0.0000000E+000	68.4912	0.0000000E+000	0.0000000E+000	0.0000000E+000	-68.4912	0.0000000E+000	0.0000000E+000	0.0000000E+000	-21.5088	0.0000000E+000	0.0000000E+000	0.0000000E+000	21.5088	2.5375	68.4912	-2.75059e-06	-6.66741e-06	11322.7
46.4415	6.41626	2.10045	6.75131	-18.1266	11.3356	0.274752	-0.0244546	1631.55	157.924	1	10	0.00496701	0.00073571	0	-1.08936e-05	0.140768	0.0460824	0.148119	18.1266	157924	482413	507604	-71.8734	0.0000000E+000	0.0000000E+000	0.0000000E+000	71.8734	0.0000000E+000	0.0000000E+000	0.0000000E+000	-71.8734	0.0000000E+000	0.0000000E+000	0.0000000E+000	-18.1266	0.0000000E+000	0.0000000E+000	0.0000000E+000	18.1266	3.05471	71.8734	-3.2706e-06	-6.71896e-06	11235.2
[...]
1.00006	9.60332	0.76215	9.63351	-4.53767	19.6351	0.27478	-0.0164085	208810	1306.96	1	11	0.00496878	0.000515781	0	-3.55547e-05	0.103479	0.00821242	0.103804	4.53767	1.30696e+06	1.64681e+07	1.65199e+07	-85.4623	0.0000000E+000	0.0000000E+000	0.0000000E+000	85.4623	0.0000000E+000	0.0000000E+000	0.0000000E+000	-85.4623	0.0000000E+000	0.0000000E+000	0.0000000E+000	-4.53767	0.0000000E+000	0.0000000E+000	0.0000000E+000	4.53767	12.6003	85.4623	-1.55394e-06	-4.50872e-06	16746.2
0.464091	9.8406	0.865011	9.87854	-5.02352	27.3198	0.274781	-0.010841	396456	3039.86	1	11	0.00497461	0.000503577	0	-9.85242e-05	0.100841	0.00886413	0.10123	5.02352	3.03986e+06	3.45822e+07	3.47156e+07	-84.9765	0.0000000E+000	0.0000000E+000	0.0000000E+000	84.9765	0.0000000E+000	0.0000000E+000	0.0000000E+000	-84.9765	0.0000000E+000	0.0000000E+000	0.0000000E+000	-5.02352	0.0000000E+000	0.0000000E+000	0.0000000E+000	5.02352	11.3763	84.9765	-4.43331e-05	-2.97891e-06	25346.4
0.215268	10.1721	1.19808	10.2424	-6.71736	43.7998	0.274773	-0.0113719	617102	8443.42	1	11	0.00497711	0.00048593	0	-0.000228716	0.0969627	0.0114203	0.097633	6.71736	8.44342e+06	7.16879e+07	7.21834e+07	-83.2826	0.0000000E+000	0.0000000E+000	0.0000000E+000	83.2826	0.0000000E+000	0.0000000E+000	0.0000000E+000	-83.2826	0.0000000E+000	0.0000000E+000	0.0000000E+000	-6.71736	0.0000000E+000	0.0000000E+000	0.0000000E+000	6.71736	8.49039	83.2826	-6.60273e-05	-3.1247e-06	24162.4
0.0999041	10.6064	1.91801	10.7785	-10.2503	79.2052	0.274771	-0.00994704	830589	26301.1	1	11	0.00497294	0.000461377	0	-0.000228757	0.0912968	0.0165096	0.0927776	10.2503	2.63011e+07	1.45443e+08	1.47802e+08	-79.7497	0.0000000E+000	0.0000000E+000	0.0000000E+000	79.7497	0.0000000E+000	0.0000000E+000	0.0000000E+000	-79.7497	0.0000000E+000	0.0000000E+000	0.0000000E+000	-10.2503	0.0000000E+000	0.0000000E+000	0.0000000E+000	10.2503	5.52992	79.7497	3.411e-05	-2.73316e-06	27623.4
0.0464052	11.3287	3.02059	11.7245	-14.9296	155.441	0.274783	-0.00141642	1.13543e+06	75363.2	1	11	0.00497794	0.000424577	0	8.01866e-05	0.0824126	0.0219738	0.0852918	14.9296	7.53632e+07	2.82649e+08	2.92523e+08	-75.0704	0.0000000E+000	0.0000000E+000	0.0000000E+000	75.0704	0.0000000E+000	0.0000000E+000	0.0000000E+000	-75.0704	0.0000000E+000	0.0000000E+000	0.0000000E+000	-14.9296	0.0000000E+000	0.0000000E+000	0.0000000E+000	14.9296	3.75049	75.0704	0.000198838	-3.89207e-07	193998
0.0215268	12.3011	5.25217	13.3755	-23.1208	319.671	0.274767	0.000721041	1.40767e+06	217051	1	11	0.00497253	0.000371765	0	2.76547e-05	0.0687585	0.0293576	0.0747637	23.1208	2.17051e+08	5.08356e+08	5.52754e+08	-66.8791	0.0000000E+000	0.0000000E+000	0.0000000E+000	66.8791	0.0000000E+000	0.0000000E+000	0.0000000E+000	-66.8791	0.0000000E+000	0.0000000E+000	0.0000000E+000	-23.1208	0.0000000E+000	0.0000000E+000	0.0000000E+000	23.1208	2.34211	66.8791	-0.000173427	1.98118e-07	381070
0.0100092	13.7853	9.13868	16.5393	-33.5416	772.96	0.274772	-0.000922872	1.73996e+06	531213	1	12	0.00497309	0.000300683	0	-0.00152404	0.0503941	0.0334077	0.0604619	33.5416	5.31213e+08	8.01312e+08	9.61399e+08	-56.4584	0.0000000E+000	0.0000000E+000	0.0000000E+000	56.4584	0.0000000E+000	0.0000000E+000	0.0000000E+000	-56.4584	0.0000000E+000	0.0000000E+000	0.0000000E+000	-33.5416	0.0000000E+000	0.0000000E+000	0.0000000E+000	33.5416	1.50846	56.4584	-0.00093443	-2.5358e-07	297736

File: 17462_R277_UA655_SOC00_C04.mpt
EC-Lab ASCII FILE
Nb header lines : 63

Potentio Electrochemical Impedance Spectroscopy

Run on channel : 4 (SN 66756)
User :
CE vs. WE compliance from -10 V to 10 V
Electrode connection : standard
Potential control : Ewe
Ewe ctrl range : min = -10.00 V, max = 10.00 V
Safety Limits :
	Do not start on E overload
Acquisition started on : 09/12/2025 09:48:52.517
Loaded Setting File :  C:\Users\Celltest\OneDrive - store-dot.com\Documents\EC-Lab\Data\Charmaine\R279\17382.mps
Saved on :
	File : 17462_C04.mpr
	Directory : C:\Users\Celltest\OneDrive - store-dot.com\Documents\EC-Lab\Data\Gyutae\R277\
	Host : 169.254.61.224
Device : VMP-3e (SN .003165)
Address : USB
EC-LAB for windows v11.62 (software)
Internet server v27.00 (firmware)
Command interpretor v12.03 (firmware)
Electrode material :
Initial state :
Electrolyte :
Comments :
Electrode surface area : 0.001 cm²
Characteristic mass : 0.001 g
Equivalent Weight : 0.000 g/eq.
Density : 0.000 g/cm3
Volume (V) : 0.001 cm³
Cycle Definition : Charge/Discharge alternance
Mode                Single sine
E (V)               0.0000
vs.                 Eoc
tE (h:m:s)          0:00:0.0000
record              0
dI                  0.000
unit dI             mA
dt (s)              0.000
fi                  100.000
unit fi             kHz
ff                  10.000
unit ff             mHz
Nd                  6
Points              per decade
spacing             Logarithmic
Va (mV)             5.0
pw                  0.10
Na                  2
corr                0
E range min (V)     -10.000
E range max (V)     10.000
I Range             Auto
Bandwidth           5
nc cycles           0
goto Ns'            0
nr cycles           0
inc. cycle          0

freq/Hz	Re(Z)/Ohm	-Im(Z)/Ohm	|Z|/Ohm	Phase(Z)/deg	time/s	<Ewe>/V	<I>/mA	Cs/µF	Cp/µF	cycle number	I Range	|Ewe|/V	|I|/A	Ns	(Q-Qo)/mA.h	Re(Y)/Ohm-1	Im(Y)/Ohm-1	|Y|/Ohm-1	Phase(Y)/deg	Re(C)/nF	Im(C)/nF	|C|/nF	Phase(C)/deg	Re(M)	Im(M)	|M|	Phase(M)/deg	Re(Permittivity)	Im(Permittivity)	|Permittivity|	Phase(Permittivity)/deg	Re(Resistivity)/Ohm.cm	Im(Resistivity)/Ohm.cm	|Resistivity|/Ohm.cm	Phase(Resistivity)/deg	Re(Conductivity)/mS/cm	Im(Conductivity)/mS/cm	|Conductivity|/mS/cm	Phase(Conductivity)/deg	Tan(Delta)	Loss Angle(Delta)/deg	dq/mA.h	Pwe/W	Rwe/Ohm
100004	1.60735	0.33017	1.64091	-11.6078	2.2265	0.280796	-0.0466442	4.82022	0.19515	1	9	0.00496451	0.00302545	0	-1.15273e-05	0.596953	0.122621	0.609416	11.6078	195.15	950.044	969.88	-78.3922	0.0000000E+000	0.0000000E+000	0.0000000E+000	78.3922	0.0000000E+000	0.0000000E+000	0.0000000E+000	-78.3922	0.0000000E+000	0.0000000E+000	0.0000000E+000	-11.6078	0.0000000E+000	0.0000000E+000	0.0000000E+000	11.6078	4.86827	78.3922	-1.15273e-05	-1.30975e-05	6019.96
46420.4	1.7816	0.398033	1.82553	-12.5938	3.38249	0.280805	-0.0401918	8.61375	0.409501	1	9	0.00505018	0.00276642	0	-1.23586e-05	0.534608	0.119438	0.547787	12.5938	409.501	1832.93	1878.12	-77.4062	0.0000000E+000	0.0000000E+000	0.0000000E+000	77.4062	0.0000000E+000	0.0000000E+000	0.0000000E+000	-77.4062	0.0000000E+000	0.0000000E+000	0.0000000E+000	-12.5938	0.0000000E+000	0.0000000E+000	0.0000000E+000	12.5938	4.47602	77.4062	5.10514e-07	-1.12861e-05	6986.62
21544.7	1.97955	0.502294	2.04229	-14.2378	4.39749	0.280805	-0.0424856	14.7069	0.889621	1	9	0.00519801	0.00254519	0	-2.4171e-05	0.474607	0.120427	0.489647	14.2378	889.621	3506.02	3617.12	-75.7622	0.0000000E+000	0.0000000E+000	0.0000000E+000	75.7622	0.0000000E+000	0.0000000E+000	0.0000000E+000	-75.7622	0.0000000E+000	0.0000000E+000	0.0000000E+000	-14.2378	0.0000000E+000	0.0000000E+000	0.0000000E+000	14.2378	3.94102	75.7622	-9.13452e-06	-1.19302e-05	6609.42
10002.2	2.22681	0.637098	2.31615	-15.966	4.9895	0.280796	-0.042784	24.9757	1.88971	1	9	0.00450645	0.00194566	0	-3.36935e-05	0.415096	0.11876	0.43175	15.966	1889.71	6604.98	6869.99	-74.034	0.0000000E+000	0.0000000E+000	0.0000000E+000	74.034	0.0000000E+000	0.0000000E+000	0.0000000E+000	-74.034	0.0000000E+000	0.0000000E+000	0.0000000E+000	-15.966	0.0000000E+000	0.0000000E+000	0.0000000E+000	15.966	3.49524	74.034	-4.25575e-06	-1.20136e-05	6563.11
4641.49	2.53244	0.825837	2.66369	-18.0613	6.01568	0.280855	0.0030171	41.5211	3.99106	1	9	0.00476602	0.00178925	0	-4.75871e-05	0.35692	0.116393	0.375418	18.0613	3991.07	12238.7	12873	-71.9387	0.0000000E+000	0.0000000E+000	0.0000000E+000	71.9387	0.0000000E+000	0.0000000E+000	0.0000000E+000	-71.9387	0.0000000E+000	0.0000000E+000	0.0000000E+000	-18.0613	0.0000000E+000	0.0000000E+000	0.0000000E+000	18.0613	3.06651	71.9387	1.28028e-06	8.4737e-07	93087.7
2155.69	2.94505	1.08153	3.13736	-20.1651	6.94969	0.280843	0.00104034	68.2646	8.11231	1	9	0.00467448	0.00148994	0	-4.86073e-05	0.299202	0.109878	0.31874	20.1651	8112.31	22090.1	23532.6	-69.8349	0.0000000E+000	0.0000000E+000	0.0000000E+000	69.8349	0.0000000E+000	0.0000000E+000	0.0000000E+000	-69.8349	0.0000000E+000	0.0000000E+000	0.0000000E+000	-20.1651	0.0000000E+000	0.0000000E+000	0.0000000E+000	20.1651	2.72304	69.8349	-5.91942e-07	2.92171e-07	269954
1000.32	3.52027	1.40575	3.79058	-21.7683	8.13971	0.2808	-0.0170473	113.181	15.5661	1	10	0.00471538	0.00124397	0	-5.38665e-05	0.245	0.0978359	0.263812	21.7683	15566.1	38980.5	41973.6	-68.2317	0.0000000E+000	0.0000000E+000	0.0000000E+000	68.2317	0.0000000E+000	0.0000000E+000	0.0000000E+000	-68.2317	0.0000000E+000	0.0000000E+000	0.0000000E+000	-21.7683	0.0000000E+000	0.0000000E+000	0.0000000E+000	21.7683	2.50419	68.2317	-3.10338e-06	-4.78688e-06	16471.9
463.961	4.2518	1.797	4.61595	-22.9111	9.07421	0.280799	-0.0167283	190.893	28.9311	1	10	0.00466138	0.00100984	0	-5.84471e-05	0.199549	0.0843385	0.21664	22.9111	28931.1	68452.5	74315.2	-67.0889	0.0000000E+000	0.0000000E+000	0.0000000E+000	67.0889	0.0000000E+000	0.0000000E+000	0.0000000E+000	-67.0889	0.0000000E+000	0.0000000E+000	0.0000000E+000	-22.9111	0.0000000E+000	0.0000000E+000	0.0000000E+000	22.9111	2.36605	67.0889	-1.95038e-06	-4.69729e-06	16785.8
215.345	5.20947	2.30069	5.69489	-23.8279	10.0084	0.280799	-0.0170212	321.239	52.4292	1	10	0.00464156	0.000815039	0	-6.38247e-05	0.160629	0.0709393	0.175596	23.8279	52429.2	118716	129778	-66.1721	0.0000000E+000	0.0000000E+000	0.0000000E+000	66.1721	0.0000000E+000	0.0000000E+000	0.0000000E+000	-66.1721	0.0000000E+000	0.0000000E+000	0.0000000E+000	-23.8279	0.0000000E+000	0.0000000E+000	0.0000000E+000	23.8279	2.26431	66.1721	-2.75087e-06	-4.77954e-06	16497.1
100.032	6.53037	2.81111	7.10972	-23.2903	10.9387	0.280799	-0.0168589	565.983	88.4818	1	10	0.00463074	0.000651325	0	-6.70504e-05	0.129191	0.0556126	0.140653	23.2903	88481.8	205548	223784	-66.7097	0.0000000E+000	0.0000000E+000	0.0000000E+000	66.7097	0.0000000E+000	0.0000000E+000	0.0000000E+000	-66.7097	0.0000000E+000	0.0000000E+000	0.0000000E+000	-23.2903	0.0000000E+000	0.0000000E+000	0.0000000E+000	23.2903	2.32306	66.7097	-1.48334e-06	-4.73397e-06	16655.8
46.4415	8.25703	3.06628	8.80799	-20.3727	11.8725	0.280789	-0.0200258	1117.64	135.448	1	10	0.00462589	0.000525193	0	-7.03277e-05	0.106432	0.0395238	0.113533	20.3727	135448	364741	389078	-69.6274	0.0000000E+000	0.0000000E+000	0.0000000E+000	69.6274	0.0000000E+000	0.0000000E+000	0.0000000E+000	-69.6274	0.0000000E+000	0.0000000E+000	0.0000000E+000	-20.3727	0.0000000E+000	0.0000000E+000	0.0000000E+000	20.3727	2.69285	69.6274	-1.93198e-06	-5.62303e-06	14021.3
[...]
1.00006	13.2983	1.1284	13.3461	-4.85007	20.1093	0.280842	-0.00445275	141036	1008.19	1	11	0.00462673	0.000346672	0	-7.37099e-05	0.0746599	0.00633507	0.0749282	4.85007	1.00819e+06	1.18817e+07	1.19244e+07	-85.1499	0.0000000E+000	0.0000000E+000	0.0000000E+000	85.1499	0.0000000E+000	0.0000000E+000	0.0000000E+000	-85.1499	0.0000000E+000	0.0000000E+000	0.0000000E+000	-4.85007	0.0000000E+000	0.0000000E+000	0.0000000E+000	4.85007	11.7852	85.1499	9.34291e-06	-1.25052e-06	63071.5
0.464091	13.6837	1.16665	13.7334	-4.87313	27.7956	0.280844	-0.00148472	293953	2121.3	1	11	0.00462727	0.000336936	0	-7.3551e-05	0.0725521	0.00618564	0.0728153	4.87313	2.1213e+06	2.4881e+07	2.49712e+07	-85.1269	0.0000000E+000	0.0000000E+000	0.0000000E+000	85.1269	0.0000000E+000	0.0000000E+000	0.0000000E+000	-85.1269	0.0000000E+000	0.0000000E+000	0.0000000E+000	-4.87313	0.0000000E+000	0.0000000E+000	0.0000000E+000	4.87313	11.7291	85.1269	-6.3469e-06	-4.16974e-07	189157
0.215268	14.0555	1.50223	14.1356	-6.1005	44.2738	0.280847	-0.000670284	492159	5558.38	1	11	0.00462686	0.00032732	0	-0.0001457	0.0703428	0.00751809	0.0707434	6.1005	5.55838e+06	5.20068e+07	5.2303e+07	-83.8995	0.0000000E+000	0.0000000E+000	0.0000000E+000	83.8995	0.0000000E+000	0.0000000E+000	0.0000000E+000	-83.8995	0.0000000E+000	0.0000000E+000	0.0000000E+000	-6.1005	0.0000000E+000	0.0000000E+000	0.0000000E+000	6.1005	9.35647	83.8995	-4.60879e-05	-1.88247e-07	418997
0.0999041	14.6747	2.29139	14.8525	-8.87482	79.6794	0.280846	-0.00370903	695244	16547.6	1	11	0.00462945	0.000311695	0	-0.000231662	0.0665225	0.0103872	0.0673286	8.87482	1.65476e+07	1.05976e+08	1.0726e+08	-81.1252	0.0000000E+000	0.0000000E+000	0.0000000E+000	81.1252	0.0000000E+000	0.0000000E+000	0.0000000E+000	-81.1252	0.0000000E+000	0.0000000E+000	0.0000000E+000	-8.87482	0.0000000E+000	0.0000000E+000	0.0000000E+000	8.87482	6.40428	81.1252	-3.21462e-05	-1.04167e-06	75719.5
0.0464052	15.4356	3.67698	15.8676	-13.3989	155.916	0.28085	-0.00231724	932743	50087	1	11	0.00462733	0.000291622	0	-8.11905e-05	0.0613062	0.014604	0.0630217	13.3989	5.0087e+07	2.10261e+08	2.16144e+08	-76.6011	0.0000000E+000	0.0000000E+000	0.0000000E+000	76.6011	0.0000000E+000	0.0000000E+000	0.0000000E+000	-76.6011	0.0000000E+000	0.0000000E+000	0.0000000E+000	-13.3989	0.0000000E+000	0.0000000E+000	0.0000000E+000	13.3989	4.19791	76.6011	0.000131754	-6.50796e-07	121200
0.0215268	16.7993	6.11864	17.8789	-20.0126	351.882	0.280834	0.000316685	1.20833e+06	141519	1	12	0.00462566	0.000258722	0	0.000330895	0.0525545	0.0191414	0.0559319	20.0126	1.41519e+08	3.88554e+08	4.13524e+08	-69.9874	0.0000000E+000	0.0000000E+000	0.0000000E+000	69.9874	0.0000000E+000	0.0000000E+000	0.0000000E+000	-69.9874	0.0000000E+000	0.0000000E+000	0.0000000E+000	-20.0126	0.0000000E+000	0.0000000E+000	0.0000000E+000	20.0126	2.7456	69.9874	0.000194343	8.8936e-08	886795
0.0100092	18.4784	10.7986	21.4024	-30.3017	705.098	0.280839	0.000190154	1.47249e+06	374857	1	12	0.00462497	0.000216096	0	-0.000216925	0.0403404	0.0235746	0.0467237	30.3017	3.74857e+08	6.41449e+08	7.4295e+08	-59.6983	0.0000000E+000	0.0000000E+000	0.0000000E+000	59.6983	0.0000000E+000	0.0000000E+000	0.0000000E+000	-59.6983	0.0000000E+000	0.0000000E+000	0.0000000E+000	-30.3017	0.0000000E+000	0.0000000E+000	0.0000000E+000	30.3017	1.71118	59.6983	-0.000495136	5.34028e-08	1.4769e+06