Folder: EIS/txt (part 98)

File: 18571_R297_UC90_SOC50_C02.mpt
EC-Lab ASCII FILE
Nb header lines : 65

Potentio Electrochemical Impedance Spectroscopy

Run on channel : 2 (SN 66139)
User :
CE vs. WE compliance from -10 V to 10 V
Electrode connection : standard
Potential control : Ewe
Ewe ctrl range : min = -10.00 V, max = 10.00 V
Safety Limits :
	Do not start on E overload
Acquisition started on : 10/21/2025 16:34:32.262
Technique started on : 10/21/2025 16:34:34.956
Loaded Setting File :  C:\Users\Celltest\OneDrive - store-dot.com\Documents\EC-Lab\Data\@Biologic Test Protocols\cathode half cell EIS SOC50.mps
Saved on :
	File : 18571_R297_UC90_SOC50_C02.mpr
	Directory : C:\Users\Celltest\OneDrive - store-dot.com\Documents\EC-Lab\Data\Michael\
	Host : 169.254.61.224
Device : VMP-3e (SN .003165)
Address : USB
EC-LAB for windows v11.62 (software)
Internet server v27.00 (firmware)
Command interpretor v12.03 (firmware)
Electrode material :
Initial state :
Electrolyte :
Comments :
Electrode surface area : 0.001 cm²
Characteristic mass : 0.001 g
Equivalent Weight : 0.000 g/eq.
Density : 0.000 g/cm3
Volume (V) : 0.001 cm³
Record Ece
Cycle Definition : Charge/Discharge alternance
Mode                Multi sine
E (V)               0.0000
vs.                 Eoc
tE (h:m:s)          0:00:0.0000
record              0
dI                  0.000
unit dI             mA
dt (s)              0.000
fi                  1.000
unit fi             MHz
ff                  0.100
unit ff             mHz
Nd                  10
Points              per decade
spacing             Logarithmic
Va (mV)             5.0
pw                  0.10
Na                  2
corr                0
E range min (V)     -10.000
E range max (V)     10.000
I Range             Auto
Bandwidth           5
nc cycles           0
goto Ns'            0
nr cycles           0
inc. cycle          0

freq/Hz	Re(Z)/Ohm	-Im(Z)/Ohm	|Z|/Ohm	Phase(Z)/deg	time/s	<Ewe>/V	<I>/mA	Cs/µF	Cp/µF	cycle number	I Range	|Ewe|/V	|I|/A	Ns	(Q-Qo)/mA.h	<Ece>/V	|Ece|/V	Phase(Zce)/deg	|Zce|/Ohm	Re(Zce)/Ohm	-Im(Zce)/Ohm	Phase(Zwe-ce)/deg	|Zwe-ce|/Ohm	Re(Zwe-ce)/Ohm	-Im(Zwe-ce)/Ohm	Re(Y)/Ohm-1	Im(Y)/Ohm-1	|Y|/Ohm-1	Phase(Y)/deg	Re(C)/nF	Im(C)/nF	|C|/nF	Phase(C)/deg	Re(M)	Im(M)	|M|	Phase(M)/deg	Re(Permittivity)	Im(Permittivity)	|Permittivity|	Phase(Permittivity)/deg	Re(Resistivity)/Ohm.cm	Im(Resistivity)/Ohm.cm	|Resistivity|/Ohm.cm	Phase(Resistivity)/deg	Re(Conductivity)/mS/cm	Im(Conductivity)/mS/cm	|Conductivity|/mS/cm	Phase(Conductivity)/deg	Tan(Delta)	Loss Angle(Delta)/deg	dq/mA.h	Pwe/W	Pce/W	Pwe-ce/W	<Ewe-Ece>/V	Rwe/Ohm	Rce/Ohm	Rwe-ce/Ohm		Ewe-Ece/V
1.00002e+06	0.932688	-0.339084	0.992414	19.979	2.69355	3.88424	-0.0056964	-0.469358	-0.0547941	1	9	0.000201103	0.00020264	0	-2.14233e-05	0.000191251	0.000186224	9.99975	0.918992	0.905031	-0.159577	15.1815	1.90417	1.83772	-0.498662	0.947001	-0.344288	1.00764	-19.979	-54.7941	150.717	160.369	-109.979	0.0000000E+000	0.0000000E+000	0.0000000E+000	109.979	0.0000000E+000	0.0000000E+000	0.0000000E+000	-109.979	0.0000000E+000	0.0000000E+000	0.0000000E+000	19.979	0.0000000E+000	0.0000000E+000	0.0000000E+000	-19.979	2.75061	70.021	-2.14233e-05	-2.21262e-05	-1.08944e-09	-2.21251e-05	3.88405	681876	33.574	681843
251206	0.80115	0.207758	0.82765	-14.538	4.99354	3.88422	-0.00547286	3.04953	0.192156	1	9	0.00195336	0.00236013	0	-2.41557e-05	-0.000114203	2.54902e-05	74.3531	0.0108004	0.00291294	-0.0104001	-13.7907	0.827929	0.804063	0.197358	1.16955	0.303294	1.20824	14.538	192.156	740.986	765.496	-75.462	0.0000000E+000	0.0000000E+000	0.0000000E+000	75.462	0.0000000E+000	0.0000000E+000	0.0000000E+000	-75.462	0.0000000E+000	0.0000000E+000	0.0000000E+000	-14.538	0.0000000E+000	0.0000000E+000	0.0000000E+000	14.538	3.85617	75.462	-2.04256e-06	-2.12578e-05	6.25015e-10	-2.12584e-05	3.88433	709723	20.8671	709744
63093.8	1.10477	0.567806	1.24214	-27.2012	7.29155	3.8841	-0.00625499	4.44256	0.928301	1	9	0.00529623	0.00426378	0	-7.30194e-05	0.000153069	1.13129e-05	30.4203	0.00265326	0.00228799	-0.00134345	-27.098	1.24357	1.10706	0.566462	0.716025	0.368006	0.805059	27.2012	928.301	1806.18	2030.77	-62.7988	0.0000000E+000	0.0000000E+000	0.0000000E+000	62.7988	0.0000000E+000	0.0000000E+000	0.0000000E+000	-62.7988	0.0000000E+000	0.0000000E+000	0.0000000E+000	-27.2012	0.0000000E+000	0.0000000E+000	0.0000000E+000	27.2012	1.94569	62.7988	-1.31766e-05	-2.4295e-05	-9.57446e-10	-2.42941e-05	3.88395	620961	24.4716	620937
15847.7	1.69166	1.09979	2.01773	-33.0289	9.58855	3.8841	-0.00655299	9.13156	2.71292	1	9	0.00520267	0.00257848	0	-8.03148e-05	0.000286705	5.40959e-06	1.23768	0.00209798	0.00209749	-4.53161e-05	-32.9954	2.01946	1.69375	1.09974	0.415514	0.270137	0.495607	33.0289	2712.92	4172.92	4977.27	-56.9711	0.0000000E+000	0.0000000E+000	0.0000000E+000	56.9711	0.0000000E+000	0.0000000E+000	0.0000000E+000	-56.9711	0.0000000E+000	0.0000000E+000	0.0000000E+000	-33.0289	0.0000000E+000	0.0000000E+000	0.0000000E+000	33.0289	1.53816	56.9711	-1.59919e-06	-2.54524e-05	-1.87877e-09	-2.54506e-05	3.88381	592722	43.7518	592678
3983.6	2.81642	2.05977	3.48925	-36.1796	11.5611	3.88406	-0.0109108	19.3966	6.75924	1	9	0.00483269	0.00138502	0	-8.88692e-05	1.94333e-05	9.19398e-06	-58.2115	0.00663815	0.00349688	0.00564242	-36.2204	3.49541	2.81992	2.06541	0.231331	0.169182	0.286594	36.1796	6759.24	9242.25	11450.2	-53.8204	0.0000000E+000	0.0000000E+000	0.0000000E+000	53.8204	0.0000000E+000	0.0000000E+000	0.0000000E+000	-53.8204	0.0000000E+000	0.0000000E+000	0.0000000E+000	-36.1796	0.0000000E+000	0.0000000E+000	0.0000000E+000	36.1796	1.36735	53.8204	-4.10718e-07	-4.23782e-05	-2.12033e-10	-4.2378e-05	3.88404	355984	1.78111	355982
1000.32	5.17578	3.75674	6.39545	-35.9733	14.6128	3.88403	-0.0414838	42.3516	14.6134	1	10	0.004819	0.000753505	0	-0.00012263	3.85242e-05	9.46762e-06	77.8834	0.0125648	0.00263737	-0.0122849	-35.8703	6.39038	5.17841	3.74446	0.126542	0.0918479	0.156361	35.9733	14613.4	20133.3	24877.7	-54.0267	0.0000000E+000	0.0000000E+000	0.0000000E+000	54.0267	0.0000000E+000	0.0000000E+000	0.0000000E+000	-54.0267	0.0000000E+000	0.0000000E+000	0.0000000E+000	-35.9733	0.0000000E+000	0.0000000E+000	0.0000000E+000	35.9733	1.37773	54.0267	-4.60904e-06	-0.000161124	-1.59813e-09	-0.000161123	3.88399	93627.6	0.928656	93626.7
251.044	9.97817	5.0648	11.19	-26.9118	17.315	3.88403	-0.0405339	125.172	25.6432	1	10	0.00468021	0.000418249	0	-0.000153783	-5.69301e-05	9.81142e-06	-74.2098	0.0234583	0.00638336	0.0225731	-26.9999	11.2059	9.98456	5.08737	0.0796876	0.0404485	0.0893655	26.9118	25643.2	50519.7	56655.2	-63.0882	0.0000000E+000	0.0000000E+000	0.0000000E+000	63.0882	0.0000000E+000	0.0000000E+000	0.0000000E+000	-63.0882	0.0000000E+000	0.0000000E+000	0.0000000E+000	-26.9118	0.0000000E+000	0.0000000E+000	0.0000000E+000	26.9118	1.9701	63.0882	-4.97004e-06	-0.000157435	2.3076e-09	-0.000157437	3.88409	95822	1.40451	95823.4
[...]
0.0602816	19.3944	3.03763	19.6309	-8.90157	240.667	3.88403	-0.0215612	869161	20810.9	1	11	0.00499937	0.000254669	0	-0.00273829	-0.000190566	6.17651e-07	-4.87159	0.00242531	0.00241655	0.000205964	-8.90107	19.6333	19.3968	3.03784	0.0503266	0.00788235	0.0509402	8.90157	2.08109e+07	1.32872e+08	1.34492e+08	-81.0984	0.0000000E+000	0.0000000E+000	0.0000000E+000	81.0984	0.0000000E+000	0.0000000E+000	0.0000000E+000	-81.0984	0.0000000E+000	0.0000000E+000	0.0000000E+000	-8.90157	0.0000000E+000	0.0000000E+000	0.0000000E+000	8.90157	6.38472	81.0984	0.000000000000000E+000	-8.37444e-05	4.10884e-09	-8.37485e-05	3.88422	180139	8.83836	180148
0.00796479	24.7493	5.08325	25.2659	-11.6065	20329.6	3.88407	-0.000635536	3.93101e+06	159117	1	11	0.00499423	0.000197667	0	-0.0232119	-0.000190566	1.49887e-07	-116.468	0.000758283	-0.000337969	0.0006788	-11.6082	25.2658	24.749	5.08393	0.0387697	0.00796289	0.039579	11.6065	1.59117e+08	7.74708e+08	7.9088e+08	-78.3935	0.0000000E+000	0.0000000E+000	0.0000000E+000	78.3935	0.0000000E+000	0.0000000E+000	0.0000000E+000	-78.3935	0.0000000E+000	0.0000000E+000	0.0000000E+000	-11.6065	0.0000000E+000	0.0000000E+000	0.0000000E+000	11.6065	4.8688	78.3935	-0.0204736	-2.46847e-06	1.21112e-10	-2.46859e-06	3.88426	6.11149e+06	299.851	6.11179e+06
0.0019912	28.4021	8.37945	29.6124	-16.4376	20329.6	3.88407	-0.000635536	9.53873e+06	763789	1	11	0.00500539	0.00016903	0	-0.0232119	-0.000190566	6.47315e-07	-31.9153	0.00382958	0.00325067	0.00202457	-16.4396	29.6161	28.4054	8.38147	0.0323894	0.00955581	0.0337696	16.4376	7.63789e+08	2.58886e+09	2.69918e+09	-73.5624	0.0000000E+000	0.0000000E+000	0.0000000E+000	73.5624	0.0000000E+000	0.0000000E+000	0.0000000E+000	-73.5624	0.0000000E+000	0.0000000E+000	0.0000000E+000	-16.4376	0.0000000E+000	0.0000000E+000	0.0000000E+000	16.4376	3.3895	73.5624	0.000000000000000E+000	-2.46847e-06	1.21112e-10	-2.46859e-06	3.88426	6.11149e+06	299.851	6.11179e+06
0.000497799	30.6372	20.2995	36.752	-33.5276	20329.6	3.88407	-0.000635536	1.575e+07	4.80497e+06	1	11	0.00500578	0.000136204	0	-0.0232119	-0.000190566	1.71647e-06	-26.6598	0.0126022	0.0112624	0.0056545	-33.5253	36.7645	30.6484	20.3052	0.0226823	0.0150288	0.0272094	33.5276	4.80497e+09	7.25193e+09	8.69932e+09	-56.4724	0.0000000E+000	0.0000000E+000	0.0000000E+000	56.4724	0.0000000E+000	0.0000000E+000	0.0000000E+000	-56.4724	0.0000000E+000	0.0000000E+000	0.0000000E+000	-33.5276	0.0000000E+000	0.0000000E+000	0.0000000E+000	33.5276	1.50925	56.4724	0.000000000000000E+000	-2.46847e-06	1.21112e-10	-2.46859e-06	3.88426	6.11149e+06	299.851	6.11179e+06
9.95598e-05	37.231	115.091	120.963	-72.074	20329.6	3.88407	-0.000635536	1.38898e+07	1.2574e+07	1	11	0.00501458	4.14556e-05	0	-0.0232119	-0.000190566	3.50727e-06	-6.92029	0.084603	0.0839867	0.0101937	-72.0376	120.998	37.3149	115.101	0.00254449	0.00786569	0.00826701	72.074	1.2574e+10	4.06759e+09	1.32155e+10	-17.926	0.0000000E+000	0.0000000E+000	0.0000000E+000	17.926	0.0000000E+000	0.0000000E+000	0.0000000E+000	-17.926	0.0000000E+000	0.0000000E+000	0.0000000E+000	-72.074	0.0000000E+000	0.0000000E+000	0.0000000E+000	72.074	0.323493	17.926	0.000000000000000E+000	-2.46847e-06	1.21112e-10	-2.46859e-06	3.88426	6.11149e+06	299.851	6.11179e+06

File: 18572_R297_UC90_SOC50_C03.mpt
EC-Lab ASCII FILE
Nb header lines : 65

Potentio Electrochemical Impedance Spectroscopy

Run on channel : 3 (SN 65921)
User :
CE vs. WE compliance from -10 V to 10 V
Electrode connection : standard
Potential control : Ewe
Ewe ctrl range : min = -10.00 V, max = 10.00 V
Safety Limits :
	Do not start on E overload
Acquisition started on : 10/21/2025 16:34:41.600
Technique started on : 10/21/2025 16:34:44.294
Loaded Setting File :  C:\Users\Celltest\OneDrive - store-dot.com\Documents\EC-Lab\Data\@Biologic Test Protocols\cathode half cell EIS SOC50.mps
Saved on :
	File : 18572_R297_UC90_SOC50_C03.mpr
	Directory : C:\Users\Celltest\OneDrive - store-dot.com\Documents\EC-Lab\Data\Michael\
	Host : 169.254.61.224
Device : VMP-3e (SN .003165)
Address : USB
EC-LAB for windows v11.62 (software)
Internet server v27.00 (firmware)
Command interpretor v12.03 (firmware)
Electrode material :
Initial state :
Electrolyte :
Comments :
Electrode surface area : 0.001 cm²
Characteristic mass : 0.001 g
Equivalent Weight : 0.000 g/eq.
Density : 0.000 g/cm3
Volume (V) : 0.001 cm³
Record Ece
Cycle Definition : Charge/Discharge alternance
Mode                Multi sine
E (V)               0.0000
vs.                 Eoc
tE (h:m:s)          0:00:0.0000
record              0
dI                  0.000
unit dI             mA
dt (s)              0.000
fi                  1.000
unit fi             MHz
ff                  0.100
unit ff             mHz
Nd                  10
Points              per decade
spacing             Logarithmic
Va (mV)             5.0
pw                  0.10
Na                  2
corr                0
E range min (V)     -10.000
E range max (V)     10.000
I Range             Auto
Bandwidth           5
nc cycles           0
goto Ns'            0
nr cycles           0
inc. cycle          0

freq/Hz	Re(Z)/Ohm	-Im(Z)/Ohm	|Z|/Ohm	Phase(Z)/deg	time/s	<Ewe>/V	<I>/mA	Cs/µF	Cp/µF	cycle number	I Range	|Ewe|/V	|I|/A	Ns	(Q-Qo)/mA.h	<Ece>/V	|Ece|/V	Phase(Zce)/deg	|Zce|/Ohm	Re(Zce)/Ohm	-Im(Zce)/Ohm	Phase(Zwe-ce)/deg	|Zwe-ce|/Ohm	Re(Zwe-ce)/Ohm	-Im(Zwe-ce)/Ohm	Re(Y)/Ohm-1	Im(Y)/Ohm-1	|Y|/Ohm-1	Phase(Y)/deg	Re(C)/nF	Im(C)/nF	|C|/nF	Phase(C)/deg	Re(M)	Im(M)	|M|	Phase(M)/deg	Re(Permittivity)	Im(Permittivity)	|Permittivity|	Phase(Permittivity)/deg	Re(Resistivity)/Ohm.cm	Im(Resistivity)/Ohm.cm	|Resistivity|/Ohm.cm	Phase(Resistivity)/deg	Re(Conductivity)/mS/cm	Im(Conductivity)/mS/cm	|Conductivity|/mS/cm	Phase(Conductivity)/deg	Tan(Delta)	Loss Angle(Delta)/deg	dq/mA.h	Pwe/W	Pce/W	Pwe-ce/W	<Ewe-Ece>/V	Rwe/Ohm	Rce/Ohm	Rwe-ce/Ohm		Ewe-Ece/V
1.00002e+06	0.984737	-0.136541	0.994158	7.89413	2.69356	3.88731	0.0131582	-1.1656	-0.0219869	1	9	0.000222928	0.000224238	0	7.6603e-06	-8.05151e-05	0.000192643	0.646487	0.859103	0.859048	-0.00969333	4.53474	1.84957	1.84378	-0.146234	0.996344	-0.13815	1.00588	-7.89413	-21.9869	158.57	160.087	-97.8941	0.0000000E+000	0.0000000E+000	0.0000000E+000	97.8941	0.0000000E+000	0.0000000E+000	0.0000000E+000	-97.8941	0.0000000E+000	0.0000000E+000	0.0000000E+000	7.89413	0.0000000E+000	0.0000000E+000	0.0000000E+000	-7.89413	7.21204	82.1059	7.6603e-06	5.11498e-05	-1.05943e-09	5.11509e-05	3.88739	295430	6.11902	295436
251206	0.817442	0.268709	0.860474	-18.1967	4.99355	3.88692	-0.00686841	2.3578	0.22993	1	9	0.00225784	0.00262394	0	1.55524e-05	-6.1421e-05	4.49233e-05	97.4906	0.0171205	-0.0022319	-0.0169744	-17.1605	0.853193	0.81521	0.251735	1.10403	0.362916	1.16215	18.1967	229.93	699.473	736.295	-71.8033	0.0000000E+000	0.0000000E+000	0.0000000E+000	71.8033	0.0000000E+000	0.0000000E+000	0.0000000E+000	-71.8033	0.0000000E+000	0.0000000E+000	0.0000000E+000	-18.1967	0.0000000E+000	0.0000000E+000	0.0000000E+000	18.1967	3.04211	71.8033	1.88776e-06	-2.66969e-05	4.21865e-10	-2.66974e-05	3.88698	565912	8.94253	565921
63093.8	1.19396	0.607707	1.33972	-26.9755	7.29156	3.88683	0.0158061	4.15087	0.854087	1	9	0.00537995	0.00401574	0	-3.09082e-05	3.40493e-05	2.50773e-05	102.199	0.00624474	-0.00131958	-0.00610373	-26.7678	1.33578	1.19264	0.601603	0.665217	0.338586	0.746427	26.9755	854.088	1678.02	1882.87	-63.0245	0.0000000E+000	0.0000000E+000	0.0000000E+000	63.0245	0.0000000E+000	0.0000000E+000	0.0000000E+000	-63.0245	0.0000000E+000	0.0000000E+000	0.0000000E+000	-26.9755	0.0000000E+000	0.0000000E+000	0.0000000E+000	26.9755	1.96469	63.0245	-9.80808e-06	6.14356e-05	5.38186e-10	6.14351e-05	3.8868	245907	2.15419	245905
15847.7	1.83041	1.11599	2.14379	-31.3704	9.71755	3.88684	0.0212136	8.99899	2.43866	1	9	0.00479846	0.00223831	0	-3.08287e-05	-4.13882e-06	4.29046e-06	-5.12992	0.00191683	0.00190915	0.000171392	-31.3478	2.14551	1.83232	1.11616	0.398276	0.242827	0.466464	31.3704	2438.66	3999.8	4684.6	-58.6296	0.0000000E+000	0.0000000E+000	0.0000000E+000	58.6296	0.0000000E+000	0.0000000E+000	0.0000000E+000	-58.6296	0.0000000E+000	0.0000000E+000	0.0000000E+000	-31.3704	0.0000000E+000	0.0000000E+000	0.0000000E+000	31.3704	1.64017	58.6296	3.17529e-06	8.24539e-05	-8.77993e-11	8.2454e-05	3.88684	183224	0.195102	183224
3983.6	3.01076	1.93385	3.57833	-32.7132	11.5681	3.88665	-0.073624	20.6596	6.03401	1	9	0.00475218	0.00132804	0	-2.86697e-05	-0.000118703	4.88935e-06	2.15378	0.00368162	0.00367902	-0.000138362	-32.6795	3.58135	3.01444	1.93371	0.235134	0.15103	0.27946	32.7132	6034.01	9394.18	11165.1	-57.2868	0.0000000E+000	0.0000000E+000	0.0000000E+000	57.2868	0.0000000E+000	0.0000000E+000	0.0000000E+000	-57.2868	0.0000000E+000	0.0000000E+000	0.0000000E+000	-32.7132	0.0000000E+000	0.0000000E+000	0.0000000E+000	32.7132	1.55687	57.2868	-6.10331e-06	-0.000286151	8.7394e-09	-0.000286159	3.88677	52790.6	1.61229	52792.2
1000.32	5.0963	3.35187	6.09978	-33.3332	14.4058	3.88676	-0.0164077	47.4672	14.3331	1	10	0.00468617	0.000768252	0	-4.29193e-05	7.22374e-05	1.22051e-05	79.1148	0.0158869	0.00300011	-0.015601	-33.1951	6.09373	5.0993	3.33627	0.13697	0.0900864	0.16394	33.3332	14333.1	21792.5	26083.6	-56.6668	0.0000000E+000	0.0000000E+000	0.0000000E+000	56.6668	0.0000000E+000	0.0000000E+000	0.0000000E+000	-56.6668	0.0000000E+000	0.0000000E+000	0.0000000E+000	-33.3332	0.0000000E+000	0.0000000E+000	0.0000000E+000	33.3332	1.52043	56.6668	-1.36801e-06	-6.37729e-05	-1.18525e-09	-6.37717e-05	3.88669	236886	4.40265	236882
251.044	9.32479	4.66844	10.4281	-26.5948	17.1061	3.88677	-0.0157738	135.799	27.2163	1	10	0.00461057	0.000442128	0	-5.39754e-05	-4.13882e-06	1.84808e-05	107.587	0.0417998	-0.0126301	-0.039846	-26.4296	10.399	9.31216	4.6286	0.0857483	0.0429298	0.0958944	26.5948	27216.2	54362	60794.3	-63.4052	0.0000000E+000	0.0000000E+000	0.0000000E+000	63.4052	0.0000000E+000	0.0000000E+000	0.0000000E+000	-63.4052	0.0000000E+000	0.0000000E+000	0.0000000E+000	-26.5948	0.0000000E+000	0.0000000E+000	0.0000000E+000	26.5948	1.99741	63.4052	-1.79488e-06	-6.13091e-05	6.52849e-11	-6.13092e-05	3.88677	246406	0.262385	246406
[...]
0.0602816	18.9956	3.13865	19.2532	-9.38222	240.467	3.8868	-0.00968522	841185	22354.9	1	11	0.00505807	0.000262713	0	-0.00171939	0.000244084	5.25992e-07	-31.504	0.00200215	0.00170704	0.00104624	-9.38447	19.2551	18.9974	3.1397	0.0512446	0.00846716	0.0519394	9.38222	2.23549e+07	1.35296e+08	1.3713e+08	-80.6178	0.0000000E+000	0.0000000E+000	0.0000000E+000	80.6178	0.0000000E+000	0.0000000E+000	0.0000000E+000	-80.6178	0.0000000E+000	0.0000000E+000	0.0000000E+000	-9.38222	0.0000000E+000	0.0000000E+000	0.0000000E+000	9.38222	6.05216	80.6178	0.000000000000000E+000	-3.76445e-05	-2.36401e-09	-3.76422e-05	3.88656	401312	25.2017	401287
0.00796479	24.6541	5.54429	25.2698	-12.674	20329.3	3.88682	-0.000482853	3.60413e+06	173496	1	11	0.00505338	0.000199977	0	-0.0201409	-0.000424208	7.90617e-07	0.650453	0.00395354	0.00395328	-4.48817e-05	-12.672	25.2736	24.658	5.54425	0.0386087	0.00868247	0.039573	12.674	1.73496e+08	7.71492e+08	7.9076e+08	-77.326	0.0000000E+000	0.0000000E+000	0.0000000E+000	77.326	0.0000000E+000	0.0000000E+000	0.0000000E+000	-77.326	0.0000000E+000	0.0000000E+000	0.0000000E+000	-12.674	0.0000000E+000	0.0000000E+000	0.0000000E+000	12.674	4.44675	77.326	-0.0184215	-1.87676e-06	2.0483e-10	-1.87697e-06	3.88724	8.0497e+06	878.546	8.05057e+06
0.0019912	28.6786	9.00597	30.0594	-17.4339	20329.3	3.88682	-0.000482853	8.87515e+06	796663	1	11	0.00506576	0.000168525	0	-0.0201409	-0.000424208	5.66928e-07	-156.895	0.00336406	-0.00309422	0.0013201	-17.4381	30.0569	28.6755	9.00729	0.0317392	0.0099671	0.0332674	17.4339	7.96663e+08	2.53689e+09	2.65904e+09	-72.5661	0.0000000E+000	0.0000000E+000	0.0000000E+000	72.5661	0.0000000E+000	0.0000000E+000	0.0000000E+000	-72.5661	0.0000000E+000	0.0000000E+000	0.0000000E+000	-17.4339	0.0000000E+000	0.0000000E+000	0.0000000E+000	17.4339	3.1844	72.5661	0.000000000000000E+000	-1.87676e-06	2.0483e-10	-1.87697e-06	3.88724	8.0497e+06	878.546	8.05057e+06
0.000497799	31.405	21.6584	38.1492	-34.5921	20329.3	3.88682	-0.000482853	1.47618e+07	4.75798e+06	1	11	0.00506794	0.000132845	0	-0.0201409	-0.000424208	1.06982e-06	-103.596	0.00805315	-0.00189312	0.00782748	-34.6034	38.152	31.4031	21.6662	0.0215788	0.0148818	0.0262129	34.5921	4.75798e+09	6.89913e+09	8.38071e+09	-55.4079	0.0000000E+000	0.0000000E+000	0.0000000E+000	55.4079	0.0000000E+000	0.0000000E+000	0.0000000E+000	-55.4079	0.0000000E+000	0.0000000E+000	0.0000000E+000	-34.5921	0.0000000E+000	0.0000000E+000	0.0000000E+000	34.5921	1.45001	55.4079	0.000000000000000E+000	-1.87676e-06	2.0483e-10	-1.87697e-06	3.88724	8.0497e+06	878.546	8.05057e+06
9.95598e-05	41.1129	119.005	125.907	-70.9414	20329.3	3.88682	-0.000482853	1.34329e+07	1.20006e+07	1	11	0.00506539	4.02313e-05	0	-0.0201409	-0.000424208	2.62241e-06	18.9132	0.0651834	0.0616642	-0.0211283	-70.9118	125.907	41.1745	118.984	0.00259347	0.00750703	0.00794239	70.9414	1.20006e+10	4.14588e+09	1.26966e+10	-19.0586	0.0000000E+000	0.0000000E+000	0.0000000E+000	19.0586	0.0000000E+000	0.0000000E+000	0.0000000E+000	-19.0586	0.0000000E+000	0.0000000E+000	0.0000000E+000	-70.9414	0.0000000E+000	0.0000000E+000	0.0000000E+000	70.9414	0.345471	19.0586	0.000000000000000E+000	-1.87676e-06	2.0483e-10	-1.87697e-06	3.88724	8.0497e+06	878.546	8.05057e+06