Folder: EIS/txt (part 68)

File: 17923_R288_UA670_SOC00_C04.mpt
EC-Lab ASCII FILE
Nb header lines : 64

Potentio Electrochemical Impedance Spectroscopy

Run on channel : 4 (SN 66756)
User :
CE vs. WE compliance from -10 V to 10 V
Electrode connection : standard
Potential control : Ewe
Ewe ctrl range : min = -10.00 V, max = 10.00 V
Safety Limits :
	Do not start on E overload
Acquisition started on : 09/29/2025 15:13:21.775
Loaded Setting File :  C:\Users\Celltest\OneDrive - store-dot.com\Documents\EC-Lab\Data\@Biologic Test Protocols\anode half cell EIS SOC00.mps
Saved on :
	File : 17923_R288_UA670_SOC00_C04.mpr
	Directory : C:\Users\Celltest\OneDrive - store-dot.com\Documents\EC-Lab\Data\Charmaine\
	Host : 169.254.61.224
Device : VMP-3e (SN .003165)
Address : USB
EC-LAB for windows v11.62 (software)
Internet server v27.00 (firmware)
Command interpretor v12.03 (firmware)
Electrode material :
Initial state :
Electrolyte :
Comments :
Electrode surface area : 0.001 cm²
Characteristic mass : 0.001 g
Equivalent Weight : 0.000 g/eq.
Density : 0.000 g/cm3
Volume (V) : 0.001 cm³
Record Ece
Cycle Definition : Charge/Discharge alternance
Mode                Single sine
E (V)               0.0000
vs.                 Eoc
tE (h:m:s)          0:00:0.0000
record              0
dI                  0.000
unit dI             mA
dt (s)              0.000
fi                  100.000
unit fi             kHz
ff                  10.000
unit ff             mHz
Nd                  6
Points              per decade
spacing             Logarithmic
Va (mV)             5.0
pw                  0.10
Na                  2
corr                0
E range min (V)     -10.000
E range max (V)     10.000
I Range             Auto
Bandwidth           5
nc cycles           0
goto Ns'            0
nr cycles           0
inc. cycle          0

freq/Hz	Re(Z)/Ohm	-Im(Z)/Ohm	|Z|/Ohm	Phase(Z)/deg	time/s	<Ewe>/V	<I>/mA	Cs/µF	Cp/µF	cycle number	I Range	|Ewe|/V	|I|/A	Ns	(Q-Qo)/mA.h	<Ece>/V	|Ece|/V	Phase(Zce)/deg	|Zce|/Ohm	Re(Zce)/Ohm	-Im(Zce)/Ohm	Phase(Zwe-ce)/deg	|Zwe-ce|/Ohm	Re(Zwe-ce)/Ohm	-Im(Zwe-ce)/Ohm	Re(Y)/Ohm-1	Im(Y)/Ohm-1	|Y|/Ohm-1	Phase(Y)/deg	Re(C)/nF	Im(C)/nF	|C|/nF	Phase(C)/deg	Re(M)	Im(M)	|M|	Phase(M)/deg	Re(Permittivity)	Im(Permittivity)	|Permittivity|	Phase(Permittivity)/deg	Re(Resistivity)/Ohm.cm	Im(Resistivity)/Ohm.cm	|Resistivity|/Ohm.cm	Phase(Resistivity)/deg	Re(Conductivity)/mS/cm	Im(Conductivity)/mS/cm	|Conductivity|/mS/cm	Phase(Conductivity)/deg	Tan(Delta)	Loss Angle(Delta)/deg	dq/mA.h	Pwe/W	Pce/W	Pwe-ce/W	<Ewe-Ece>/V	Rwe/Ohm	Rce/Ohm	Rwe-ce/Ohm		Ewe-Ece/V
100004	0.879717	0.204655	0.903208	-13.0962	1.73656	0.261456	-0.0327322	7.77646	0.399255	1	9	0.0047792	0.00529136	0	-1.17721e-05	0.000175598	4.74873e-05	50.2409	0.0089745	0.00573974	-0.00689907	-12.5897	0.907271	0.885456	0.197756	1.07837	0.250869	1.10716	13.0962	399.255	1716.21	1762.04	-76.9038	0.0000000E+000	0.0000000E+000	0.0000000E+000	76.9038	0.0000000E+000	0.0000000E+000	0.0000000E+000	-76.9038	0.0000000E+000	0.0000000E+000	0.0000000E+000	-13.0962	0.0000000E+000	0.0000000E+000	0.0000000E+000	13.0962	4.29854	76.9038	-1.17721e-05	-8.55805e-06	-5.74771e-09	-8.55231e-06	0.261281	7987.73	5.36468	7982.37
31621.1	1.05407	0.325976	1.10333	-17.1845	3.13357	0.261442	-0.0335528	15.4403	1.34779	1	9	0.00518595	0.0047003	0	-2.46927e-05	0.000137378	1.02578e-05	50.2315	0.00218238	0.00139604	-0.00167746	-17.0799	1.10417	1.05547	0.324299	0.86589	0.26778	0.906351	17.1845	1347.79	4358.18	4561.83	-72.8156	0.0000000E+000	0.0000000E+000	0.0000000E+000	72.8156	0.0000000E+000	0.0000000E+000	0.0000000E+000	-72.8156	0.0000000E+000	0.0000000E+000	0.0000000E+000	-17.1845	0.0000000E+000	0.0000000E+000	0.0000000E+000	17.1845	3.23358	72.8156	8.23444e-07	-8.77209e-06	-4.60941e-09	-8.76748e-06	0.261304	7791.95	4.09438	7787.85
10002.2	1.3214	0.489705	1.40923	-20.3344	4.65653	0.261434	-0.0384761	32.493	3.92371	1	9	0.00515045	0.00365481	0	-3.00435e-05	0.000137378	8.89152e-06	-73.9193	0.00243283	0.000673872	0.00233764	-20.4139	1.41067	1.32208	0.492042	0.665387	0.246589	0.70961	20.3344	3923.71	10587.6	11291.3	-69.6656	0.0000000E+000	0.0000000E+000	0.0000000E+000	69.6656	0.0000000E+000	0.0000000E+000	0.0000000E+000	-69.6656	0.0000000E+000	0.0000000E+000	0.0000000E+000	-20.3344	0.0000000E+000	0.0000000E+000	0.0000000E+000	20.3344	2.69837	69.6656	-7.66373e-06	-1.0059e-05	-5.28577e-09	-1.00537e-05	0.261297	6794.72	3.57048	6791.15
3163.08	1.71073	0.735144	1.862	-23.2544	6.23464	0.261425	-0.0432875	68.4443	10.669	1	9	0.00534427	0.00287018	0	-5.41208e-05	-0.000225711	7.99907e-06	-62.0585	0.00278696	0.00130588	0.00246207	-23.3081	1.86417	1.71204	0.737606	0.493427	0.212038	0.537058	23.2544	10669	24827.5	27022.8	-66.7456	0.0000000E+000	0.0000000E+000	0.0000000E+000	66.7456	0.0000000E+000	0.0000000E+000	0.0000000E+000	-66.7456	0.0000000E+000	0.0000000E+000	0.0000000E+000	-23.2544	0.0000000E+000	0.0000000E+000	0.0000000E+000	23.2544	2.32707	66.7456	-4.4428e-06	-1.13164e-05	9.77046e-09	-1.13262e-05	0.261651	6039.29	5.21424	6044.5
1000.32	2.30729	1.099	2.55566	-25.4691	8.01677	0.261432	-0.0341123	144.772	26.7714	1	9	0.00500235	0.00195736	0	-7.3471e-05	6.09381e-05	7.60286e-06	25.5768	0.00388424	0.00350362	-0.00167691	-25.4015	2.5581	2.3108	1.09732	0.353262	0.168264	0.391288	25.4691	26771.4	56205.4	62255.5	-64.5309	0.0000000E+000	0.0000000E+000	0.0000000E+000	64.5309	0.0000000E+000	0.0000000E+000	0.0000000E+000	-64.5309	0.0000000E+000	0.0000000E+000	0.0000000E+000	-25.4691	0.0000000E+000	0.0000000E+000	0.0000000E+000	25.4691	2.09945	64.5309	-2.63241e-06	-8.91805e-06	-2.07874e-09	-8.91597e-06	0.261371	7663.84	1.7864	7662.06
316.316	3.27009	1.66072	3.66763	-26.9238	9.61202	0.261435	-0.0249198	302.972	62.1192	1	10	0.0047515	0.00129552	0	-8.68065e-05	-5.37216e-05	4.04998e-06	55.9469	0.00312613	0.00175051	-0.00259006	-26.8754	3.66802	3.27184	1.65813	0.243103	0.12346	0.272656	26.9238	62119.2	122317	137187	-63.0762	0.0000000E+000	0.0000000E+000	0.0000000E+000	63.0762	0.0000000E+000	0.0000000E+000	0.0000000E+000	-63.0762	0.0000000E+000	0.0000000E+000	0.0000000E+000	-26.9238	0.0000000E+000	0.0000000E+000	0.0000000E+000	26.9238	1.96908	63.0762	-1.96032e-06	-6.51492e-06	1.33873e-09	-6.51626e-06	0.261489	10491.1	2.15578	10493.2
100.032	4.8437	2.20879	5.32355	-24.5136	10.9598	0.261434	-0.0240134	720.323	124.003	1	10	0.00464045	0.000871683	0	-9.61786e-05	-0.000111051	1.14436e-05	66.7755	0.0131282	0.00517692	-0.0120644	-24.3723	5.32327	4.84887	2.19672	0.170913	0.0779385	0.187845	24.5136	124003	271929	298868	-65.4864	0.0000000E+000	0.0000000E+000	0.0000000E+000	65.4864	0.0000000E+000	0.0000000E+000	0.0000000E+000	-65.4864	0.0000000E+000	0.0000000E+000	0.0000000E+000	-24.5136	0.0000000E+000	0.0000000E+000	0.0000000E+000	24.5136	2.19292	65.4864	-1.81933e-06	-6.2779e-06	2.66672e-09	-6.28057e-06	0.261545	10887	4.62457	10891.6
[...]
1.00006	9.35004	0.780872	9.38259	-4.774	19.9899	0.261438	-0.0132567	203804	1411.65	1	11	0.00461833	0.000492223	0	-0.000129755	0.000194708	3.72413e-06	55.7898	0.00756593	0.0042538	-0.00625687	-4.73378	9.38631	9.35429	0.774615	0.106211	0.00887022	0.10658	4.774	1.41165e+06	1.69029e+07	1.69617e+07	-85.226	0.0000000E+000	0.0000000E+000	0.0000000E+000	85.226	0.0000000E+000	0.0000000E+000	0.0000000E+000	-85.226	0.0000000E+000	0.0000000E+000	0.0000000E+000	-4.774	0.0000000E+000	0.0000000E+000	0.0000000E+000	4.774	11.9738	85.226	-1.56708e-05	-3.46581e-06	-2.58118e-09	-3.46323e-06	0.261244	19721.2	14.6875	19706.5
0.316193	9.74316	0.95044	9.78941	-5.57154	34.3322	0.261446	-0.0133763	529594	4992.05	1	11	0.00461645	0.000471576	0	-0.000246345	0.000213818	4.43174e-06	9.09294	0.00939773	0.00927963	-0.00148518	-5.55763	9.7985	9.75244	0.948954	0.101669	0.00991771	0.102151	5.57154	4.99205e+06	5.11746e+07	5.14175e+07	-84.4285	0.0000000E+000	0.0000000E+000	0.0000000E+000	84.4285	0.0000000E+000	0.0000000E+000	0.0000000E+000	-84.4285	0.0000000E+000	0.0000000E+000	0.0000000E+000	-5.57154	0.0000000E+000	0.0000000E+000	0.0000000E+000	5.57154	10.2512	84.4285	-4.26276e-05	-3.49719e-06	-2.8601e-09	-3.49433e-06	0.261232	19545.4	15.9848	19529.4
0.0999041	10.2704	1.75841	10.4198	-9.71551	79.5411	0.261441	-0.010221	905978	25801	1	11	0.0046163	0.000443031	0	-0.000184024	-0.000302151	2.34909e-06	13.1323	0.0053023	0.00516364	-0.00120468	-9.7042	10.4247	10.2755	1.7572	0.0945946	0.0161957	0.0959711	9.71551	2.5801e+07	1.50697e+08	1.52889e+08	-80.2845	0.0000000E+000	0.0000000E+000	0.0000000E+000	80.2845	0.0000000E+000	0.0000000E+000	0.0000000E+000	-80.2845	0.0000000E+000	0.0000000E+000	0.0000000E+000	-9.71551	0.0000000E+000	0.0000000E+000	0.0000000E+000	9.71551	5.84072	80.2845	6.3387e-05	-2.67219e-06	3.08829e-09	-2.67528e-06	0.261744	25578.8	29.5618	25608.4
0.0315922	11.422	3.74543	12.0204	-18.1551	222.424	0.261439	-0.00414845	1.34505e+06	130589	1	11	0.00461343	0.000383801	0	-0.000386969	-0.000206601	3.0512e-06	-12.365	0.00794995	0.00776554	0.00170239	-18.1513	12.0283	11.4297	3.74714	0.0790505	0.0259218	0.083192	18.1551	1.30589e+08	3.9824e+08	4.19104e+08	-71.8449	0.0000000E+000	0.0000000E+000	0.0000000E+000	71.8449	0.0000000E+000	0.0000000E+000	0.0000000E+000	-71.8449	0.0000000E+000	0.0000000E+000	0.0000000E+000	-18.1551	0.0000000E+000	0.0000000E+000	0.0000000E+000	18.1551	3.04957	71.8449	-0.000257337	-1.08457e-06	8.57076e-10	-1.08542e-06	0.261645	63020.8	49.802	63070.6
0.0100092	13.6296	8.04078	15.8247	-30.5384	773.838	0.261444	-0.00775314	1.97753e+06	510564	1	12	0.00461503	0.000291635	0	-0.00290337	4.18282e-05	1.98732e-06	-1.56059	0.00681443	0.0068119	0.000185585	-30.5265	15.8306	13.6364	8.04096	0.0544269	0.0321091	0.0631924	30.5384	5.10564e+08	8.65438e+08	1.00482e+09	-59.4616	0.0000000E+000	0.0000000E+000	0.0000000E+000	59.4616	0.0000000E+000	0.0000000E+000	0.0000000E+000	-59.4616	0.0000000E+000	0.0000000E+000	0.0000000E+000	-30.5384	0.0000000E+000	0.0000000E+000	0.0000000E+000	30.5384	1.69506	59.4616	-0.00103751	-2.02701e-06	-3.243e-10	-2.02669e-06	0.261402	33721	5.395	33715.6

File: 17924_R288_UA670_SOC00_C05.mpt
EC-Lab ASCII FILE
Nb header lines : 64

Potentio Electrochemical Impedance Spectroscopy

Run on channel : 5 (SN 65912)
User :
CE vs. WE compliance from -10 V to 10 V
Electrode connection : standard
Potential control : Ewe
Ewe ctrl range : min = -10.00 V, max = 10.00 V
Safety Limits :
	Do not start on E overload
Acquisition started on : 09/29/2025 15:13:33.012
Loaded Setting File :  C:\Users\Celltest\OneDrive - store-dot.com\Documents\EC-Lab\Data\@Biologic Test Protocols\anode half cell EIS SOC00.mps
Saved on :
	File : 17924_R288_UA670_SOC00_C05.mpr
	Directory : C:\Users\Celltest\OneDrive - store-dot.com\Documents\EC-Lab\Data\Charmaine\
	Host : 169.254.61.224
Device : VMP-3e (SN .003165)
Address : USB
EC-LAB for windows v11.62 (software)
Internet server v27.00 (firmware)
Command interpretor v12.03 (firmware)
Electrode material :
Initial state :
Electrolyte :
Comments :
Electrode surface area : 0.001 cm²
Characteristic mass : 0.001 g
Equivalent Weight : 0.000 g/eq.
Density : 0.000 g/cm3
Volume (V) : 0.001 cm³
Record Ece
Cycle Definition : Charge/Discharge alternance
Mode                Single sine
E (V)               0.0000
vs.                 Eoc
tE (h:m:s)          0:00:0.0000
record              0
dI                  0.000
unit dI             mA
dt (s)              0.000
fi                  100.000
unit fi             kHz
ff                  10.000
unit ff             mHz
Nd                  6
Points              per decade
spacing             Logarithmic
Va (mV)             5.0
pw                  0.10
Na                  2
corr                0
E range min (V)     -10.000
E range max (V)     10.000
I Range             Auto
Bandwidth           5
nc cycles           0
goto Ns'            0
nr cycles           0
inc. cycle          0

freq/Hz	Re(Z)/Ohm	-Im(Z)/Ohm	|Z|/Ohm	Phase(Z)/deg	time/s	<Ewe>/V	<I>/mA	Cs/µF	Cp/µF	cycle number	I Range	|Ewe|/V	|I|/A	Ns	(Q-Qo)/mA.h	<Ece>/V	|Ece|/V	Phase(Zce)/deg	|Zce|/Ohm	Re(Zce)/Ohm	-Im(Zce)/Ohm	Phase(Zwe-ce)/deg	|Zwe-ce|/Ohm	Re(Zwe-ce)/Ohm	-Im(Zwe-ce)/Ohm	Re(Y)/Ohm-1	Im(Y)/Ohm-1	|Y|/Ohm-1	Phase(Y)/deg	Re(C)/nF	Im(C)/nF	|C|/nF	Phase(C)/deg	Re(M)	Im(M)	|M|	Phase(M)/deg	Re(Permittivity)	Im(Permittivity)	|Permittivity|	Phase(Permittivity)/deg	Re(Resistivity)/Ohm.cm	Im(Resistivity)/Ohm.cm	|Resistivity|/Ohm.cm	Phase(Resistivity)/deg	Re(Conductivity)/mS/cm	Im(Conductivity)/mS/cm	|Conductivity|/mS/cm	Phase(Conductivity)/deg	Tan(Delta)	Loss Angle(Delta)/deg	dq/mA.h	Pwe/W	Pce/W	Pwe-ce/W	<Ewe-Ece>/V	Rwe/Ohm	Rce/Ohm	Rwe-ce/Ohm		Ewe-Ece/V
100004	0.786238	0.172073	0.804847	-12.3449	1.72656	0.260031	0.0288767	9.24894	0.422755	1	9	0.0046072	0.00572432	0	-6.86269e-06	-4.14579e-05	4.51399e-05	88.6257	0.00788565	0.000189122	-0.00788338	-11.7928	0.803384	0.786427	0.164189	1.21374	0.265635	1.24247	12.3449	422.756	1931.66	1977.38	-77.6551	0.0000000E+000	0.0000000E+000	0.0000000E+000	77.6551	0.0000000E+000	0.0000000E+000	0.0000000E+000	-77.6551	0.0000000E+000	0.0000000E+000	0.0000000E+000	-12.3449	0.0000000E+000	0.0000000E+000	0.0000000E+000	12.3449	4.56922	77.6551	-6.86269e-06	7.50881e-06	-1.19716e-09	7.51001e-06	0.260072	9004.88	1.43569	9006.31
31621.1	0.926957	0.242715	0.958207	-14.6729	2.99955	0.260004	0.0201253	20.737	1.33052	1	9	0.00505826	0.00527888	0	6.14266e-06	-0.000251461	2.47228e-05	72.9572	0.00468334	0.00137263	-0.00447768	-14.3932	0.958412	0.92833	0.238237	1.00958	0.264349	1.04362	14.6729	1330.52	5081.41	5252.71	-75.3271	0.0000000E+000	0.0000000E+000	0.0000000E+000	75.3271	0.0000000E+000	0.0000000E+000	0.0000000E+000	-75.3271	0.0000000E+000	0.0000000E+000	0.0000000E+000	-14.6729	0.0000000E+000	0.0000000E+000	0.0000000E+000	14.6729	3.81912	75.3271	1.94636e-05	5.23265e-06	-5.06073e-09	5.23771e-06	0.260255	12919.3	12.4948	12931.8
10002.2	1.11956	0.350183	1.17305	-17.3689	4.14855	0.260001	0.0216893	45.4389	4.04934	1	9	0.00458231	0.00390631	0	8.14776e-06	-0.000251461	9.09559e-06	-122.262	0.00232844	-0.0012429	0.00196896	-17.4789	1.17246	1.11832	0.352152	0.813606	0.254484	0.852477	17.3689	4049.34	12946.1	13564.6	-72.6311	0.0000000E+000	0.0000000E+000	0.0000000E+000	72.6311	0.0000000E+000	0.0000000E+000	0.0000000E+000	-72.6311	0.0000000E+000	0.0000000E+000	0.0000000E+000	-17.3689	0.0000000E+000	0.0000000E+000	0.0000000E+000	17.3689	3.19708	72.6311	6.09555e-07	5.63923e-06	-5.45402e-09	5.64468e-06	0.260252	11987.5	11.5938	11999.1
3163.08	1.39104	0.519207	1.48478	-20.4681	5.17068	0.259733	-0.187785	96.9102	11.8502	1	9	0.00453492	0.00305427	0	-1.4937e-05	-4.14579e-05	9.74669e-06	-89.4229	0.00319117	3.21438e-05	0.00319101	-20.5829	1.48593	1.39107	0.522398	0.63098	0.235513	0.6735	20.4681	11850.2	31748.7	33888.1	-69.5319	0.0000000E+000	0.0000000E+000	0.0000000E+000	69.5319	0.0000000E+000	0.0000000E+000	0.0000000E+000	-69.5319	0.0000000E+000	0.0000000E+000	0.0000000E+000	-20.4681	0.0000000E+000	0.0000000E+000	0.0000000E+000	20.4681	2.67917	69.5319	-1.64681e-05	-4.87738e-05	7.78515e-09	-4.87816e-05	0.259774	1383.14	0.220774	1383.36
1000.32	1.76318	0.84952	1.95717	-25.7252	6.7378	0.259821	-0.0675373	187.287	35.2857	1	9	0.00491736	0.00251249	0	-4.90201e-05	-3.27544e-06	8.69955e-06	-92.0531	0.00346252	-0.000124048	0.0034603	-25.818	1.95856	1.76306	0.852981	0.460301	0.221778	0.510943	25.7252	35285.7	73235.7	81293	-64.2748	0.0000000E+000	0.0000000E+000	0.0000000E+000	64.2748	0.0000000E+000	0.0000000E+000	0.0000000E+000	-64.2748	0.0000000E+000	0.0000000E+000	0.0000000E+000	-25.7252	0.0000000E+000	0.0000000E+000	0.0000000E+000	25.7252	2.07551	64.2748	-9.9051e-06	-1.75476e-05	2.21214e-10	-1.75478e-05	0.259824	3847.07	0.0484982	3847.12
316.316	2.46226	1.57218	2.92138	-32.5586	8.33208	0.259896	-0.0357133	320.035	92.6881	1	10	0.00494552	0.00169287	0	-7.48766e-05	7.30894e-05	5.71145e-06	-48.715	0.00337383	0.00222607	0.00253522	-32.577	2.92462	2.46449	1.57471	0.288508	0.184215	0.342304	32.5586	92688.1	145163	172231	-57.4414	0.0000000E+000	0.0000000E+000	0.0000000E+000	57.4414	0.0000000E+000	0.0000000E+000	0.0000000E+000	-57.4414	0.0000000E+000	0.0000000E+000	0.0000000E+000	-32.5586	0.0000000E+000	0.0000000E+000	0.0000000E+000	32.5586	1.56615	57.4414	-8.13027e-06	-9.28177e-06	-2.61027e-09	-9.27916e-06	0.259823	7277.29	2.04656	7275.25
100.032	4.14582	2.41494	4.79789	-30.2208	9.67985	0.259893	-0.0349463	658.832	166.912	1	10	0.00489258	0.00101974	0	-8.76189e-05	0.000321275	9.07009e-06	-6.32911	0.00889454	0.00884033	0.000980528	-30.1779	4.80602	4.15466	2.41592	0.180098	0.104907	0.208425	30.2208	166912	286544	331613	-59.7792	0.0000000E+000	0.0000000E+000	0.0000000E+000	59.7792	0.0000000E+000	0.0000000E+000	0.0000000E+000	-59.7792	0.0000000E+000	0.0000000E+000	0.0000000E+000	-30.2208	0.0000000E+000	0.0000000E+000	0.0000000E+000	30.2208	1.71674	59.7792	-5.05832e-06	-9.08232e-06	-1.12274e-08	-9.07109e-06	0.259572	7436.93	9.19339	7427.73
[...]
1.00006	9.06134	0.789343	9.09566	-4.97853	18.712	0.25992	-0.0163912	201617	1518.41	1	11	0.00488174	0.000536711	0	-0.000167064	-9.87315e-05	3.85765e-06	-15.9277	0.00718757	0.00691163	0.00197244	-4.98712	9.10271	9.06825	0.791315	0.109528	0.00954108	0.109943	4.97853	1.51841e+06	1.74308e+07	1.74968e+07	-85.0215	0.0000000E+000	0.0000000E+000	0.0000000E+000	85.0215	0.0000000E+000	0.0000000E+000	0.0000000E+000	-85.0215	0.0000000E+000	0.0000000E+000	0.0000000E+000	-4.97853	0.0000000E+000	0.0000000E+000	0.0000000E+000	4.97853	11.4796	85.0215	-1.11733e-05	-4.26039e-06	1.61832e-09	-4.26201e-06	0.260019	15857.3	6.02346	15863.3
0.316193	9.43953	0.910223	9.48331	-5.50782	33.0568	0.25992	-0.0121515	552993	5094.43	1	11	0.00488127	0.000514722	0	-0.000138924	0.000225819	2.1709e-06	-40.553	0.00421761	0.00320456	0.00274208	-5.52245	9.48676	9.44273	0.912965	0.104962	0.0101211	0.105448	5.50782	5.09443e+06	5.28321e+07	5.30772e+07	-84.4922	0.0000000E+000	0.0000000E+000	0.0000000E+000	84.4922	0.0000000E+000	0.0000000E+000	0.0000000E+000	-84.4922	0.0000000E+000	0.0000000E+000	0.0000000E+000	-5.50782	0.0000000E+000	0.0000000E+000	0.0000000E+000	5.50782	10.3706	84.4922	1.60892e-05	-3.15842e-06	-2.74405e-09	-3.15568e-06	0.259694	21389.9	18.5836	21371.3
0.0999041	9.9697	1.65351	10.1059	-9.41699	78.2649	0.259923	-0.00422405	963451	25792.6	1	11	0.00488388	0.000483271	0	-0.000349587	0.000111272	2.50538e-06	-2.44677	0.00518422	0.00517949	0.00022132	-9.41343	10.111	9.97488	1.65373	0.0976187	0.0161904	0.0989522	9.41699	2.57926e+07	1.55514e+08	1.57638e+08	-80.583	0.0000000E+000	0.0000000E+000	0.0000000E+000	80.583	0.0000000E+000	0.0000000E+000	0.0000000E+000	-80.583	0.0000000E+000	0.0000000E+000	0.0000000E+000	-9.41699	0.0000000E+000	0.0000000E+000	0.0000000E+000	9.41699	6.02941	80.583	-0.000146635	-1.09793e-06	-4.70018e-10	-1.09746e-06	0.259812	61534.1	26.3425	61507.7
0.0315922	11.0874	3.42346	11.6039	-17.1591	221.148	0.259919	-0.00898514	1.47155e+06	128084	1	11	0.00488337	0.000420837	0	-0.00105072	0.000130363	1.07161e-06	7.25093	0.00254638	0.00252602	-0.000321392	-17.1539	11.6063	11.09	3.42314	0.0823418	0.0254246	0.0861776	17.1591	1.28084e+08	4.14821e+08	4.34145e+08	-72.8409	0.0000000E+000	0.0000000E+000	0.0000000E+000	72.8409	0.0000000E+000	0.0000000E+000	0.0000000E+000	-72.8409	0.0000000E+000	0.0000000E+000	0.0000000E+000	-17.1591	0.0000000E+000	0.0000000E+000	0.0000000E+000	17.1591	3.23867	72.8409	-0.00018812	-2.33541e-06	-1.17133e-09	-2.33423e-06	0.259788	28927.6	14.5087	28913.1
0.0100092	13.1101	7.33427	15.0222	-29.2243	672.371	0.25992	-0.00631666	2.16803e+06	516789	1	11	0.00488303	0.000325055	0	-5.3882e-05	-4.14579e-05	2.21483e-06	-2.94002	0.0068137	0.00680473	0.000349479	-29.2128	15.0283	13.1169	7.33462	0.0580951	0.0325006	0.0665683	29.2243	5.16789e+08	9.23766e+08	1.0585e+09	-60.7757	0.0000000E+000	0.0000000E+000	0.0000000E+000	60.7757	0.0000000E+000	0.0000000E+000	0.0000000E+000	-60.7757	0.0000000E+000	0.0000000E+000	0.0000000E+000	-29.2243	0.0000000E+000	0.0000000E+000	0.0000000E+000	29.2243	1.78751	60.7757	0.000469744	-1.64183e-06	2.61875e-10	-1.64209e-06	0.259962	41148.4	6.56326	41154.9