Folder: EIS/txt (part 200)

File: 19748_R319_UC100_SOC50_C04.mpt
EC-Lab ASCII FILE
Nb header lines : 65

Potentio Electrochemical Impedance Spectroscopy

Run on channel : 4 (SN 66756)
User :
CE vs. WE compliance from -10 V to 10 V
Electrode connection : standard
Potential control : Ewe
Ewe ctrl range : min = -10.00 V, max = 10.00 V
Safety Limits :
	Do not start on E overload
Acquisition started on : 12/15/2025 16:10:45.892
Technique started on : 12/15/2025 16:10:48.127
Loaded Setting File :  C:\Users\Celltest\OneDrive - store-dot.com\Documents\EC-Lab\Data\@Biologic Test Protocols\cathode half cell EIS SOC50.mps
Saved on :
	File : 19748_R319_UC100_SOC50_C04.mpr
	Directory : C:\Users\Celltest\OneDrive - store-dot.com\Documents\EC-Lab\Data\Michael\
	Host : 169.254.61.224
Device : VMP-3e (SN .003165)
Address : USB
EC-LAB for windows v11.62 (software)
Internet server v27.00 (firmware)
Command interpretor v12.03 (firmware)
Electrode material :
Initial state :
Electrolyte :
Comments :
Electrode surface area : 0.001 cm²
Characteristic mass : 0.001 g
Equivalent Weight : 0.000 g/eq.
Density : 0.000 g/cm3
Volume (V) : 0.001 cm³
Record Ece
Cycle Definition : Charge/Discharge alternance
Mode                Multi sine
E (V)               0.0000
vs.                 Eoc
tE (h:m:s)          0:00:0.0000
record              0
dI                  0.000
unit dI             mA
dt (s)              0.000
fi                  1.000
unit fi             MHz
ff                  0.100
unit ff             mHz
Nd                  10
Points              per decade
spacing             Logarithmic
Va (mV)             5.0
pw                  0.10
Na                  2
corr                0
E range min (V)     -10.000
E range max (V)     10.000
I Range             Auto
Bandwidth           5
nc cycles           0
goto Ns'            0
nr cycles           0
inc. cycle          0

freq/Hz	Re(Z)/Ohm	-Im(Z)/Ohm	|Z|/Ohm	Phase(Z)/deg	time/s	<Ewe>/V	<I>/mA	Cs/µF	Cp/µF	cycle number	I Range	|Ewe|/V	|I|/A	Ns	(Q-Qo)/mA.h	<Ece>/V	|Ece|/V	Phase(Zce)/deg	|Zce|/Ohm	Re(Zce)/Ohm	-Im(Zce)/Ohm	Phase(Zwe-ce)/deg	|Zwe-ce|/Ohm	Re(Zwe-ce)/Ohm	-Im(Zwe-ce)/Ohm	Re(Y)/Ohm-1	Im(Y)/Ohm-1	|Y|/Ohm-1	Phase(Y)/deg	Re(C)/nF	Im(C)/nF	|C|/nF	Phase(C)/deg	Re(M)	Im(M)	|M|	Phase(M)/deg	Re(Permittivity)	Im(Permittivity)	|Permittivity|	Phase(Permittivity)/deg	Re(Resistivity)/Ohm.cm	Im(Resistivity)/Ohm.cm	|Resistivity|/Ohm.cm	Phase(Resistivity)/deg	Re(Conductivity)/mS/cm	Im(Conductivity)/mS/cm	|Conductivity|/mS/cm	Phase(Conductivity)/deg	Tan(Delta)	Loss Angle(Delta)/deg	dq/mA.h	Pwe/W	Pce/W	Pwe-ce/W	<Ewe-Ece>/V	Rwe/Ohm	Rce/Ohm	Rwe-ce/Ohm		Ewe-Ece/V
1.00002e+06	0.901849	-0.57024	1.06701	32.3052	2.23454	3.88126	0.321219	-0.279097	-0.079714	1	9	0.00022158	0.000207665	0	0.000116168	-7.01561e-05	0.000192151	-0.767443	0.925292	0.925209	0.0123934	16.9787	1.91032	1.82706	-0.557846	0.792134	-0.500867	0.937201	-32.3052	-79.714	126.07	149.157	-122.305	0.0000000E+000	0.0000000E+000	0.0000000E+000	122.305	0.0000000E+000	0.0000000E+000	0.0000000E+000	-122.305	0.0000000E+000	0.0000000E+000	0.0000000E+000	32.3052	0.0000000E+000	0.0000000E+000	0.0000000E+000	-32.3052	1.58153	57.6948	0.000116168	0.00124673	-2.25355e-08	0.00124676	3.88133	12082.9	0.218406	12083.1
251206	0.695738	0.256576	0.741541	-20.2431	4.53554	3.87987	0.0484266	2.4693	0.295621	1	9	0.00193861	0.0026143	0	0.000188603	-0.000184816	3.88681e-05	78.4479	0.0148675	0.00297734	-0.0145663	-19.1043	0.739441	0.698716	0.24201	1.26525	0.466601	1.34854	20.2431	295.621	801.614	854.387	-69.7569	0.0000000E+000	0.0000000E+000	0.0000000E+000	69.7569	0.0000000E+000	0.0000000E+000	0.0000000E+000	-69.7569	0.0000000E+000	0.0000000E+000	0.0000000E+000	-20.2431	0.0000000E+000	0.0000000E+000	0.0000000E+000	20.2431	2.71162	69.7569	5.07419e-06	0.000187889	-8.95e-09	0.000187898	3.88006	80118.6	3.81641	80122.4
63093.8	1.17365	0.531502	1.28839	-24.364	6.83555	3.87977	0.057378	4.74601	0.807689	1	9	0.00534617	0.0041495	0	0.000176934	-1.28262e-05	3.0542e-05	75.6638	0.00736039	0.00182252	-0.00713118	-24.0414	1.28713	1.17547	0.524371	0.707041	0.320193	0.776164	24.364	807.689	1783.52	1957.88	-65.636	0.0000000E+000	0.0000000E+000	0.0000000E+000	65.636	0.0000000E+000	0.0000000E+000	0.0000000E+000	-65.636	0.0000000E+000	0.0000000E+000	0.0000000E+000	-24.364	0.0000000E+000	0.0000000E+000	0.0000000E+000	24.364	2.20817	65.636	-7.01823e-06	0.000222614	-7.35944e-10	0.000222614	3.87979	67617.8	0.223539	67618
15847.7	1.66336	0.508467	1.73934	-16.9976	9.13553	3.87976	0.0551401	19.7511	1.6879	1	9	0.00495729	0.00285009	0	0.000210534	-0.000223036	4.92484e-06	43.225	0.00172796	0.00125911	-0.00118342	-16.9483	1.7402	1.66462	0.507284	0.549814	0.16807	0.574929	16.9976	1687.9	5521.67	5773.89	-73.0024	0.0000000E+000	0.0000000E+000	0.0000000E+000	73.0024	0.0000000E+000	0.0000000E+000	0.0000000E+000	-73.0024	0.0000000E+000	0.0000000E+000	0.0000000E+000	-16.9976	0.0000000E+000	0.0000000E+000	0.0000000E+000	16.9976	3.27133	73.0024	8.6663e-06	0.00021393	-1.22982e-08	0.000213942	3.87998	70361.8	4.04489	70365.8
3983.6	2.06113	0.597606	2.14602	-16.169	10.9841	3.87959	-0.0288907	66.8543	5.18433	1	9	0.0046236	0.0021545	0	0.000234791	0.000216493	1.53712e-05	-43.9966	0.00713447	0.0051324	0.00495571	-16.2577	2.15233	2.06626	0.602562	0.447547	0.129762	0.465979	16.169	5184.33	17880.6	18617.1	-73.831	0.0000000E+000	0.0000000E+000	0.0000000E+000	73.831	0.0000000E+000	0.0000000E+000	0.0000000E+000	-73.831	0.0000000E+000	0.0000000E+000	0.0000000E+000	-16.169	0.0000000E+000	0.0000000E+000	0.0000000E+000	16.169	3.44898	73.831	2.50145e-07	-0.000112084	-6.25464e-09	-0.000112078	3.87937	134285	7.49352	134277
1000.32	2.64306	0.951753	2.8092	-19.8037	13.8268	3.8797	0.0878871	167.169	19.1885	1	9	0.00500011	0.0017799	0	0.000288595	6.28372e-06	7.82325e-06	-57.215	0.00439532	0.00238002	0.00369518	-19.8581	2.81269	2.64544	0.955449	0.334921	0.120603	0.355973	19.8037	19188.5	53287.2	56636.8	-70.1963	0.0000000E+000	0.0000000E+000	0.0000000E+000	70.1963	0.0000000E+000	0.0000000E+000	0.0000000E+000	-70.1963	0.0000000E+000	0.0000000E+000	0.0000000E+000	-19.8037	0.0000000E+000	0.0000000E+000	0.0000000E+000	19.8037	2.77704	70.1963	1.1115e-05	0.000340976	5.52258e-10	0.000340975	3.87969	44144.2	0.0714976	44144.1
251.044	3.83972	1.33463	4.06506	-19.1667	16.773	3.87967	0.0444354	475.017	51.2031	1	10	0.00499639	0.00122911	0	0.000329957	4.45036e-05	1.02566e-05	-1.13901	0.00834475	0.0083431	0.000165878	-19.1303	4.07299	3.84806	1.33479	0.232363	0.0807657	0.245999	19.1667	51203.1	147311	155956	-70.8333	0.0000000E+000	0.0000000E+000	0.0000000E+000	70.8333	0.0000000E+000	0.0000000E+000	0.0000000E+000	-70.8333	0.0000000E+000	0.0000000E+000	0.0000000E+000	-19.1667	0.0000000E+000	0.0000000E+000	0.0000000E+000	19.1667	2.877	70.8333	6.27818e-06	0.000172395	1.97753e-09	0.000172393	3.87963	87310.5	1.00154	87309.4
63.0823	5.11713	0.895292	5.19486	-9.92402	19.4939	3.87969	0.0577521	2818.04	83.7009	1	10	0.00498317	0.000959251	0	0.000369187	0.000216493	1.01499e-05	32.0583	0.0105811	0.00896756	-0.00561626	-9.84607	5.20273	5.1261	0.889676	0.189618	0.0331755	0.192498	9.92402	83700.9	478400	485667	-80.076	0.0000000E+000	0.0000000E+000	0.0000000E+000	80.076	0.0000000E+000	0.0000000E+000	0.0000000E+000	-80.076	0.0000000E+000	0.0000000E+000	0.0000000E+000	-9.92402	0.0000000E+000	0.0000000E+000	0.0000000E+000	9.92402	5.71559	80.076	6.86585e-06	0.00022406	1.25029e-08	0.000224048	3.87947	67178.3	3.74866	67174.5
[...]
0.0602816	6.53398	1.02482	6.61386	-8.91393	240.323	3.87969	0.0189215	2.57624e+06	61854.8	1	11	0.00508318	0.000768565	0	-0.000898986	-0.000146596	9.55084e-07	-34.269	0.00124268	0.00102696	0.00069973	-8.91854	6.61498	6.53501	1.02552	0.149371	0.0234282	0.151198	8.91393	6.18548e+07	3.94369e+08	3.9919e+08	-81.0861	0.0000000E+000	0.0000000E+000	0.0000000E+000	81.0861	0.0000000E+000	0.0000000E+000	0.0000000E+000	-81.0861	0.0000000E+000	0.0000000E+000	0.0000000E+000	-8.91393	0.0000000E+000	0.0000000E+000	0.0000000E+000	8.91393	6.37573	81.0861	0.000000000000000E+000	7.34097e-05	-2.77382e-09	7.34125e-05	3.87984	205042	7.74758	205049
0.00796479	8.47441	2.2969	8.78017	-15.1651	20329.2	3.87969	0.00124168	8.69968e+06	595364	1	11	0.00507559	0.000578075	0	-0.0537015	-0.000223036	4.01383e-07	3.88401	0.000694344	0.000692749	-4.70327e-05	-15.1636	8.78082	8.4751	2.29686	0.109927	0.0297946	0.113893	15.1651	5.95364e+08	2.19659e+09	2.27585e+09	-74.8349	0.0000000E+000	0.0000000E+000	0.0000000E+000	74.8349	0.0000000E+000	0.0000000E+000	0.0000000E+000	-74.8349	0.0000000E+000	0.0000000E+000	0.0000000E+000	-15.1651	0.0000000E+000	0.0000000E+000	0.0000000E+000	15.1651	3.68949	74.8349	-0.0528025	4.81733e-06	-2.76939e-10	4.81761e-06	3.87992	3.12455e+06	179.624	3.12473e+06
0.0019912	10.0744	3.87372	10.7935	-21.0323	20329.2	3.87969	0.00124168	2.06338e+07	2.65774e+06	1	11	0.00508959	0.000471545	0	-0.0537015	-0.000223036	1.06871e-06	-7.73458	0.00226639	0.00224577	0.000305021	-21.0296	10.7957	10.0766	3.87402	0.0864763	0.0332512	0.0926488	21.0323	2.65774e+09	6.91199e+09	7.40535e+09	-68.9677	0.0000000E+000	0.0000000E+000	0.0000000E+000	68.9677	0.0000000E+000	0.0000000E+000	0.0000000E+000	-68.9677	0.0000000E+000	0.0000000E+000	0.0000000E+000	-21.0323	0.0000000E+000	0.0000000E+000	0.0000000E+000	21.0323	2.6007	68.9677	0.000000000000000E+000	4.81733e-06	-2.76939e-10	4.81761e-06	3.87992	3.12455e+06	179.624	3.12473e+06
0.000497799	10.5577	10.4871	14.881	-44.8079	20329.2	3.87969	0.00124168	3.04867e+07	1.51411e+07	1	11	0.00509075	0.000342098	0	-0.0537015	-0.000223036	2.79367e-06	-33.2558	0.00816628	0.00682889	0.00447821	-44.8016	14.889	10.5645	10.4916	0.0476765	0.0473579	0.0671998	44.8079	1.51411e+10	1.5243e+10	2.14849e+10	-45.1921	0.0000000E+000	0.0000000E+000	0.0000000E+000	45.1921	0.0000000E+000	0.0000000E+000	0.0000000E+000	-45.1921	0.0000000E+000	0.0000000E+000	0.0000000E+000	-44.8079	0.0000000E+000	0.0000000E+000	0.0000000E+000	44.8079	1.00673	45.1921	0.000000000000000E+000	4.81733e-06	-2.76939e-10	4.81761e-06	3.87992	3.12455e+06	179.624	3.12473e+06
9.95598e-05	9.29518	69.6316	70.2493	-82.3965	20329.2	3.87969	0.00124168	2.29578e+07	2.25558e+07	1	11	0.00508816	7.24301e-05	0	-0.0537015	-0.000223036	2.25133e-06	-27.8565	0.0310828	0.0274809	0.0145237	-82.3758	70.2674	9.32266	69.6462	0.00188354	0.0141099	0.014235	82.3965	2.25558e+10	3.01099e+09	2.27559e+10	-7.60351	0.0000000E+000	0.0000000E+000	0.0000000E+000	7.60351	0.0000000E+000	0.0000000E+000	0.0000000E+000	-7.60351	0.0000000E+000	0.0000000E+000	0.0000000E+000	-82.3965	0.0000000E+000	0.0000000E+000	0.0000000E+000	82.3965	0.133491	7.60352	0.000000000000000E+000	4.81733e-06	-2.76939e-10	4.81761e-06	3.87992	3.12455e+06	179.624	3.12473e+06

File: 19749_R319_UC100_SOC50_C05.mpt
EC-Lab ASCII FILE
Nb header lines : 65

Potentio Electrochemical Impedance Spectroscopy

Run on channel : 5 (SN 65912)
User :
CE vs. WE compliance from -10 V to 10 V
Electrode connection : standard
Potential control : Ewe
Ewe ctrl range : min = -10.00 V, max = 10.00 V
Safety Limits :
	Do not start on E overload
Acquisition started on : 12/15/2025 16:10:54.976
Technique started on : 12/15/2025 16:10:55.863
Loaded Setting File :  C:\Users\Celltest\OneDrive - store-dot.com\Documents\EC-Lab\Data\@Biologic Test Protocols\cathode half cell EIS SOC50.mps
Saved on :
	File : 19749_R319_UC100_SOC50_C05.mpr
	Directory : C:\Users\Celltest\OneDrive - store-dot.com\Documents\EC-Lab\Data\Michael\
	Host : 169.254.61.224
Device : VMP-3e (SN .003165)
Address : USB
EC-LAB for windows v11.62 (software)
Internet server v27.00 (firmware)
Command interpretor v12.03 (firmware)
Electrode material :
Initial state :
Electrolyte :
Comments :
Electrode surface area : 0.001 cm²
Characteristic mass : 0.001 g
Equivalent Weight : 0.000 g/eq.
Density : 0.000 g/cm3
Volume (V) : 0.001 cm³
Record Ece
Cycle Definition : Charge/Discharge alternance
Mode                Multi sine
E (V)               0.0000
vs.                 Eoc
tE (h:m:s)          0:00:0.0000
record              0
dI                  0.000
unit dI             mA
dt (s)              0.000
fi                  1.000
unit fi             MHz
ff                  0.100
unit ff             mHz
Nd                  10
Points              per decade
spacing             Logarithmic
Va (mV)             5.0
pw                  0.10
Na                  2
corr                0
E range min (V)     -10.000
E range max (V)     10.000
I Range             Auto
Bandwidth           5
nc cycles           0
goto Ns'            0
nr cycles           0
inc. cycle          0

freq/Hz	Re(Z)/Ohm	-Im(Z)/Ohm	|Z|/Ohm	Phase(Z)/deg	time/s	<Ewe>/V	<I>/mA	Cs/µF	Cp/µF	cycle number	I Range	|Ewe|/V	|I|/A	Ns	(Q-Qo)/mA.h	<Ece>/V	|Ece|/V	Phase(Zce)/deg	|Zce|/Ohm	Re(Zce)/Ohm	-Im(Zce)/Ohm	Phase(Zwe-ce)/deg	|Zwe-ce|/Ohm	Re(Zwe-ce)/Ohm	-Im(Zwe-ce)/Ohm	Re(Y)/Ohm-1	Im(Y)/Ohm-1	|Y|/Ohm-1	Phase(Y)/deg	Re(C)/nF	Im(C)/nF	|C|/nF	Phase(C)/deg	Re(M)	Im(M)	|M|	Phase(M)/deg	Re(Permittivity)	Im(Permittivity)	|Permittivity|	Phase(Permittivity)/deg	Re(Resistivity)/Ohm.cm	Im(Resistivity)/Ohm.cm	|Resistivity|/Ohm.cm	Phase(Resistivity)/deg	Re(Conductivity)/mS/cm	Im(Conductivity)/mS/cm	|Conductivity|/mS/cm	Phase(Conductivity)/deg	Tan(Delta)	Loss Angle(Delta)/deg	dq/mA.h	Pwe/W	Pce/W	Pwe-ce/W	<Ewe-Ece>/V	Rwe/Ohm	Rce/Ohm	Rwe-ce/Ohm		Ewe-Ece/V
1.00002e+06	-106.101	-363.853	379.007	106.257	0.886515	3.88653	-0.0561994	-0.000437408	-0.000403128	1	12	0.000169426	4.47026e-07	0	-4.05594e-06	0.000321514	0.000174144	97.6918	389.562	-52.1408	-386.057	101.915	766.424	-158.242	-749.91	-0.000738628	-0.00253298	0.00263847	-106.257	-0.403128	-0.117554	0.419918	163.743	0.0000000E+000	0.0000000E+000	0.0000000E+000	-163.743	0.0000000E+000	0.0000000E+000	0.0000000E+000	163.743	0.0000000E+000	0.0000000E+000	0.0000000E+000	106.257	0.0000000E+000	0.0000000E+000	0.0000000E+000	-106.257	0.291605	16.2569	-4.05594e-06	-0.000218421	-1.80689e-08	-0.000218402	3.88621	69156.1	5.72095	69150.4
251206	0.745711	0.286263	0.798769	-21.0007	4.51953	3.88683	-0.00154835	2.21322	0.284258	1	9	0.00199786	0.00250118	0	2.54288e-05	9.24193e-05	5.08531e-05	98.2251	0.0203316	-0.00290868	-0.0201225	-19.7122	0.789041	0.742802	0.26614	1.16877	0.448666	1.25193	21.0007	284.258	740.489	793.175	-68.9993	0.0000000E+000	0.0000000E+000	0.0000000E+000	68.9993	0.0000000E+000	0.0000000E+000	0.0000000E+000	-68.9993	0.0000000E+000	0.0000000E+000	0.0000000E+000	-21.0007	0.0000000E+000	0.0000000E+000	0.0000000E+000	21.0007	2.60499	68.9993	6.61418e-07	-6.01817e-06	-1.43097e-10	-6.01803e-06	3.88674	2.51031e+06	59.6889	2.51025e+06
63093.8	1.25067	0.630379	1.40056	-26.7496	6.81756	3.88656	-0.0337235	4.00158	0.810651	1	9	0.0053024	0.00378593	0	-9.11877e-06	-3.03681e-06	2.35294e-05	68.8067	0.00621498	0.00224681	-0.00579463	-26.4964	1.39997	1.25292	0.624584	0.637591	0.321366	0.714002	26.7496	810.651	1608.33	1801.08	-63.2504	0.0000000E+000	0.0000000E+000	0.0000000E+000	63.2504	0.0000000E+000	0.0000000E+000	0.0000000E+000	-63.2504	0.0000000E+000	0.0000000E+000	0.0000000E+000	-26.7496	0.0000000E+000	0.0000000E+000	0.0000000E+000	26.7496	1.984	63.2504	-9.71697e-06	-0.000131069	1.02412e-10	-0.000131069	3.88657	115248	0.0900502	115248
15847.7	1.90584	0.606428	2	-17.6508	9.11554	3.88655	-0.0296272	16.5606	1.52256	1	9	0.00513571	0.00256786	0	-1.91836e-05	-7.94017e-05	9.53398e-06	41.2954	0.00371282	0.0027895	-0.00245024	-17.5597	2.00191	1.90863	0.603977	0.476462	0.151607	0.500001	17.6508	1522.56	4785.01	5021.4	-72.3492	0.0000000E+000	0.0000000E+000	0.0000000E+000	72.3492	0.0000000E+000	0.0000000E+000	0.0000000E+000	-72.3492	0.0000000E+000	0.0000000E+000	0.0000000E+000	-17.6508	0.0000000E+000	0.0000000E+000	0.0000000E+000	17.6508	3.14274	72.3492	-1.85582e-06	-0.000115147	2.35245e-09	-0.00011515	3.88663	131182	2.68003	131185
3983.6	2.3441	0.587622	2.41663	-14.073	11.2121	3.88651	-0.0184552	67.9902	4.01998	1	9	0.00520971	0.00215578	0	-3.28916e-05	0.000187875	1.00541e-05	-96.7474	0.00466378	-0.000547954	0.00463148	-14.1827	2.41723	2.34355	0.592254	0.40138	0.100619	0.4138	14.073	4019.98	16036.2	16532.4	-75.927	0.0000000E+000	0.0000000E+000	0.0000000E+000	75.927	0.0000000E+000	0.0000000E+000	0.0000000E+000	-75.927	0.0000000E+000	0.0000000E+000	0.0000000E+000	-14.073	0.0000000E+000	0.0000000E+000	0.0000000E+000	14.073	3.98912	75.927	-3.37771e-06	-7.17264e-05	-3.46729e-09	-7.1723e-05	3.88632	210591	10.18	210581
1000.32	2.89304	0.868759	3.02066	-16.7146	13.8408	3.88651	-0.0288079	183.139	15.1487	1	9	0.00521078	0.00172505	0	-5.84345e-05	-6.03105e-05	1.20222e-05	-152.429	0.00696922	-0.00617779	0.00322567	-16.8071	3.01568	2.88686	0.871984	0.317066	0.0952125	0.331053	16.7146	15148.7	50446.4	52671.8	-73.2854	0.0000000E+000	0.0000000E+000	0.0000000E+000	73.2854	0.0000000E+000	0.0000000E+000	0.0000000E+000	-73.2854	0.0000000E+000	0.0000000E+000	0.0000000E+000	-16.7146	0.0000000E+000	0.0000000E+000	0.0000000E+000	16.7146	3.33008	73.2854	-1.78619e-06	-0.000111962	1.73742e-09	-0.000111964	3.88657	134911	2.09354	134913
251.044	3.92385	1.2071	4.10533	-17.0996	16.787	3.88652	-0.0391463	525.202	45.4065	1	10	0.00516994	0.00125933	0	-8.59094e-05	1.60544e-05	6.69342e-06	-24.8954	0.00531508	0.00482119	0.00223746	-17.1096	4.11059	3.92867	1.20934	0.232818	0.0716223	0.243586	17.0996	45406.5	147600	154427	-72.9005	0.0000000E+000	0.0000000E+000	0.0000000E+000	72.9005	0.0000000E+000	0.0000000E+000	0.0000000E+000	-72.9005	0.0000000E+000	0.0000000E+000	0.0000000E+000	-17.0996	0.0000000E+000	0.0000000E+000	0.0000000E+000	17.0996	3.25064	72.9005	-4.57422e-06	-0.000152143	-6.28471e-10	-0.000152142	3.8865	99281.8	0.410113	99281.4
[...]
0.0602816	6.47534	1.01026	6.55368	-8.86756	240.438	3.88652	-0.0251649	2.61339e+06	62100.7	1	11	0.00509441	0.000777336	0	-0.00514006	-0.000117584	6.637e-07	-26.4053	0.000853814	0.000764736	0.000379707	-8.8698	6.55449	6.47611	1.01063	0.150762	0.0235213	0.152586	8.86756	6.21007e+07	3.98041e+08	4.02856e+08	-81.1324	0.0000000E+000	0.0000000E+000	0.0000000E+000	81.1324	0.0000000E+000	0.0000000E+000	0.0000000E+000	-81.1324	0.0000000E+000	0.0000000E+000	0.0000000E+000	-8.86756	0.0000000E+000	0.0000000E+000	0.0000000E+000	8.86756	6.40961	81.1324	0.000000000000000E+000	-9.78041e-05	2.959e-09	-9.78071e-05	3.88664	154442	4.67254	154447
0.00796479	8.4651	2.32244	8.77791	-15.3419	20329.3	3.88653	0.00147826	8.60402e+06	602294	1	11	0.00508851	0.000579695	0	-0.0603342	0.000187875	1.37445e-07	-41.0245	0.000237099	0.000178874	0.000155627	-15.3425	8.77812	8.46528	2.3226	0.109863	0.0301414	0.113922	15.3419	6.02294e+08	2.19531e+09	2.27643e+09	-74.6581	0.0000000E+000	0.0000000E+000	0.0000000E+000	74.6581	0.0000000E+000	0.0000000E+000	0.0000000E+000	-74.6581	0.0000000E+000	0.0000000E+000	0.0000000E+000	-15.3419	0.0000000E+000	0.0000000E+000	0.0000000E+000	15.3419	3.64492	74.6581	-0.0551941	5.74529e-06	2.77728e-10	5.74501e-06	3.88634	2.62912e+06	127.092	2.629e+06
0.0019912	10.0397	3.90563	10.7726	-21.257	20329.3	3.88653	0.00147826	2.04651e+07	2.69002e+06	1	11	0.00509989	0.000473413	0	-0.0603342	0.000187875	3.11986e-07	-46.8122	0.000659014	0.000451024	0.000480497	-21.2585	10.7732	10.0401	3.90611	0.0865123	0.033655	0.092828	21.257	2.69002e+09	6.91487e+09	7.41968e+09	-68.743	0.0000000E+000	0.0000000E+000	0.0000000E+000	68.743	0.0000000E+000	0.0000000E+000	0.0000000E+000	-68.743	0.0000000E+000	0.0000000E+000	0.0000000E+000	-21.257	0.0000000E+000	0.0000000E+000	0.0000000E+000	21.257	2.57057	68.743	0.000000000000000E+000	5.74529e-06	2.77728e-10	5.74501e-06	3.88634	2.62912e+06	127.092	2.629e+06
0.000497799	10.6153	10.5485	14.9651	-44.8193	20329.4	3.88653	0.00147826	3.03092e+07	1.5059e+07	1	11	0.00510021	0.000340806	0	-0.0603342	0.000187875	3.4858e-07	-117.446	0.00102281	-0.000471431	0.000907685	-44.823	14.9654	10.6148	10.5494	0.0473991	0.047101	0.066822	44.8193	1.5059e+10	1.51543e+10	2.13641e+10	-45.1807	0.0000000E+000	0.0000000E+000	0.0000000E+000	45.1807	0.0000000E+000	0.0000000E+000	0.0000000E+000	-45.1807	0.0000000E+000	0.0000000E+000	0.0000000E+000	-44.8193	0.0000000E+000	0.0000000E+000	0.0000000E+000	44.8193	1.00633	45.1808	0.000000000000000E+000	5.74529e-06	2.77728e-10	5.74501e-06	3.88634	2.62912e+06	127.092	2.629e+06
9.95598e-05	8.50588	72.1939	72.6933	-83.2804	20329.4	3.88653	0.00147826	2.21429e+07	2.18398e+07	1	11	0.00509926	7.01476e-05	0	-0.0603342	0.000187875	1.25057e-06	-132.496	0.0178277	-0.0120432	0.0131448	-83.291	72.7049	8.49384	72.2071	0.00160965	0.0136619	0.0137564	83.2804	2.18398e+10	2.57316e+09	2.19908e+10	-6.7196	0.0000000E+000	0.0000000E+000	0.0000000E+000	6.7196	0.0000000E+000	0.0000000E+000	0.0000000E+000	-6.7196	0.0000000E+000	0.0000000E+000	0.0000000E+000	-83.2804	0.0000000E+000	0.0000000E+000	0.0000000E+000	83.2804	0.11782	6.7196	0.000000000000000E+000	5.74529e-06	2.77728e-10	5.74501e-06	3.88634	2.62912e+06	127.092	2.629e+06