Folder: EIS/txt (part 198)

File: 19515_R316_UA718_SOC00_C08.mpt
EC-Lab ASCII FILE
Nb header lines : 65

Potentio Electrochemical Impedance Spectroscopy

Run on channel : 8 (SN 65398)
User :
CE vs. WE compliance from -10 V to 10 V
Electrode connection : standard
Potential control : Ewe
Ewe ctrl range : min = -10.00 V, max = 10.00 V
Safety Limits :
	Do not start on E overload
Acquisition started on : 12/05/2025 08:54:38.603
Technique started on : 12/05/2025 08:54:40.514
Loaded Setting File :  NONE
Saved on :
	File : 19515_R316_UA718_SOC00_C08.mpr
	Directory : C:\Users\Celltest\OneDrive - store-dot.com\Documents\EC-Lab\Data\Charmaine\
	Host : 169.254.61.224
Device : VMP-3e (SN .003165)
Address : USB
EC-LAB for windows v11.62 (software)
Internet server v27.00 (firmware)
Command interpretor v12.03 (firmware)
Electrode material :
Initial state :
Electrolyte :
Comments :
Electrode surface area : 0.001 cm²
Characteristic mass : 0.001 g
Equivalent Weight : 0.000 g/eq.
Density : 0.000 g/cm3
Volume (V) : 0.001 cm³
Record Ece
Cycle Definition : Charge/Discharge alternance
Mode                Single sine
E (V)               0.0000
vs.                 Eoc
tE (h:m:s)          0:00:0.0000
record              0
dI                  0.000
unit dI             mA
dt (s)              0.000
fi                  100.000
unit fi             kHz
ff                  10.000
unit ff             mHz
Nd                  6
Points              per decade
spacing             Logarithmic
Va (mV)             5.0
pw                  0.10
Na                  2
corr                0
E range min (V)     -10.000
E range max (V)     10.000
I Range             Auto
Bandwidth           5
nc cycles           0
goto Ns'            0
nr cycles           0
inc. cycle          0

freq/Hz	Re(Z)/Ohm	-Im(Z)/Ohm	|Z|/Ohm	Phase(Z)/deg	time/s	<Ewe>/V	<I>/mA	Cs/µF	Cp/µF	cycle number	I Range	|Ewe|/V	|I|/A	Ns	(Q-Qo)/mA.h	<Ece>/V	|Ece|/V	Phase(Zce)/deg	|Zce|/Ohm	Re(Zce)/Ohm	-Im(Zce)/Ohm	Phase(Zwe-ce)/deg	|Zwe-ce|/Ohm	Re(Zwe-ce)/Ohm	-Im(Zwe-ce)/Ohm	Re(Y)/Ohm-1	Im(Y)/Ohm-1	|Y|/Ohm-1	Phase(Y)/deg	Re(C)/nF	Im(C)/nF	|C|/nF	Phase(C)/deg	Re(M)	Im(M)	|M|	Phase(M)/deg	Re(Permittivity)	Im(Permittivity)	|Permittivity|	Phase(Permittivity)/deg	Re(Resistivity)/Ohm.cm	Im(Resistivity)/Ohm.cm	|Resistivity|/Ohm.cm	Phase(Resistivity)/deg	Re(Conductivity)/mS/cm	Im(Conductivity)/mS/cm	|Conductivity|/mS/cm	Phase(Conductivity)/deg	Tan(Delta)	Loss Angle(Delta)/deg	dq/mA.h	Pwe/W	Pce/W	Pwe-ce/W	<Ewe-Ece>/V	Rwe/Ohm	Rce/Ohm	Rwe-ce/Ohm		Ewe-Ece/V
100004	1.49605	0.5676	1.60011	-20.7766	1.91052	0.283542	0.00260657	2.8039	0.352815	1	9	0.00471069	0.00294398	0	2.84178e-06	-4.37492e-05	4.80484e-05	92.9814	0.0163209	-0.000848869	-0.0162988	-20.2396	1.5936	1.49521	0.551301	0.584317	0.221689	0.624958	20.7766	352.815	929.935	994.614	-69.2234	0.0000000E+000	0.0000000E+000	0.0000000E+000	69.2234	0.0000000E+000	0.0000000E+000	0.0000000E+000	-69.2234	0.0000000E+000	0.0000000E+000	0.0000000E+000	-20.7766	0.0000000E+000	0.0000000E+000	0.0000000E+000	20.7766	2.63576	69.2234	2.84178e-06	7.39071e-07	-1.14035e-10	7.39185e-07	0.283585	108780	16.7842	108796
31621.1	1.99315	0.781652	2.14094	-21.4136	3.43155	0.283533	0.00357382	6.43916	0.858315	1	9	0.00512611	0.00239432	0	2.13994e-05	0.000166219	1.20561e-05	7.29685	0.00503529	0.00499451	-0.000639533	-21.349	2.14536	1.99814	0.781013	0.434841	0.170531	0.467084	21.4136	858.315	2188.64	2350.92	-68.5864	0.0000000E+000	0.0000000E+000	0.0000000E+000	68.5864	0.0000000E+000	0.0000000E+000	0.0000000E+000	-68.5864	0.0000000E+000	0.0000000E+000	0.0000000E+000	-21.4136	0.0000000E+000	0.0000000E+000	0.0000000E+000	21.4136	2.54992	68.5864	-1.95752e-06	1.01329e-06	5.94038e-10	1.0127e-06	0.283366	79336	46.5103	79289.5
10002.2	2.60442	1.01032	2.79352	-21.2026	4.58056	0.283518	0.0036482	15.7494	2.06006	1	9	0.00489058	0.00175069	0	2.44609e-05	0.000166219	8.64136e-06	37.6796	0.00493598	0.00390654	-0.00301709	-21.116	2.79607	2.60832	1.0073	0.33374	0.129466	0.357972	21.2026	2060.06	5310.45	5696.03	-68.7974	0.0000000E+000	0.0000000E+000	0.0000000E+000	68.7974	0.0000000E+000	0.0000000E+000	0.0000000E+000	-68.7974	0.0000000E+000	0.0000000E+000	0.0000000E+000	-21.2026	0.0000000E+000	0.0000000E+000	0.0000000E+000	21.2026	2.57781	68.7974	-1.14083e-06	1.03433e-06	6.06402e-10	1.03373e-06	0.283352	77714.5	45.562	77668.9
3163.08	3.34182	1.43322	3.63619	-23.2133	5.47963	0.283307	-0.010191	35.1072	5.4542	1	9	0.00454617	0.00125026	0	2.19682e-05	0.000147131	7.78871e-06	38.0159	0.0062297	0.00490801	-0.00383674	-23.1273	3.63919	3.34673	1.42939	0.252749	0.108398	0.275013	23.2133	5454.2	12717.4	13837.7	-66.7867	0.0000000E+000	0.0000000E+000	0.0000000E+000	66.7867	0.0000000E+000	0.0000000E+000	0.0000000E+000	-66.7867	0.0000000E+000	0.0000000E+000	0.0000000E+000	-23.2133	0.0000000E+000	0.0000000E+000	0.0000000E+000	23.2133	2.33168	66.7867	1.50643e-07	-2.88719e-06	-1.49942e-09	-2.88569e-06	0.28316	27799.6	14.4373	27785.2
1000.32	4.26222	2.30877	4.84737	-28.4437	7.07677	0.283455	-0.0103561	68.9128	15.6333	1	10	0.00458811	0.000946515	0	2.55065e-05	5.16911e-05	5.02251e-06	-13.0633	0.00530632	0.00516899	0.00119937	-28.427	4.85249	4.26739	2.30997	0.181394	0.0982583	0.206297	28.4437	15633.3	28860.6	32822.8	-61.5563	0.0000000E+000	0.0000000E+000	0.0000000E+000	61.5563	0.0000000E+000	0.0000000E+000	0.0000000E+000	-61.5563	0.0000000E+000	0.0000000E+000	0.0000000E+000	-28.4437	0.0000000E+000	0.0000000E+000	0.0000000E+000	28.4437	1.8461	61.5563	-1.69621e-06	-2.93549e-06	-5.35319e-10	-2.93496e-06	0.283403	27370.7	4.99135	27365.7
316.316	5.62683	4.66533	7.30934	-39.6629	8.42603	0.283461	-0.0113159	107.849	43.9364	1	10	0.00451498	0.000617701	0	2.22432e-05	7.07791e-05	6.20428e-06	-107.682	0.0100442	-0.00305078	0.00956963	-39.7358	7.31311	5.62378	4.6749	0.105319	0.0873224	0.136811	39.6629	43936.4	52991.5	68836.8	-50.3371	0.0000000E+000	0.0000000E+000	0.0000000E+000	50.3371	0.0000000E+000	0.0000000E+000	0.0000000E+000	-50.3371	0.0000000E+000	0.0000000E+000	0.0000000E+000	-39.6629	0.0000000E+000	0.0000000E+000	0.0000000E+000	39.6629	1.2061	50.3371	-1.62778e-06	-3.20761e-06	-8.00928e-10	-3.20681e-06	0.28339	25049.8	6.25485	25043.6
100.032	9.61504	10.2052	14.0212	-46.7054	9.98782	0.283449	-0.0107877	155.905	82.5905	1	10	0.0050111	0.000357394	0	1.69515e-05	-0.00013919	5.73711e-06	40.8095	0.0160526	0.01215	-0.0104911	-46.6399	14.0219	9.62719	10.1947	0.048908	0.0519098	0.0713205	46.7054	82590.5	77814.5	113474	-43.2946	0.0000000E+000	0.0000000E+000	0.0000000E+000	43.2946	0.0000000E+000	0.0000000E+000	0.0000000E+000	-43.2946	0.0000000E+000	0.0000000E+000	0.0000000E+000	-46.7054	0.0000000E+000	0.0000000E+000	0.0000000E+000	46.7054	0.942173	43.2946	-2.1002e-06	-3.05774e-06	1.50153e-09	-3.05925e-06	0.283588	26275.3	12.9027	26288.2
31.6296	21.6859	16.5906	27.3043	-37.4175	11.5566	0.283509	-0.00249507	303.295	111.976	1	11	0.00500636	0.000183354	0	1.43057e-05	-4.37492e-05	1.00947e-05	43.9752	0.0550559	0.0396205	-0.0382279	-37.3033	27.3126	21.7255	16.5524	0.029088	0.0222535	0.0366242	37.4175	111976	146366	184287	-52.5825	0.0000000E+000	0.0000000E+000	0.0000000E+000	52.5825	0.0000000E+000	0.0000000E+000	0.0000000E+000	-52.5825	0.0000000E+000	0.0000000E+000	0.0000000E+000	-37.4175	0.0000000E+000	0.0000000E+000	0.0000000E+000	37.4175	1.30712	52.5825	1.29139e-07	-7.07376e-07	1.09157e-10	-7.07486e-07	0.283553	113628	17.5342	113645
[...]
1.00006	49.99	6.27832	50.3828	-7.15838	19.7238	0.283525	-0.000603596	25348.3	393.616	1	12	0.0050024	9.9288e-05	0	1.35496e-05	8.98672e-05	1.81792e-06	-90.005	0.0183096	-1.58324e-06	0.0183096	-7.17904	50.385	49.99	6.29663	0.0196934	0.00247332	0.0198481	7.15838	393616	3.13409e+06	3.15872e+06	-82.8416	0.0000000E+000	0.0000000E+000	0.0000000E+000	82.8416	0.0000000E+000	0.0000000E+000	0.0000000E+000	-82.8416	0.0000000E+000	0.0000000E+000	0.0000000E+000	-7.15838	0.0000000E+000	0.0000000E+000	0.0000000E+000	7.15838	7.96232	82.8416	2.77729e-06	-1.71134e-07	-5.42434e-11	-1.7108e-07	0.283435	469727	148.886	469578
0.316193	53.2688	5.09955	53.5124	-5.46839	34.0669	0.283517	-0.000132705	98704.3	896.378	1	12	0.00500404	9.35119e-05	0	1.52728e-05	-2.46612e-05	4.89704e-06	-28.0851	0.0523681	0.0462018	0.024654	-5.48994	53.5607	53.315	5.1242	0.0186022	0.00178083	0.0186873	5.46839	896378	9.36338e+06	9.40619e+06	-84.5316	0.0000000E+000	0.0000000E+000	0.0000000E+000	84.5316	0.0000000E+000	0.0000000E+000	0.0000000E+000	-84.5316	0.0000000E+000	0.0000000E+000	0.0000000E+000	-5.46839	0.0000000E+000	0.0000000E+000	0.0000000E+000	5.46839	10.4458	84.5316	-3.39261e-06	-3.76241e-08	3.27266e-12	-3.76274e-08	0.283541	2.13644e+06	185.834	2.13663e+06
0.0999041	56.3665	6.21855	56.7085	-6.29561	79.2749	0.283523	-0.000451134	256181	3080.56	1	12	0.00500673	8.82889e-05	0	-3.17819e-05	-4.37492e-05	2.89304e-06	-6.82621	0.0327678	0.0325356	0.00389473	-6.29592	56.7413	56.399	6.22245	0.0175277	0.00193372	0.017634	6.29561	3.08056e+06	2.7923e+07	2.80924e+07	-83.7044	0.0000000E+000	0.0000000E+000	0.0000000E+000	83.7044	0.0000000E+000	0.0000000E+000	0.0000000E+000	-83.7044	0.0000000E+000	0.0000000E+000	0.0000000E+000	-6.29561	0.0000000E+000	0.0000000E+000	0.0000000E+000	6.29561	9.06425	83.7044	-1.85717e-05	-1.27907e-07	1.97367e-11	-1.27927e-07	0.283567	628469	96.9762	628566
0.0315922	60.9869	10.8649	61.9472	-10.1013	222.159	0.283506	-0.000811855	463678	14263.3	1	12	0.005007	8.0827e-05	0	2.73158e-05	8.98672e-05	2.5451e-06	-2.25811	0.0314882	0.0314638	0.00124068	-10.0973	61.9784	61.0184	10.8661	0.0158926	0.00283127	0.0161428	10.1013	1.42633e+07	8.00634e+07	8.1324e+07	-79.8987	0.0000000E+000	0.0000000E+000	0.0000000E+000	79.8987	0.0000000E+000	0.0000000E+000	0.0000000E+000	-79.8987	0.0000000E+000	0.0000000E+000	0.0000000E+000	-10.1013	0.0000000E+000	0.0000000E+000	0.0000000E+000	10.1013	5.61323	79.8987	5.36096e-05	-2.30166e-07	-7.29591e-11	-2.30093e-07	0.283416	349208	110.694	349097
0.0100092	68.7956	20.8159	71.8759	-16.8345	673.382	0.283508	0.000652152	763884	64069.4	1	12	0.00500347	6.96127e-05	0	0.000195614	-8.19253e-05	1.81497e-06	12.5796	0.0260724	0.0254465	-0.00567847	-16.8243	71.8986	68.8211	20.8102	0.0133166	0.00402929	0.0139129	16.8345	6.40694e+07	2.11747e+08	2.21227e+08	-73.1655	0.0000000E+000	0.0000000E+000	0.0000000E+000	73.1655	0.0000000E+000	0.0000000E+000	0.0000000E+000	-73.1655	0.0000000E+000	0.0000000E+000	0.0000000E+000	-16.8345	0.0000000E+000	0.0000000E+000	0.0000000E+000	16.8345	3.30496	73.1655	2.22405e-06	1.84891e-07	-5.34278e-11	1.84944e-07	0.28359	434727	125.623	434853

File: 19745_R319_UC100_SOC50_C01.mpt
EC-Lab ASCII FILE
Nb header lines : 65

Potentio Electrochemical Impedance Spectroscopy

Run on channel : 1 (SN 66354)
User :
CE vs. WE compliance from -10 V to 10 V
Electrode connection : standard
Potential control : Ewe
Ewe ctrl range : min = -10.00 V, max = 10.00 V
Safety Limits :
	Do not start on E overload
Acquisition started on : 12/15/2025 16:10:14.448
Technique started on : 12/15/2025 16:10:17.143
Loaded Setting File :  C:\Users\Celltest\OneDrive - store-dot.com\Documents\EC-Lab\Data\@Biologic Test Protocols\cathode half cell EIS SOC50.mps
Saved on :
	File : 19745_R319_UC100_SOC50_C01.mpr
	Directory : C:\Users\Celltest\OneDrive - store-dot.com\Documents\EC-Lab\Data\Michael\
	Host : 169.254.61.224
Device : VMP-3e (SN .003165)
Address : USB
EC-LAB for windows v11.62 (software)
Internet server v27.00 (firmware)
Command interpretor v12.03 (firmware)
Electrode material :
Initial state :
Electrolyte :
Comments :
Electrode surface area : 0.001 cm²
Characteristic mass : 0.001 g
Equivalent Weight : 0.000 g/eq.
Density : 0.000 g/cm3
Volume (V) : 0.001 cm³
Record Ece
Cycle Definition : Charge/Discharge alternance
Mode                Multi sine
E (V)               0.0000
vs.                 Eoc
tE (h:m:s)          0:00:0.0000
record              0
dI                  0.000
unit dI             mA
dt (s)              0.000
fi                  1.000
unit fi             MHz
ff                  0.100
unit ff             mHz
Nd                  10
Points              per decade
spacing             Logarithmic
Va (mV)             5.0
pw                  0.10
Na                  2
corr                0
E range min (V)     -10.000
E range max (V)     10.000
I Range             Auto
Bandwidth           5
nc cycles           0
goto Ns'            0
nr cycles           0
inc. cycle          0

freq/Hz	Re(Z)/Ohm	-Im(Z)/Ohm	|Z|/Ohm	Phase(Z)/deg	time/s	<Ewe>/V	<I>/mA	Cs/µF	Cp/µF	cycle number	I Range	|Ewe|/V	|I|/A	Ns	(Q-Qo)/mA.h	<Ece>/V	|Ece|/V	Phase(Zce)/deg	|Zce|/Ohm	Re(Zce)/Ohm	-Im(Zce)/Ohm	Phase(Zwe-ce)/deg	|Zwe-ce|/Ohm	Re(Zwe-ce)/Ohm	-Im(Zwe-ce)/Ohm	Re(Y)/Ohm-1	Im(Y)/Ohm-1	|Y|/Ohm-1	Phase(Y)/deg	Re(C)/nF	Im(C)/nF	|C|/nF	Phase(C)/deg	Re(M)	Im(M)	|M|	Phase(M)/deg	Re(Permittivity)	Im(Permittivity)	|Permittivity|	Phase(Permittivity)/deg	Re(Resistivity)/Ohm.cm	Im(Resistivity)/Ohm.cm	|Resistivity|/Ohm.cm	Phase(Resistivity)/deg	Re(Conductivity)/mS/cm	Im(Conductivity)/mS/cm	|Conductivity|/mS/cm	Phase(Conductivity)/deg	Tan(Delta)	Loss Angle(Delta)/deg	dq/mA.h	Pwe/W	Pce/W	Pwe-ce/W	<Ewe-Ece>/V	Rwe/Ohm	Rce/Ohm	Rwe-ce/Ohm		Ewe-Ece/V
1.00002e+06	1.06214	-0.00825007	1.06217	0.44503	2.69455	3.88041	0.135117	-19.291	-0.0011638	1	9	0.000219699	0.000206839	0	5.24792e-05	0.000231029	0.00019225	-6.57051	0.929465	0.92336	0.106355	-2.82872	1.98792	1.9855	0.0981047	0.941437	-0.0073125	0.941465	-0.44503	-1.1638	149.832	149.836	-90.445	0.0000000E+000	0.0000000E+000	0.0000000E+000	90.445	0.0000000E+000	0.0000000E+000	0.0000000E+000	-90.445	0.0000000E+000	0.0000000E+000	0.0000000E+000	0.44503	0.0000000E+000	0.0000000E+000	0.0000000E+000	-0.44503	128.743	89.555	5.24792e-05	0.000524308	3.12159e-08	0.000524277	3.88018	28718.9	1.70984	28717.2
251206	0.671196	0.30795	0.73847	-24.6461	4.99554	3.88007	0.0824393	2.05735	0.357771	1	9	0.00192265	0.00260356	0	0.00011374	0.000288261	6.10663e-05	116.608	0.0234549	-0.0105052	-0.0209708	-23.4783	0.720326	0.660691	0.28698	1.23079	0.564697	1.35415	24.6461	357.771	779.783	857.94	-65.3539	0.0000000E+000	0.0000000E+000	0.0000000E+000	65.3539	0.0000000E+000	0.0000000E+000	0.0000000E+000	-65.3539	0.0000000E+000	0.0000000E+000	0.0000000E+000	-24.6461	0.0000000E+000	0.0000000E+000	0.0000000E+000	24.6461	2.17956	65.3539	9.96613e-06	0.00031987	2.3764e-08	0.000319847	3.87978	47065.8	3.49664	47062.3
63093.8	1.18673	0.699228	1.37741	-30.5068	7.29552	3.88004	0.0888098	3.60757	0.929667	1	9	0.00539719	0.00391837	0	0.00012758	-9.32854e-05	2.55898e-05	79.8631	0.00653074	0.00114942	-0.00642879	-30.2517	1.37515	1.18788	0.692799	0.6255	0.368548	0.726002	30.5068	929.667	1577.83	1831.35	-59.4932	0.0000000E+000	0.0000000E+000	0.0000000E+000	59.4932	0.0000000E+000	0.0000000E+000	0.0000000E+000	-59.4932	0.0000000E+000	0.0000000E+000	0.0000000E+000	-30.5068	0.0000000E+000	0.0000000E+000	0.0000000E+000	30.5068	1.6972	59.4932	3.09099e-06	0.000344585	-8.28466e-09	0.000344593	3.88013	43689.3	1.0504	43690.3
15847.7	1.96187	0.706837	2.08532	-19.8135	9.84556	3.88004	0.0917529	14.2081	1.63241	1	9	0.00487231	0.00233648	0	0.000190835	0.00015472	1.11674e-05	22.5182	0.00477958	0.00441517	-0.00183047	-19.7252	2.08885	1.96628	0.705006	0.451155	0.162546	0.479544	19.8135	1632.41	4530.86	4815.96	-70.1865	0.0000000E+000	0.0000000E+000	0.0000000E+000	70.1865	0.0000000E+000	0.0000000E+000	0.0000000E+000	-70.1865	0.0000000E+000	0.0000000E+000	0.0000000E+000	-19.8135	0.0000000E+000	0.0000000E+000	0.0000000E+000	19.8135	2.77556	70.1865	8.33694e-06	0.000356005	1.4196e-08	0.000355991	3.87989	42287.9	1.68626	42286.3
3983.6	2.46665	0.63549	2.5472	-14.4471	11.6941	3.87981	-0.0158749	62.8688	3.91316	1	9	0.00481204	0.00188915	0	0.000226013	-0.000112363	5.42034e-06	58.3729	0.00286919	0.00150457	-0.00244306	-14.3855	2.54805	2.46816	0.633047	0.380174	0.0979452	0.392588	14.4471	3913.16	15188.9	15684.9	-75.5529	0.0000000E+000	0.0000000E+000	0.0000000E+000	75.5529	0.0000000E+000	0.0000000E+000	0.0000000E+000	-75.5529	0.0000000E+000	0.0000000E+000	0.0000000E+000	-14.4471	0.0000000E+000	0.0000000E+000	0.0000000E+000	14.4471	3.8815	75.5529	9.82735e-07	-6.15917e-05	1.78375e-09	-6.15935e-05	3.87992	244398	7.07799	244405
1000.32	3.02872	0.995099	3.188	-18.1882	14.3238	3.88	0.133552	159.888	15.578	1	9	0.00465284	0.00145948	0	0.000310208	0.000135642	4.64936e-05	10.7127	0.0318561	0.0313009	-0.00592158	-17.9139	3.21593	3.06002	0.989178	0.298004	0.0979106	0.313676	18.1882	15578	47413.6	49907.1	-71.8118	0.0000000E+000	0.0000000E+000	0.0000000E+000	71.8118	0.0000000E+000	0.0000000E+000	0.0000000E+000	-71.8118	0.0000000E+000	0.0000000E+000	0.0000000E+000	-18.1882	0.0000000E+000	0.0000000E+000	0.0000000E+000	18.1882	3.04363	71.8118	1.48615e-05	0.000518182	1.81153e-08	0.000518164	3.87986	29052.3	1.01565	29051.3
251.044	4.19267	1.36744	4.41003	-18.0638	17.27	3.87992	-0.00277328	463.618	44.5754	1	10	0.00470392	0.00106664	0	0.000316781	0.000211951	5.23075e-06	71.2498	0.00490395	0.00157634	-0.00464369	-18.0001	4.4101	4.19425	1.3628	0.215579	0.0703113	0.226756	18.0638	44575.4	136671	143757	-71.9362	0.0000000E+000	0.0000000E+000	0.0000000E+000	71.9362	0.0000000E+000	0.0000000E+000	0.0000000E+000	-71.9362	0.0000000E+000	0.0000000E+000	0.0000000E+000	-18.0638	0.0000000E+000	0.0000000E+000	0.0000000E+000	18.0638	3.06607	71.9362	1.17539e-07	-1.07601e-05	-5.87801e-10	-1.07595e-05	3.8797	1.39904e+06	76.4263	1.39896e+06
[...]
0.0602816	7.02065	1.02081	7.09448	-8.27287	240.822	3.87997	-0.0184089	2.58637e+06	53547.4	1	11	0.00502884	0.000708839	0	-0.00342491	0.000307338	4.16762e-07	-45.3081	0.00058795	0.000413501	0.000417973	-8.27573	7.09494	7.02106	1.02123	0.139488	0.0202817	0.140955	8.27287	5.35474e+07	3.68275e+08	3.72147e+08	-81.7271	0.0000000E+000	0.0000000E+000	0.0000000E+000	81.7271	0.0000000E+000	0.0000000E+000	0.0000000E+000	-81.7271	0.0000000E+000	0.0000000E+000	0.0000000E+000	-8.27287	0.0000000E+000	0.0000000E+000	0.0000000E+000	8.27287	6.87754	81.7271	0.000000000000000E+000	-7.14258e-05	-5.65774e-09	-7.14201e-05	3.87966	210766	16.6951	210750
0.00796479	9.03421	2.18198	9.29397	-13.5783	20329.7	3.87998	0.00200801	9.15787e+06	504771	1	11	0.00502292	0.00054045	0	-0.0537644	-7.42081e-05	5.37367e-07	-12.6527	0.000994297	0.000970151	0.000217791	-13.5782	9.29497	9.03518	2.1822	0.104589	0.0252609	0.107597	13.5783	5.04771e+08	2.08994e+09	2.15003e+09	-76.4217	0.0000000E+000	0.0000000E+000	0.0000000E+000	76.4217	0.0000000E+000	0.0000000E+000	0.0000000E+000	-76.4217	0.0000000E+000	0.0000000E+000	0.0000000E+000	-13.5783	0.0000000E+000	0.0000000E+000	0.0000000E+000	13.5783	4.14037	76.4217	-0.0503395	7.79103e-06	-1.4901e-10	7.79118e-06	3.88006	1.93226e+06	36.9561	1.93229e+06
0.0019912	10.4798	3.8007	11.1477	-19.9342	20329.7	3.87998	0.00200801	2.10301e+07	2.44456e+06	1	11	0.00503514	0.000451676	0	-0.0537644	-7.42081e-05	5.29382e-07	-32.1504	0.00117204	0.000992312	0.000623694	-19.9355	11.1488	10.4808	3.80133	0.08433	0.030584	0.0897047	19.9342	2.44456e+09	6.74044e+09	7.17004e+09	-70.0658	0.0000000E+000	0.0000000E+000	0.0000000E+000	70.0658	0.0000000E+000	0.0000000E+000	0.0000000E+000	-70.0658	0.0000000E+000	0.0000000E+000	0.0000000E+000	-19.9342	0.0000000E+000	0.0000000E+000	0.0000000E+000	19.9342	2.75732	70.0658	0.000000000000000E+000	7.79103e-06	-1.4901e-10	7.79118e-06	3.88006	1.93226e+06	36.9561	1.93229e+06
0.000497799	11.0178	10.6813	15.3454	-44.1116	20329.7	3.87998	0.00200801	2.99324e+07	1.45022e+07	1	11	0.00503727	0.000328259	0	-0.0537644	-7.42081e-05	2.88028e-07	-111.105	0.00087744	-0.000315946	0.000818583	-44.1147	15.3457	11.0175	10.6821	0.0467883	0.0453594	0.0651661	44.1116	1.45022e+10	1.4959e+10	2.08347e+10	-45.8884	0.0000000E+000	0.0000000E+000	0.0000000E+000	45.8884	0.0000000E+000	0.0000000E+000	0.0000000E+000	-45.8884	0.0000000E+000	0.0000000E+000	0.0000000E+000	-44.1116	0.0000000E+000	0.0000000E+000	0.0000000E+000	44.1116	1.0315	45.8884	0.000000000000000E+000	7.79103e-06	-1.4901e-10	7.79118e-06	3.88006	1.93226e+06	36.9561	1.93229e+06
9.95598e-05	8.45363	72.045	72.5393	-83.3076	20329.7	3.87998	0.00200801	2.21887e+07	2.18874e+07	1	11	0.00503811	6.94536e-05	0	-0.0537644	-7.42081e-05	1.8248e-06	-75.0502	0.0262737	0.00677788	0.0253844	-83.3046	72.5653	8.46041	72.0704	0.00160656	0.0136917	0.0137856	83.3076	2.18874e+10	2.56822e+09	2.20375e+10	-6.69238	0.0000000E+000	0.0000000E+000	0.0000000E+000	6.69238	0.0000000E+000	0.0000000E+000	0.0000000E+000	-6.69238	0.0000000E+000	0.0000000E+000	0.0000000E+000	-83.3076	0.0000000E+000	0.0000000E+000	0.0000000E+000	83.3076	0.117338	6.69238	0.000000000000000E+000	7.79103e-06	-1.4901e-10	7.79118e-06	3.88006	1.93226e+06	36.9561	1.93229e+06