Folder: EIS/txt (part 126)

File: 18803_R307_UC93_26p5_SOC50_C05.mpt
EC-Lab ASCII FILE
Nb header lines : 65

Potentio Electrochemical Impedance Spectroscopy

Run on channel : 5 (SN 65912)
Grouped channel(s) : 1, 2, 3, 4, 5
User :
CE vs. WE compliance from -10 V to 10 V
Electrode connection : standard
Potential control : Ewe
Ewe ctrl range : min = -10.00 V, max = 10.00 V
Safety Limits :
	Do not start on E overload
Acquisition started on : 11/04/2025 16:29:50.795
Loaded Setting File :  C:\Users\Celltest\OneDrive - store-dot.com\Documents\EC-Lab\Data\@Biologic Test Protocols\cathode half cell EIS SOC50.mps
Saved on :
	File : 18799_R307_UC93_26p5_SOC00_C05.mpr
	Directory : C:\Users\Celltest\OneDrive - store-dot.com\Documents\EC-Lab\Data\Anna\
	Host : 169.254.61.224
Device : VMP-3e (SN .003165)
Address : USB
EC-LAB for windows v11.62 (software)
Internet server v27.00 (firmware)
Command interpretor v12.03 (firmware)
Electrode material :
Initial state :
Electrolyte :
Comments :
Electrode surface area : 0.001 cm²
Characteristic mass : 0.001 g
Equivalent Weight : 0.000 g/eq.
Density : 0.000 g/cm3
Volume (V) : 0.001 cm³
Record Ece
Cycle Definition : Charge/Discharge alternance
Mode                Multi sine
E (V)               0.0000
vs.                 Eoc
tE (h:m:s)          0:00:0.0000
record              0
dI                  0.000
unit dI             mA
dt (s)              0.000
fi                  1.000
unit fi             MHz
ff                  0.100
unit ff             mHz
Nd                  10
Points              per decade
spacing             Logarithmic
Va (mV)             5.0
pw                  0.10
Na                  2
corr                0
E range min (V)     -10.000
E range max (V)     10.000
I Range             Auto
Bandwidth           5
nc cycles           0
goto Ns'            0
nr cycles           0
inc. cycle          0

freq/Hz	Re(Z)/Ohm	-Im(Z)/Ohm	|Z|/Ohm	Phase(Z)/deg	time/s	<Ewe>/V	<I>/mA	Cs/µF	Cp/µF	cycle number	I Range	|Ewe|/V	|I|/A	Ns	(Q-Qo)/mA.h	<Ece>/V	|Ece|/V	Phase(Zce)/deg	|Zce|/Ohm	Re(Zce)/Ohm	-Im(Zce)/Ohm	Phase(Zwe-ce)/deg	|Zwe-ce|/Ohm	Re(Zwe-ce)/Ohm	-Im(Zwe-ce)/Ohm	Re(Y)/Ohm-1	Im(Y)/Ohm-1	|Y|/Ohm-1	Phase(Y)/deg	Re(C)/nF	Im(C)/nF	|C|/nF	Phase(C)/deg	Re(M)	Im(M)	|M|	Phase(M)/deg	Re(Permittivity)	Im(Permittivity)	|Permittivity|	Phase(Permittivity)/deg	Re(Resistivity)/Ohm.cm	Im(Resistivity)/Ohm.cm	|Resistivity|/Ohm.cm	Phase(Resistivity)/deg	Re(Conductivity)/mS/cm	Im(Conductivity)/mS/cm	|Conductivity|/mS/cm	Phase(Conductivity)/deg	Tan(Delta)	Loss Angle(Delta)/deg	dq/mA.h	Pwe/W	Pce/W	Pwe-ce/W	<Ewe-Ece>/V	Rwe/Ohm	Rce/Ohm	Rwe-ce/Ohm		Ewe-Ece/V
1.00002e+06	0.925626	-0.465288	1.03599	26.6875	2.69456	3.96311	-0.0101136	-0.34205	-0.0689958	1	9	0.0002278	0.000219886	0	4.50901e-06	0.000131509	0.000188149	-1.59551	0.855665	0.855334	0.0238245	13.9219	1.83486	1.78096	-0.441464	0.86243	-0.433522	0.96526	-26.6875	-68.9958	137.258	153.623	-116.688	0.0000000E+000	0.0000000E+000	0.0000000E+000	116.688	0.0000000E+000	0.0000000E+000	0.0000000E+000	-116.688	0.0000000E+000	0.0000000E+000	0.0000000E+000	26.6875	0.0000000E+000	0.0000000E+000	0.0000000E+000	-26.6875	1.98936	63.3125	4.50901e-06	-4.00812e-05	-1.33002e-09	-4.00799e-05	3.96298	391860	13.0032	391847
251206	1.51478	0.304367	1.54506	-11.3612	4.99453	3.96152	-0.0449327	2.08157	0.0807788	1	9	0.00423205	0.00273909	0	-2.09401e-05	0.0001506	4.26285e-05	99.9289	0.015563	-0.00268348	-0.0153299	-10.8215	1.53948	1.5121	0.289037	0.634542	0.127499	0.647224	11.3612	80.7788	402.022	410.057	-78.6388	0.0000000E+000	0.0000000E+000	0.0000000E+000	78.6388	0.0000000E+000	0.0000000E+000	0.0000000E+000	-78.6388	0.0000000E+000	0.0000000E+000	0.0000000E+000	-11.3612	0.0000000E+000	0.0000000E+000	0.0000000E+000	11.3612	4.97683	78.6388	-6.46992e-06	-0.000178002	-6.76686e-09	-0.000177995	3.96136	88165.5	3.35167	88162.1
63093.8	1.96973	0.834163	2.13908	-22.9522	7.29255	3.96126	-0.0357717	3.024	0.459866	1	9	0.00547402	0.00255906	0	-3.81167e-05	-4.03124e-05	2.16624e-05	85.982	0.00846501	0.000593136	-0.00844421	-22.7375	2.13635	1.97032	0.825719	0.43048	0.182305	0.467491	22.9522	459.866	1085.89	1179.25	-67.0478	0.0000000E+000	0.0000000E+000	0.0000000E+000	67.0478	0.0000000E+000	0.0000000E+000	0.0000000E+000	-67.0478	0.0000000E+000	0.0000000E+000	0.0000000E+000	-22.9522	0.0000000E+000	0.0000000E+000	0.0000000E+000	22.9522	2.36132	67.0478	-1.28916e-06	-0.000141701	1.44204e-09	-0.000141703	3.9613	110737	1.12693	110738
15847.7	2.91593	1.61257	3.33212	-28.9435	9.71556	3.96116	-0.0877213	6.22783	1.45858	1	9	0.00503032	0.00150965	0	-6.11472e-05	-5.94036e-05	1.00315e-05	-2.54364	0.00664491	0.00663836	0.000294904	-28.8927	3.33807	2.92257	1.61286	0.262625	0.145237	0.300109	28.9435	1458.58	2637.49	3013.94	-61.0565	0.0000000E+000	0.0000000E+000	0.0000000E+000	61.0565	0.0000000E+000	0.0000000E+000	0.0000000E+000	-61.0565	0.0000000E+000	0.0000000E+000	0.0000000E+000	-28.9435	0.0000000E+000	0.0000000E+000	0.0000000E+000	28.9435	1.80825	61.0565	-5.37183e-06	-0.000347478	5.21096e-09	-0.000347483	3.96122	45156.2	0.677186	45156.9
3983.6	4.43193	2.88959	5.29073	-33.1041	11.5951	3.96117	-0.0418049	13.8264	4.1243	1	10	0.00499271	0.000943671	0	-7.68548e-05	0.000226965	8.57449e-06	-62.6847	0.00908631	0.00416959	0.00807314	-33.1526	5.29863	4.4361	2.89767	0.15833	0.10323	0.18901	33.1041	4124.3	6325.68	7551.43	-56.8959	0.0000000E+000	0.0000000E+000	0.0000000E+000	56.8959	0.0000000E+000	0.0000000E+000	0.0000000E+000	-56.8959	0.0000000E+000	0.0000000E+000	0.0000000E+000	-33.1041	0.0000000E+000	0.0000000E+000	0.0000000E+000	33.1041	1.53376	56.8959	-3.82006e-06	-0.000165596	-9.48823e-09	-0.000165587	3.96094	94753.8	5.42914	94748.4
1000.32	7.56266	5.65834	9.44514	-36.8036	14.2238	3.96118	-0.0164038	28.1185	10.0915	1	10	0.0046906	0.000496616	0	-9.11763e-05	-4.03124e-05	1.0059e-05	27.2622	0.0202551	0.0180052	-0.00927811	-36.6933	9.45401	7.58066	5.64906	0.0847731	0.0634268	0.105875	36.8036	10091.5	13487.7	16845.1	-53.1964	0.0000000E+000	0.0000000E+000	0.0000000E+000	53.1964	0.0000000E+000	0.0000000E+000	0.0000000E+000	-53.1964	0.0000000E+000	0.0000000E+000	0.0000000E+000	-36.8036	0.0000000E+000	0.0000000E+000	0.0000000E+000	36.8036	1.33655	53.1964	-1.71582e-06	-6.49783e-05	6.61275e-10	-6.4979e-05	3.96122	241480	2.45751	241482
251.044	15.0301	8.63917	17.3361	-29.8899	16.9231	3.96118	-0.017383	73.3834	18.2239	1	10	0.00463831	0.000267552	0	-0.000102821	-2.12997e-06	1.54057e-05	8.30591	0.0575801	0.0569761	-0.00831792	-29.7725	17.3814	15.0871	8.63085	0.0500105	0.0287455	0.0576832	29.8899	18223.9	31705.2	36569.5	-60.1101	0.0000000E+000	0.0000000E+000	0.0000000E+000	60.1101	0.0000000E+000	0.0000000E+000	0.0000000E+000	-60.1101	0.0000000E+000	0.0000000E+000	0.0000000E+000	-29.8899	0.0000000E+000	0.0000000E+000	0.0000000E+000	29.8899	1.73976	60.1101	-2.07439e-06	-6.88573e-05	3.70253e-11	-6.88573e-05	3.96118	227876	0.122531	227876
[...]
0.0602816	31.8051	3.99089	32.0545	-7.15207	241.189	3.96121	-0.011804	661555	10254.8	1	11	0.00509505	0.00015895	0	-0.00154942	0.000131509	5.6194e-07	72.1611	0.00353534	0.00108302	-0.00336537	-7.14586	32.0551	31.8062	3.98752	0.0309541	0.00388411	0.0311969	7.15207	1.02548e+07	8.17248e+07	8.23657e+07	-82.8479	0.0000000E+000	0.0000000E+000	0.0000000E+000	82.8479	0.0000000E+000	0.0000000E+000	0.0000000E+000	-82.8479	0.0000000E+000	0.0000000E+000	0.0000000E+000	-7.15207	0.0000000E+000	0.0000000E+000	0.0000000E+000	7.15207	7.96943	82.8479	0.000000000000000E+000	-4.6758e-05	-1.55233e-09	-4.67565e-05	3.96107	335582	11.141	335571
0.00796479	40.1322	8.04981	40.9316	-11.342	20330.1	3.96121	-0.00097872	2.48233e+06	96009.7	1	11	0.00508827	0.000124312	0	-0.0155438	0.000207873	4.63971e-07	-158.286	0.00373232	-0.00346747	0.00138088	-11.3449	40.9284	40.1287	8.05119	0.0239539	0.00480473	0.024431	11.342	9.60097e+07	4.78655e+08	4.88189e+08	-78.658	0.0000000E+000	0.0000000E+000	0.0000000E+000	78.658	0.0000000E+000	0.0000000E+000	0.0000000E+000	-78.658	0.0000000E+000	0.0000000E+000	0.0000000E+000	-11.342	0.0000000E+000	0.0000000E+000	0.0000000E+000	11.342	4.98548	78.658	-0.0139944	-3.87692e-06	-2.0345e-10	-3.87671e-06	3.961	4.04734e+06	212.393	4.04713e+06
0.0019912	47.7218	11.4023	49.0651	-13.4379	20330.1	3.96121	-0.00097872	7.00992e+06	378576	1	11	0.0051001	0.000103945	0	-0.0155438	0.000207873	3.57485e-07	-100.58	0.00343916	-0.000631457	0.00338069	-13.4419	49.0653	47.7212	11.4057	0.0198231	0.00473639	0.0203811	13.4379	3.78576e+08	1.58445e+09	1.62904e+09	-76.5621	0.0000000E+000	0.0000000E+000	0.0000000E+000	76.5621	0.0000000E+000	0.0000000E+000	0.0000000E+000	-76.5621	0.0000000E+000	0.0000000E+000	0.0000000E+000	-13.4379	0.0000000E+000	0.0000000E+000	0.0000000E+000	13.4379	4.18528	76.5621	0.000000000000000E+000	-3.87692e-06	-2.0345e-10	-3.87671e-06	3.961	4.04734e+06	212.393	4.04713e+06
0.000497799	52.9983	18.6082	56.1701	-19.3466	20330.1	3.96121	-0.00097872	1.71815e+07	1.88564e+06	1	11	0.00510103	9.08139e-05	0	-0.0155438	0.000207873	1.04154e-06	-103.883	0.0114689	-0.00275193	0.0111339	-19.3583	56.1712	52.9955	18.6193	0.0167978	0.00589785	0.0178031	19.3466	1.88564e+09	5.37053e+09	5.69195e+09	-70.6534	0.0000000E+000	0.0000000E+000	0.0000000E+000	70.6534	0.0000000E+000	0.0000000E+000	0.0000000E+000	-70.6534	0.0000000E+000	0.0000000E+000	0.0000000E+000	-19.3466	0.0000000E+000	0.0000000E+000	0.0000000E+000	19.3466	2.84812	70.6534	0.000000000000000E+000	-3.87692e-06	-2.0345e-10	-3.87671e-06	3.961	4.04734e+06	212.393	4.04713e+06
9.95598e-05	62.9955	84.29	105.23	-53.2268	20330.1	3.96121	-0.00097872	1.89653e+07	1.21685e+07	1	11	0.00509951	4.84609e-05	0	-0.0155438	0.000207873	1.15774e-06	87.2449	0.0238902	0.00114831	-0.0238626	-53.2185	105.211	62.9967	84.2662	0.00568898	0.00761204	0.00950304	53.2268	1.21685e+10	9.09433e+09	1.51914e+10	-36.7732	0.0000000E+000	0.0000000E+000	0.0000000E+000	36.7732	0.0000000E+000	0.0000000E+000	0.0000000E+000	-36.7732	0.0000000E+000	0.0000000E+000	0.0000000E+000	-53.2268	0.0000000E+000	0.0000000E+000	0.0000000E+000	53.2268	0.747366	36.7732	0.000000000000000E+000	-3.87692e-06	-2.0345e-10	-3.87671e-06	3.961	4.04734e+06	212.393	4.04713e+06

File: 18804_R307_UC93_28_SOC50_C01.mpt
EC-Lab ASCII FILE
Nb header lines : 65

Potentio Electrochemical Impedance Spectroscopy

Run on channel : 1 (SN 66354)
Grouped channel(s) : 1, 2, 3, 4, 5
User :
CE vs. WE compliance from -10 V to 10 V
Electrode connection : standard
Potential control : Ewe
Ewe ctrl range : min = -10.00 V, max = 10.00 V
Safety Limits :
	Do not start on E overload
Acquisition started on : 11/05/2025 08:59:28.513
Loaded Setting File :  C:\Users\Celltest\OneDrive - store-dot.com\Documents\EC-Lab\Data\@Biologic Test Protocols\cathode half cell EIS SOC50.mps
Saved on :
	File : 18804_R307_UC93_28_SOC00_C01.mpr
	Directory : C:\Users\Celltest\OneDrive - store-dot.com\Documents\EC-Lab\Data\Anna\
	Host : 169.254.61.224
Device : VMP-3e (SN .003165)
Address : USB
EC-LAB for windows v11.62 (software)
Internet server v27.00 (firmware)
Command interpretor v12.03 (firmware)
Electrode material :
Initial state :
Electrolyte :
Comments :
Electrode surface area : 0.001 cm²
Characteristic mass : 0.001 g
Equivalent Weight : 0.000 g/eq.
Density : 0.000 g/cm3
Volume (V) : 0.001 cm³
Record Ece
Cycle Definition : Charge/Discharge alternance
Mode                Multi sine
E (V)               0.0000
vs.                 Eoc
tE (h:m:s)          0:00:0.0000
record              0
dI                  0.000
unit dI             mA
dt (s)              0.000
fi                  1.000
unit fi             MHz
ff                  0.100
unit ff             mHz
Nd                  10
Points              per decade
spacing             Logarithmic
Va (mV)             5.0
pw                  0.10
Na                  2
corr                0
E range min (V)     -10.000
E range max (V)     10.000
I Range             Auto
Bandwidth           5
nc cycles           0
goto Ns'            0
nr cycles           0
inc. cycle          0

freq/Hz	Re(Z)/Ohm	-Im(Z)/Ohm	|Z|/Ohm	Phase(Z)/deg	time/s	<Ewe>/V	<I>/mA	Cs/µF	Cp/µF	cycle number	I Range	|Ewe|/V	|I|/A	Ns	(Q-Qo)/mA.h	<Ece>/V	|Ece|/V	Phase(Zce)/deg	|Zce|/Ohm	Re(Zce)/Ohm	-Im(Zce)/Ohm	Phase(Zwe-ce)/deg	|Zwe-ce|/Ohm	Re(Zwe-ce)/Ohm	-Im(Zwe-ce)/Ohm	Re(Y)/Ohm-1	Im(Y)/Ohm-1	|Y|/Ohm-1	Phase(Y)/deg	Re(C)/nF	Im(C)/nF	|C|/nF	Phase(C)/deg	Re(M)	Im(M)	|M|	Phase(M)/deg	Re(Permittivity)	Im(Permittivity)	|Permittivity|	Phase(Permittivity)/deg	Re(Resistivity)/Ohm.cm	Im(Resistivity)/Ohm.cm	|Resistivity|/Ohm.cm	Phase(Resistivity)/deg	Re(Conductivity)/mS/cm	Im(Conductivity)/mS/cm	|Conductivity|/mS/cm	Phase(Conductivity)/deg	Tan(Delta)	Loss Angle(Delta)/deg	dq/mA.h	Pwe/W	Pce/W	Pwe-ce/W	<Ewe-Ece>/V	Rwe/Ohm	Rce/Ohm	Rwe-ce/Ohm		Ewe-Ece/V
1.00002e+06	3.57449	2.59915	4.41957	-36.0224	2.69253	3.97261	-0.00790157	0.0612322	0.021178	1	10	0.000290913	6.58239e-05	0	2.55484e-06	0.000462198	0.000190413	-71.1607	2.89277	0.934116	2.7378	-49.8092	6.98646	4.50861	5.33695	0.183001	0.133068	0.226266	36.0224	21.178	29.125	36.0107	-53.9776	0.0000000E+000	0.0000000E+000	0.0000000E+000	53.9776	0.0000000E+000	0.0000000E+000	0.0000000E+000	-53.9776	0.0000000E+000	0.0000000E+000	0.0000000E+000	-36.0224	0.0000000E+000	0.0000000E+000	0.0000000E+000	36.0224	1.37525	53.9776	2.55484e-06	-3.13899e-05	-3.65209e-09	-3.13863e-05	3.97215	502762	58.4945	502704
251206	2.64109	0.405428	2.67203	-8.72723	5.39954	3.97219	0.0202618	1.5627	0.0359767	1	9	0.00513248	0.00192082	0	4.85344e-06	-0.000148276	5.24066e-05	117.794	0.0272835	-0.0127222	-0.0241357	-8.25421	2.65588	2.62837	0.381292	0.369915	0.0567848	0.374248	8.72723	35.9767	234.364	237.11	-81.2728	0.0000000E+000	0.0000000E+000	0.0000000E+000	81.2728	0.0000000E+000	0.0000000E+000	0.0000000E+000	-81.2728	0.0000000E+000	0.0000000E+000	0.0000000E+000	-8.72723	0.0000000E+000	0.0000000E+000	0.0000000E+000	8.72723	6.51433	81.2728	-1.48336e-06	8.04836e-05	-3.00433e-09	8.04866e-05	3.97234	196044	7.318	196051
63093.8	3.25755	1.01916	3.41325	-17.3729	7.82152	3.97218	0.0192931	2.47509	0.220668	1	9	0.00543917	0.00159355	0	2.39352e-05	-1.47345e-05	2.19889e-05	89.1121	0.0137987	0.000213821	-0.0137971	-17.1505	3.40936	3.25776	1.00536	0.279611	0.0874793	0.292976	17.3729	220.668	705.322	739.035	-72.6271	0.0000000E+000	0.0000000E+000	0.0000000E+000	72.6271	0.0000000E+000	0.0000000E+000	0.0000000E+000	-72.6271	0.0000000E+000	0.0000000E+000	0.0000000E+000	-17.3729	0.0000000E+000	0.0000000E+000	0.0000000E+000	17.3729	3.19631	72.6271	2.42219e-06	7.66358e-05	-2.84275e-10	7.66361e-05	3.97219	205885	0.763717	205886
15847.7	4.44777	1.84287	4.81444	-22.506	10.2755	3.97228	-0.0106036	5.44953	0.798469	1	10	0.00491298	0.00102047	0	3.45473e-05	0.00023327	9.93374e-06	-69.1109	0.0097345	0.00347093	0.00909468	-22.5901	4.82114	4.45124	1.85197	0.191889	0.0795067	0.207708	22.506	798.469	1927.1	2085.97	-67.494	0.0000000E+000	0.0000000E+000	0.0000000E+000	67.494	0.0000000E+000	0.0000000E+000	0.0000000E+000	-67.494	0.0000000E+000	0.0000000E+000	0.0000000E+000	-22.506	0.0000000E+000	0.0000000E+000	0.0000000E+000	22.506	2.4135	67.494	-1.13677e-06	-4.21204e-05	-2.4735e-09	-4.21179e-05	3.97204	374617	21.9992	374595
3983.6	6.33497	2.94386	6.98557	-24.9243	12.0021	3.97217	-0.0205881	13.5715	2.41023	1	10	0.00488746	0.000699651	0	2.961e-05	-5.28891e-05	7.04059e-06	-77.9012	0.010063	0.00210919	0.00983948	-24.9901	6.99163	6.33708	2.9537	0.12982	0.0603273	0.143152	24.9243	2410.23	5186.63	5719.29	-65.0757	0.0000000E+000	0.0000000E+000	0.0000000E+000	65.0757	0.0000000E+000	0.0000000E+000	0.0000000E+000	-65.0757	0.0000000E+000	0.0000000E+000	0.0000000E+000	-24.9243	0.0000000E+000	0.0000000E+000	0.0000000E+000	24.9243	2.15193	65.0757	-1.19134e-06	-8.17794e-05	1.08888e-09	-8.17805e-05	3.97223	192936	2.56892	192938
1000.32	9.31931	4.97498	10.5641	-28.0949	14.6318	3.97223	0.00402092	31.9809	7.09265	1	10	0.00472971	0.000447716	0	3.16878e-05	-0.000148276	6.48626e-06	48.5249	0.0144874	0.00959495	-0.0108546	-28.0185	10.5674	9.3289	4.96412	0.0835064	0.0445787	0.0946603	28.0949	7092.65	13286.2	15060.8	-61.9051	0.0000000E+000	0.0000000E+000	0.0000000E+000	61.9051	0.0000000E+000	0.0000000E+000	0.0000000E+000	-61.9051	0.0000000E+000	0.0000000E+000	0.0000000E+000	-28.0949	0.0000000E+000	0.0000000E+000	0.0000000E+000	28.0949	1.87324	61.9051	1.50259e-07	1.5972e-05	-5.96204e-10	1.59726e-05	3.97238	987892	36.8761	987928
251.044	15.3905	7.66005	17.1914	-26.4601	17.3321	3.97224	0.00389792	82.7633	16.4315	1	10	0.00469853	0.000273307	0	3.4429e-05	0.00023327	8.14987e-06	4.72804	0.0298195	0.029718	-0.00245791	-26.4087	17.2169	15.4203	7.6576	0.0520751	0.0259184	0.0581685	26.4601	16431.5	33014.1	36877.2	-63.5399	0.0000000E+000	0.0000000E+000	0.0000000E+000	63.5399	0.0000000E+000	0.0000000E+000	0.0000000E+000	-63.5399	0.0000000E+000	0.0000000E+000	0.0000000E+000	-26.4601	0.0000000E+000	0.0000000E+000	0.0000000E+000	26.4601	2.00919	63.5399	7.06677e-07	1.54835e-05	9.0927e-10	1.54826e-05	3.97201	1.01907e+06	59.8448	1.01901e+06
[...]
0.0602816	33.8289	4.65099	34.1472	-7.82827	241.594	3.97225	-0.0024131	567661	10531	1	11	0.00502626	0.000147194	0	-0.000701471	9.97293e-05	5.6574e-07	44.5481	0.0038435	0.00273912	-0.00269625	-7.82316	34.1495	33.8317	4.6483	0.0290121	0.00398874	0.029285	7.82827	1.0531e+07	7.65974e+07	7.7318e+07	-82.1717	0.0000000E+000	0.0000000E+000	0.0000000E+000	82.1717	0.0000000E+000	0.0000000E+000	0.0000000E+000	-82.1717	0.0000000E+000	0.0000000E+000	0.0000000E+000	-7.82827	0.0000000E+000	0.0000000E+000	0.0000000E+000	7.82827	7.27349	82.1717	0.000000000000000E+000	-9.58543e-06	-2.40657e-10	-9.58519e-06	3.97215	1.64612e+06	41.3283	1.64608e+06
0.00796479	44.414	11.4685	45.8708	-14.4786	20330.5	3.97226	0.000173385	1.74236e+06	108913	1	11	0.00502006	0.000109439	0	-0.00806978	0.000156961	5.90896e-07	-8.52402	0.0053993	0.00533966	0.000800306	-14.4779	45.8761	44.4193	11.4693	0.021108	0.00545048	0.0218004	14.4786	1.08913e+08	4.21787e+08	4.35622e+08	-75.5214	0.0000000E+000	0.0000000E+000	0.0000000E+000	75.5214	0.0000000E+000	0.0000000E+000	0.0000000E+000	-75.5214	0.0000000E+000	0.0000000E+000	0.0000000E+000	-14.4786	0.0000000E+000	0.0000000E+000	0.0000000E+000	14.4786	3.87269	75.5214	-0.00736831	6.8873e-07	2.72147e-11	6.88702e-07	3.9721	2.29101e+07	905.276	2.29092e+07
0.0019912	56.9338	17.9828	59.7063	-17.529	20330.5	3.97226	0.000173385	4.44476e+06	403203	1	11	0.00503381	8.43096e-05	0	-0.00806978	0.000156961	8.00724e-07	-11.6007	0.00949742	0.00930342	0.00190984	-17.528	59.7158	56.9431	17.9847	0.0159709	0.00504449	0.0167486	17.529	4.03203e+08	1.27654e+09	1.33871e+09	-72.471	0.0000000E+000	0.0000000E+000	0.0000000E+000	72.471	0.0000000E+000	0.0000000E+000	0.0000000E+000	-72.471	0.0000000E+000	0.0000000E+000	0.0000000E+000	-17.529	0.0000000E+000	0.0000000E+000	0.0000000E+000	17.529	3.16601	72.471	0.000000000000000E+000	6.8873e-07	2.72147e-11	6.88702e-07	3.9721	2.29101e+07	905.276	2.29092e+07
0.000497799	68.928	23.0904	72.6927	-18.5205	20330.5	3.97226	0.000173385	1.38463e+07	1.39706e+06	1	11	0.00503437	6.92556e-05	0	-0.00806978	0.000156961	7.11457e-07	-32.0917	0.0102729	0.0087032	0.00545776	-18.5224	72.7027	68.9367	23.0959	0.0130441	0.00436968	0.0137565	18.5205	1.39706e+09	4.17042e+09	4.3982e+09	-71.4795	0.0000000E+000	0.0000000E+000	0.0000000E+000	71.4795	0.0000000E+000	0.0000000E+000	0.0000000E+000	-71.4795	0.0000000E+000	0.0000000E+000	0.0000000E+000	-18.5205	0.0000000E+000	0.0000000E+000	0.0000000E+000	18.5205	2.98513	71.4795	0.000000000000000E+000	6.8873e-07	2.72147e-11	6.88702e-07	3.9721	2.29101e+07	905.276	2.29092e+07
9.95598e-05	85.7017	81.4765	118.251	-43.5522	20330.5	3.97226	0.000173385	1.96202e+07	9.31455e+06	1	11	0.00503562	4.25843e-05	0	-0.00806978	0.000156961	9.04686e-07	43.1177	0.0212446	0.0155075	-0.0145206	-43.542	118.252	85.7172	81.462	0.00612891	0.00582674	0.00845662	43.5522	9.31455e+09	9.79758e+09	1.35186e+10	-46.4478	0.0000000E+000	0.0000000E+000	0.0000000E+000	46.4478	0.0000000E+000	0.0000000E+000	0.0000000E+000	-46.4478	0.0000000E+000	0.0000000E+000	0.0000000E+000	-43.5522	0.0000000E+000	0.0000000E+000	0.0000000E+000	43.5522	1.05186	46.4478	0.000000000000000E+000	6.8873e-07	2.72147e-11	6.88702e-07	3.9721	2.29101e+07	905.276	2.29092e+07