Folder: EIS/txt (part 136)

File: 18827_R307_UA701_4p38_SOC00_C06.mpt
EC-Lab ASCII FILE
Nb header lines : 65

Potentio Electrochemical Impedance Spectroscopy

Run on channel : 6 (SN 65795)
User :
CE vs. WE compliance from -10 V to 10 V
Electrode connection : standard
Potential control : Ewe
Ewe ctrl range : min = -10.00 V, max = 10.00 V
Safety Limits :
	Do not start on E overload
Acquisition started on : 11/03/2025 17:11:12.862
Technique started on : 11/03/2025 17:11:14.589
Loaded Setting File :  C:\Users\Celltest\OneDrive - store-dot.com\Documents\EC-Lab\Data\@Biologic Test Protocols\anode half cell EIS SOC00.mps
Saved on :
	File : 18827_R307_UA701_4p38_SOC00_C06.mpr
	Directory : C:\Users\Celltest\OneDrive - store-dot.com\Documents\EC-Lab\Data\Anna\
	Host : 169.254.61.224
Device : VMP-3e (SN .003165)
Address : USB
EC-LAB for windows v11.62 (software)
Internet server v27.00 (firmware)
Command interpretor v12.03 (firmware)
Electrode material :
Initial state :
Electrolyte :
Comments :
Electrode surface area : 0.001 cm²
Characteristic mass : 0.001 g
Equivalent Weight : 0.000 g/eq.
Density : 0.000 g/cm3
Volume (V) : 0.001 cm³
Record Ece
Cycle Definition : Charge/Discharge alternance
Mode                Single sine
E (V)               0.0000
vs.                 Eoc
tE (h:m:s)          0:00:0.0000
record              0
dI                  0.000
unit dI             mA
dt (s)              0.000
fi                  100.000
unit fi             kHz
ff                  10.000
unit ff             mHz
Nd                  6
Points              per decade
spacing             Logarithmic
Va (mV)             5.0
pw                  0.10
Na                  2
corr                0
E range min (V)     -10.000
E range max (V)     10.000
I Range             Auto
Bandwidth           5
nc cycles           0
goto Ns'            0
nr cycles           0
inc. cycle          0

freq/Hz	Re(Z)/Ohm	-Im(Z)/Ohm	|Z|/Ohm	Phase(Z)/deg	time/s	<Ewe>/V	<I>/mA	Cs/µF	Cp/µF	cycle number	I Range	|Ewe|/V	|I|/A	Ns	(Q-Qo)/mA.h	<Ece>/V	|Ece|/V	Phase(Zce)/deg	|Zce|/Ohm	Re(Zce)/Ohm	-Im(Zce)/Ohm	Phase(Zwe-ce)/deg	|Zwe-ce|/Ohm	Re(Zwe-ce)/Ohm	-Im(Zwe-ce)/Ohm	Re(Y)/Ohm-1	Im(Y)/Ohm-1	|Y|/Ohm-1	Phase(Y)/deg	Re(C)/nF	Im(C)/nF	|C|/nF	Phase(C)/deg	Re(M)	Im(M)	|M|	Phase(M)/deg	Re(Permittivity)	Im(Permittivity)	|Permittivity|	Phase(Permittivity)/deg	Re(Resistivity)/Ohm.cm	Im(Resistivity)/Ohm.cm	|Resistivity|/Ohm.cm	Phase(Resistivity)/deg	Re(Conductivity)/mS/cm	Im(Conductivity)/mS/cm	|Conductivity|/mS/cm	Phase(Conductivity)/deg	Tan(Delta)	Loss Angle(Delta)/deg	dq/mA.h	Pwe/W	Pce/W	Pwe-ce/W	<Ewe-Ece>/V	Rwe/Ohm	Rce/Ohm	Rwe-ce/Ohm		Ewe-Ece/V
100004	1.37581	0.545128	1.47987	-21.6147	1.72655	0.255331	0.0307989	2.91948	0.396148	1	9	0.00483174	0.00326499	0	3.72833e-06	0.000420944	4.12556e-05	83.457	0.0126358	0.00143982	-0.0125535	-21.1413	1.47663	1.37725	0.532575	0.62822	0.248916	0.675737	21.6147	396.148	999.806	1075.43	-68.3853	0.0000000E+000	0.0000000E+000	0.0000000E+000	68.3853	0.0000000E+000	0.0000000E+000	0.0000000E+000	-68.3853	0.0000000E+000	0.0000000E+000	0.0000000E+000	-21.6147	0.0000000E+000	0.0000000E+000	0.0000000E+000	21.6147	2.52382	68.3853	3.72833e-06	7.86393e-06	1.29646e-08	7.85096e-06	0.25491	8290.28	13.6675	8276.61
31621.1	1.84606	0.706402	1.9766	-20.9395	3.12553	0.255338	0.0252859	7.1251	0.910034	1	9	0.00546488	0.00276479	0	1.74777e-05	0.000229964	1.12911e-05	11.8551	0.00408388	0.00399677	-0.000838984	-20.8755	1.98003	1.85006	0.705563	0.472508	0.180807	0.50592	20.9395	910.034	2378.22	2546.38	-69.0605	0.0000000E+000	0.0000000E+000	0.0000000E+000	69.0605	0.0000000E+000	0.0000000E+000	0.0000000E+000	-69.0605	0.0000000E+000	0.0000000E+000	0.0000000E+000	-20.9395	0.0000000E+000	0.0000000E+000	0.0000000E+000	20.9395	2.61333	69.0605	-4.05858e-06	6.45645e-06	5.81484e-09	6.45063e-06	0.255108	10098	9.09454	10088.9
10002.2	2.37621	0.895139	2.53922	-20.6419	4.15055	0.255345	0.0274091	17.776	2.20909	1	9	0.00521156	0.00205243	0	2.369e-05	0.000287258	9.21675e-06	-103.653	0.00449066	-0.00106	0.00436376	-20.7424	2.53977	2.37515	0.899503	0.36854	0.138832	0.393822	20.6419	2209.09	5864.18	6266.48	-69.3581	0.0000000E+000	0.0000000E+000	0.0000000E+000	69.3581	0.0000000E+000	0.0000000E+000	0.0000000E+000	-69.3581	0.0000000E+000	0.0000000E+000	0.0000000E+000	-20.6419	0.0000000E+000	0.0000000E+000	0.0000000E+000	20.6419	2.65457	69.3581	4.63332e-07	6.99878e-06	7.87348e-09	6.9909e-06	0.255058	9316.05	10.4804	9305.57
3163.08	3.0736	1.24741	3.31709	-22.0897	5.04767	0.25517	-0.0153911	40.3366	5.70437	1	9	0.00497084	0.00149856	0	2.52948e-05	0.000249062	3.91876e-06	68.8428	0.00261502	0.000943835	-0.00243875	-22.0445	3.31704	3.07454	1.24498	0.279341	0.11337	0.30147	22.0897	5704.37	14055.4	15168.9	-67.9103	0.0000000E+000	0.0000000E+000	0.0000000E+000	67.9103	0.0000000E+000	0.0000000E+000	0.0000000E+000	-67.9103	0.0000000E+000	0.0000000E+000	0.0000000E+000	-22.0897	0.0000000E+000	0.0000000E+000	0.0000000E+000	22.0897	2.46398	67.9103	-2.74583e-06	-3.92735e-06	-3.83333e-09	-3.92352e-06	0.254921	16579.1	16.1822	16562.9
1000.32	4.01961	1.85309	4.4262	-24.7503	6.64579	0.255274	-0.0156373	85.8585	15.0493	1	10	0.00492803	0.00111338	0	2.32477e-05	9.62774e-05	4.31452e-06	135.37	0.00387516	-0.00275781	-0.00272239	-24.7333	4.42255	4.01685	1.85037	0.205174	0.094588	0.225928	24.7503	15049.3	32644	35946	-65.2497	0.0000000E+000	0.0000000E+000	0.0000000E+000	65.2497	0.0000000E+000	0.0000000E+000	0.0000000E+000	-65.2497	0.0000000E+000	0.0000000E+000	0.0000000E+000	-24.7503	0.0000000E+000	0.0000000E+000	0.0000000E+000	24.7503	2.16913	65.2497	-1.10214e-06	-3.99179e-06	-1.50552e-09	-3.99028e-06	0.255177	16324.7	6.15691	16318.5
316.316	5.49488	2.95262	6.23793	-28.2509	7.99608	0.255267	-0.0146721	170.408	38.1792	1	10	0.00483714	0.00077544	0	1.70813e-05	0.000382748	1.08811e-05	104.857	0.0140322	-0.00359794	-0.0135631	-28.1567	6.22835	5.49129	2.93906	0.141214	0.0758801	0.16031	28.2509	38179.2	71052.1	80660.1	-61.749	0.0000000E+000	0.0000000E+000	0.0000000E+000	61.749	0.0000000E+000	0.0000000E+000	0.0000000E+000	-61.749	0.0000000E+000	0.0000000E+000	0.0000000E+000	-28.2509	0.0000000E+000	0.0000000E+000	0.0000000E+000	28.2509	1.86102	61.7491	-2.33932e-06	-3.74531e-06	-5.61573e-09	-3.7397e-06	0.254884	17398.1	26.0867	17372
100.032	8.47436	4.37493	9.53702	-27.3053	9.3428	0.255274	-0.0145044	363.672	76.5292	1	10	0.00482775	0.000506212	0	1.25623e-05	0.000153571	3.15553e-06	13.324	0.00623362	0.00606583	-0.00143658	-27.2809	9.54175	8.48042	4.37349	0.0931711	0.0481001	0.104855	27.3053	76529.2	148239	166828	-62.6947	0.0000000E+000	0.0000000E+000	0.0000000E+000	62.6947	0.0000000E+000	0.0000000E+000	0.0000000E+000	-62.6947	0.0000000E+000	0.0000000E+000	0.0000000E+000	-27.3053	0.0000000E+000	0.0000000E+000	0.0000000E+000	27.3053	1.93703	62.6947	-2.02055e-06	-3.7026e-06	-2.22747e-09	-3.70038e-06	0.25512	17599.7	10.5879	17589.1
[...]
1.00006	18.6715	1.64032	18.7435	-5.02062	19.4089	0.255276	-0.00656165	97020.6	743.056	1	12	0.00481389	0.00025683	0	-4.14252e-06	0.00017267	3.04419e-06	23.2088	0.0118529	0.0108937	-0.00467104	-5.00349	18.7539	18.6824	1.63565	0.0531472	0.00466905	0.0533519	5.02062	743056	8.45811e+06	8.49068e+06	-84.9794	0.0000000E+000	0.0000000E+000	0.0000000E+000	84.9794	0.0000000E+000	0.0000000E+000	0.0000000E+000	-84.9794	0.0000000E+000	0.0000000E+000	0.0000000E+000	-5.02062	0.0000000E+000	0.0000000E+000	0.0000000E+000	5.02062	11.3829	84.9794	-1.98557e-06	-1.67503e-06	-1.133e-09	-1.6739e-06	0.255103	38904.3	26.315	38877.9
0.316193	19.4024	1.66146	19.4734	-4.89441	33.751	0.255297	-0.00405405	302954	2205.34	1	12	0.00480649	0.000246823	0	-6.32437e-05	-1.83109e-05	2.06102e-06	19.693	0.00835018	0.0078618	-0.00281384	-4.88419	19.481	19.4102	1.65865	0.0511649	0.00438135	0.0513521	4.89441	2.20534e+06	2.57537e+07	2.5848e+07	-85.1056	0.0000000E+000	0.0000000E+000	0.0000000E+000	85.1056	0.0000000E+000	0.0000000E+000	0.0000000E+000	-85.1056	0.0000000E+000	0.0000000E+000	0.0000000E+000	-4.89441	0.0000000E+000	0.0000000E+000	0.0000000E+000	4.89441	11.6779	85.1056	-2.80065e-05	-1.03499e-06	7.42331e-11	-1.03506e-06	0.255316	62973.5	4.51669	62978
0.0999041	20.3377	2.97853	20.5547	-8.33194	78.9591	0.255288	-0.0051074	534853	11231	1	12	0.00481579	0.000234292	0	-7.9088e-05	0.000229964	1.03146e-06	52.1959	0.00440245	0.00269854	-0.00347843	-8.32126	20.5568	20.3404	2.97505	0.0481373	0.00704988	0.0486508	8.33194	1.1231e+07	7.66864e+07	7.75044e+07	-81.6681	0.0000000E+000	0.0000000E+000	0.0000000E+000	81.6681	0.0000000E+000	0.0000000E+000	0.0000000E+000	-81.6681	0.0000000E+000	0.0000000E+000	0.0000000E+000	-8.33194	0.0000000E+000	0.0000000E+000	0.0000000E+000	8.33194	6.8281	81.6681	2.15773e-05	-1.30386e-06	-1.17452e-09	-1.30268e-06	0.255058	49984	45.0256	49939
0.0315922	22.3522	6.14568	23.1817	-15.3734	221.842	0.25528	-0.000887312	819729	57612.9	1	12	0.00481601	0.000207751	0	8.01936e-05	1.98852e-05	1.71695e-06	6.06433	0.00826448	0.00821823	-0.000873101	-15.366	23.1894	22.3604	6.14481	0.0415939	0.0114361	0.0431375	15.3734	5.76129e+07	2.09542e+08	2.17318e+08	-74.6266	0.0000000E+000	0.0000000E+000	0.0000000E+000	74.6266	0.0000000E+000	0.0000000E+000	0.0000000E+000	-74.6266	0.0000000E+000	0.0000000E+000	0.0000000E+000	-15.3734	0.0000000E+000	0.0000000E+000	0.0000000E+000	15.3734	3.63706	74.6266	2.45591e-05	-2.26513e-07	-1.76444e-11	-2.26495e-07	0.25526	287700	22.4106	287678
0.0100092	26.0736	13.6893	29.4487	-27.7006	673.064	0.255285	-0.00177649	1.16156e+06	250997	1	12	0.00481874	0.000163631	0	-0.000998949	3.89833e-05	1.93156e-06	-92.5575	0.0118043	-0.000526729	0.0117926	-27.7214	29.4538	26.0731	13.7011	0.0300654	0.0157851	0.0339573	27.7006	2.50997e+08	4.78068e+08	5.39952e+08	-62.2994	0.0000000E+000	0.0000000E+000	0.0000000E+000	62.2994	0.0000000E+000	0.0000000E+000	0.0000000E+000	-62.2994	0.0000000E+000	0.0000000E+000	0.0000000E+000	-27.7006	0.0000000E+000	0.0000000E+000	0.0000000E+000	27.7006	1.90467	62.2994	-0.000554994	-4.53512e-07	-6.92535e-11	-4.53443e-07	0.255246	143702	21.9439	143680

File: 18828_R307_UA701_4p38_SOC00_C07.mpt
EC-Lab ASCII FILE
Nb header lines : 65

Potentio Electrochemical Impedance Spectroscopy

Run on channel : 7 (SN 66126)
User :
CE vs. WE compliance from -10 V to 10 V
Electrode connection : standard
Potential control : Ewe
Ewe ctrl range : min = -10.00 V, max = 10.00 V
Safety Limits :
	Do not start on E overload
Acquisition started on : 11/03/2025 17:11:21.085
Technique started on : 11/03/2025 17:11:23.140
Loaded Setting File :  C:\Users\Celltest\OneDrive - store-dot.com\Documents\EC-Lab\Data\@Biologic Test Protocols\anode half cell EIS SOC00.mps
Saved on :
	File : 18828_R307_UA701_4p38_SOC00_C07.mpr
	Directory : C:\Users\Celltest\OneDrive - store-dot.com\Documents\EC-Lab\Data\Anna\
	Host : 169.254.61.224
Device : VMP-3e (SN .003165)
Address : USB
EC-LAB for windows v11.62 (software)
Internet server v27.00 (firmware)
Command interpretor v12.03 (firmware)
Electrode material :
Initial state :
Electrolyte :
Comments :
Electrode surface area : 0.001 cm²
Characteristic mass : 0.001 g
Equivalent Weight : 0.000 g/eq.
Density : 0.000 g/cm3
Volume (V) : 0.001 cm³
Record Ece
Cycle Definition : Charge/Discharge alternance
Mode                Single sine
E (V)               0.0000
vs.                 Eoc
tE (h:m:s)          0:00:0.0000
record              0
dI                  0.000
unit dI             mA
dt (s)              0.000
fi                  100.000
unit fi             kHz
ff                  10.000
unit ff             mHz
Nd                  6
Points              per decade
spacing             Logarithmic
Va (mV)             5.0
pw                  0.10
Na                  2
corr                0
E range min (V)     -10.000
E range max (V)     10.000
I Range             Auto
Bandwidth           5
nc cycles           0
goto Ns'            0
nr cycles           0
inc. cycle          0

freq/Hz	Re(Z)/Ohm	-Im(Z)/Ohm	|Z|/Ohm	Phase(Z)/deg	time/s	<Ewe>/V	<I>/mA	Cs/µF	Cp/µF	cycle number	I Range	|Ewe|/V	|I|/A	Ns	(Q-Qo)/mA.h	<Ece>/V	|Ece|/V	Phase(Zce)/deg	|Zce|/Ohm	Re(Zce)/Ohm	-Im(Zce)/Ohm	Phase(Zwe-ce)/deg	|Zwe-ce|/Ohm	Re(Zwe-ce)/Ohm	-Im(Zwe-ce)/Ohm	Re(Y)/Ohm-1	Im(Y)/Ohm-1	|Y|/Ohm-1	Phase(Y)/deg	Re(C)/nF	Im(C)/nF	|C|/nF	Phase(C)/deg	Re(M)	Im(M)	|M|	Phase(M)/deg	Re(Permittivity)	Im(Permittivity)	|Permittivity|	Phase(Permittivity)/deg	Re(Resistivity)/Ohm.cm	Im(Resistivity)/Ohm.cm	|Resistivity|/Ohm.cm	Phase(Resistivity)/deg	Re(Conductivity)/mS/cm	Im(Conductivity)/mS/cm	|Conductivity|/mS/cm	Phase(Conductivity)/deg	Tan(Delta)	Loss Angle(Delta)/deg	dq/mA.h	Pwe/W	Pce/W	Pwe-ce/W	<Ewe-Ece>/V	Rwe/Ohm	Rce/Ohm	Rwe-ce/Ohm		Ewe-Ece/V
100004	1.22894	0.472784	1.31675	-21.0421	2.05456	0.256459	0.0670695	3.36621	0.433972	1	9	0.0049267	0.00374157	0	7.07025e-06	-0.000345672	5.35444e-05	70.28	0.0143107	0.00482876	-0.0134714	-20.4195	1.3165	1.23377	0.459312	0.708805	0.272683	0.759447	21.0421	433.972	1128.06	1208.65	-68.9579	0.0000000E+000	0.0000000E+000	0.0000000E+000	68.9579	0.0000000E+000	0.0000000E+000	0.0000000E+000	-68.9579	0.0000000E+000	0.0000000E+000	0.0000000E+000	-21.0421	0.0000000E+000	0.0000000E+000	0.0000000E+000	21.0421	2.59938	68.9579	7.07025e-06	1.72006e-05	-2.3184e-08	1.72238e-05	0.256805	3823.78	5.15393	3828.93
31621.1	1.65115	0.669719	1.7818	-22.0778	3.20552	0.256466	0.0655428	7.51536	1.06173	1	9	0.00538709	0.00302339	0	2.10728e-05	1.67614e-05	1.61018e-05	55.7259	0.00532575	0.00299921	-0.00440095	-21.9105	1.78294	1.65415	0.665318	0.520077	0.210947	0.561229	22.0778	1061.73	2617.64	2824.77	-67.9222	0.0000000E+000	0.0000000E+000	0.0000000E+000	67.9222	0.0000000E+000	0.0000000E+000	0.0000000E+000	-67.9222	0.0000000E+000	0.0000000E+000	0.0000000E+000	-22.0778	0.0000000E+000	0.0000000E+000	0.0000000E+000	22.0778	2.46544	67.9222	5.38164e-06	1.68095e-05	1.09859e-09	1.68084e-05	0.256449	3912.95	0.255732	3912.7
10002.2	2.17368	0.875604	2.34341	-21.9406	4.35454	0.256496	0.0672184	18.1726	2.53709	1	9	0.00526337	0.00224604	0	3.78117e-05	-0.000364747	3.6193e-06	28.2317	0.00161142	0.00141973	-0.000762261	-21.9104	2.34444	2.1751	0.874841	0.395822	0.159446	0.426729	21.9406	2537.09	6298.3	6790.1	-68.0594	0.0000000E+000	0.0000000E+000	0.0000000E+000	68.0594	0.0000000E+000	0.0000000E+000	0.0000000E+000	-68.0594	0.0000000E+000	0.0000000E+000	0.0000000E+000	-21.9406	0.0000000E+000	0.0000000E+000	0.0000000E+000	21.9406	2.48249	68.0594	4.12036e-06	1.72413e-05	-2.45177e-08	1.72658e-05	0.256861	3815.86	5.4263	3821.29
3163.08	2.83431	1.2345	3.09149	-23.5357	5.37667	0.256416	0.0365359	40.7587	6.49928	1	9	0.0054432	0.00176071	0	5.41021e-05	-9.76912e-05	8.36308e-06	-165.147	0.00474984	-0.00459113	0.00121761	-23.5905	3.08776	2.82972	1.23571	0.29656	0.129168	0.323469	23.5357	6499.27	14921.8	16275.8	-66.4643	0.0000000E+000	0.0000000E+000	0.0000000E+000	66.4643	0.0000000E+000	0.0000000E+000	0.0000000E+000	-66.4643	0.0000000E+000	0.0000000E+000	0.0000000E+000	-23.5357	0.0000000E+000	0.0000000E+000	0.0000000E+000	23.5357	2.29593	66.4643	4.67893e-06	9.36838e-06	-3.56923e-09	9.37195e-06	0.256514	7018.2	2.67384	7020.87
1000.32	3.77719	1.88818	4.22284	-26.5599	6.9748	0.25643	-0.0071246	84.2634	16.8467	1	10	0.00530893	0.00125719	0	5.81703e-05	-0.000441049	7.31427e-06	-14.287	0.00581794	0.005638	0.00143575	-26.5432	4.22853	3.78283	1.88961	0.211816	0.105885	0.236807	26.5599	16846.7	33700.8	37677	-63.4401	0.0000000E+000	0.0000000E+000	0.0000000E+000	63.4401	0.0000000E+000	0.0000000E+000	0.0000000E+000	-63.4401	0.0000000E+000	0.0000000E+000	0.0000000E+000	-26.5599	0.0000000E+000	0.0000000E+000	0.0000000E+000	26.5599	2.00045	63.4401	-1.49435e-06	-1.82696e-06	3.1423e-09	-1.8301e-06	0.256871	35992.1	61.905	36054
316.316	5.27313	3.16546	6.15029	-30.9764	8.32506	0.256425	-0.00814092	158.951	42.1061	1	10	0.00515179	0.000837649	0	5.65076e-05	-0.000173993	5.84596e-06	-111.711	0.00697901	-0.0025817	0.00648393	-31.0406	6.15142	5.27055	3.17195	0.139405	0.0836847	0.162594	30.9764	42106.1	70141.7	81809.5	-59.0236	0.0000000E+000	0.0000000E+000	0.0000000E+000	59.0236	0.0000000E+000	0.0000000E+000	0.0000000E+000	-59.0236	0.0000000E+000	0.0000000E+000	0.0000000E+000	-30.9764	0.0000000E+000	0.0000000E+000	0.0000000E+000	30.9764	1.66583	59.0236	-2.97603e-07	-2.08754e-06	1.41646e-09	-2.08896e-06	0.256599	31498.3	21.3726	31519.7
100.032	8.46958	4.88278	9.77626	-29.9638	9.67285	0.256425	-0.007482	325.847	81.2835	1	10	0.00511041	0.000522736	0	5.37002e-05	1.67614e-05	4.56161e-06	39.2609	0.00872641	0.00675662	-0.00552253	-29.916	9.77936	8.47634	4.87726	0.0886168	0.0510883	0.102289	29.9638	81283.5	140993	162745	-60.0362	0.0000000E+000	0.0000000E+000	0.0000000E+000	60.0362	0.0000000E+000	0.0000000E+000	0.0000000E+000	-60.0362	0.0000000E+000	0.0000000E+000	0.0000000E+000	-29.9638	0.0000000E+000	0.0000000E+000	0.0000000E+000	29.9638	1.73458	60.0362	-4.3635e-07	-1.91857e-06	-1.25409e-10	-1.91845e-06	0.256408	34272.2	2.24022	34270
[...]
1.00006	20.1118	1.84531	20.1962	-5.24236	19.7396	0.256465	-0.00304045	86243	719.98	1	12	0.00510525	0.000252782	0	3.49387e-05	-0.000231219	2.91269e-06	58.1142	0.0115225	0.00608654	-0.00978382	-5.21315	20.2014	20.1178	1.83552	0.0493071	0.00452406	0.0495142	5.24236	719980	7.84696e+06	7.87992e+06	-84.7576	0.0000000E+000	0.0000000E+000	0.0000000E+000	84.7576	0.0000000E+000	0.0000000E+000	0.0000000E+000	-84.7576	0.0000000E+000	0.0000000E+000	0.0000000E+000	-5.24236	0.0000000E+000	0.0000000E+000	0.0000000E+000	5.24236	10.8989	84.7576	-5.94209e-06	-7.79767e-07	7.03009e-10	-7.8047e-07	0.256696	84350.9	76.0477	84427
0.316193	20.9469	1.8398	21.0276	-5.01949	34.083	0.256459	-0.00273409	273588	2094.4	1	12	0.00510314	0.000242688	0	6.26116e-05	-2.31406e-06	2.36546e-06	8.04783	0.00974694	0.00965094	-0.00136457	-5.01349	21.0371	20.9566	1.83844	0.0473742	0.00416094	0.0475566	5.01949	2.0944e+06	2.38457e+07	2.39375e+07	-84.9805	0.0000000E+000	0.0000000E+000	0.0000000E+000	84.9805	0.0000000E+000	0.0000000E+000	0.0000000E+000	-84.9805	0.0000000E+000	0.0000000E+000	0.0000000E+000	-5.01949	0.0000000E+000	0.0000000E+000	0.0000000E+000	5.01949	11.3854	84.9805	1.45573e-05	-7.01183e-07	6.32684e-12	-7.01189e-07	0.256462	93800.6	0.846372	93801.5
0.0999041	21.9304	3.21461	22.1648	-8.33916	79.291	0.256472	0.000346695	495574	10424.1	1	12	0.00510321	0.00023024	0	5.81559e-06	-7.86157e-05	2.21776e-06	23.6251	0.0096324	0.00882508	-0.00386019	-8.32598	22.173	21.9393	3.21075	0.0446396	0.00654337	0.0451166	8.33916	1.04241e+07	7.11143e+07	7.18742e+07	-81.6608	0.0000000E+000	0.0000000E+000	0.0000000E+000	81.6608	0.0000000E+000	0.0000000E+000	0.0000000E+000	-81.6608	0.0000000E+000	0.0000000E+000	0.0000000E+000	-8.33916	0.0000000E+000	0.0000000E+000	0.0000000E+000	8.33916	6.82211	81.6608	-5.16323e-05	8.89177e-08	-2.72557e-11	8.8945e-08	0.256551	739763	226.758	739990
0.0315922	24.095	6.71004	25.0118	-15.5616	222.176	0.256463	-0.00291593	750785	54034.8	1	12	0.00510645	0.000204161	0	-0.000292572	-0.000154917	1.52199e-06	26.3312	0.00745484	0.00668136	-0.00330667	-15.5502	25.0174	24.1016	6.70673	0.0385155	0.0107259	0.0399811	15.5616	5.40348e+07	1.94033e+08	2.01416e+08	-74.4384	0.0000000E+000	0.0000000E+000	0.0000000E+000	74.4384	0.0000000E+000	0.0000000E+000	0.0000000E+000	-74.4384	0.0000000E+000	0.0000000E+000	0.0000000E+000	-15.5616	0.0000000E+000	0.0000000E+000	0.0000000E+000	15.5616	3.59089	74.4384	-8.46452e-05	-7.4783e-07	4.51729e-10	-7.48282e-07	0.256618	87952.4	53.1279	88005.5
0.0100092	28.1561	14.917	31.8635	-27.9145	673.4	0.256471	-0.00154996	1.06596e+06	233624	1	12	0.00510494	0.000160213	0	0.000366097	-0.000250295	2.42867e-06	18.9402	0.015159	0.0143383	-0.00492035	-27.8946	31.8739	28.1704	14.9121	0.0277323	0.0146925	0.0313839	27.9145	2.33624e+08	4.40968e+08	4.99032e+08	-62.0855	0.0000000E+000	0.0000000E+000	0.0000000E+000	62.0855	0.0000000E+000	0.0000000E+000	0.0000000E+000	-62.0855	0.0000000E+000	0.0000000E+000	0.0000000E+000	-27.9145	0.0000000E+000	0.0000000E+000	0.0000000E+000	27.9145	1.88752	62.0855	0.000343386	-3.97519e-07	3.87946e-10	-3.97907e-07	0.256721	165469	161.485	165631