Folder: EIS/txt (part 131)

File: 18817_R307_UA701_3p24_SOC00_C04.mpt
EC-Lab ASCII FILE
Nb header lines : 65

Potentio Electrochemical Impedance Spectroscopy

Run on channel : 4 (SN 66756)
User :
CE vs. WE compliance from -10 V to 10 V
Electrode connection : standard
Potential control : Ewe
Ewe ctrl range : min = -10.00 V, max = 10.00 V
Safety Limits :
	Do not start on E overload
Acquisition started on : 11/03/2025 16:08:50.134
Technique started on : 11/03/2025 16:08:51.914
Loaded Setting File :  C:\Users\Celltest\OneDrive - store-dot.com\Documents\EC-Lab\Data\@Biologic Test Protocols\anode half cell EIS SOC00.mps
Saved on :
	File : 18817_R307_UA701_3p24_SOC00_C04.mpr
	Directory : C:\Users\Celltest\OneDrive - store-dot.com\Documents\EC-Lab\Data\Anna\
	Host : 169.254.61.224
Device : VMP-3e (SN .003165)
Address : USB
EC-LAB for windows v11.62 (software)
Internet server v27.00 (firmware)
Command interpretor v12.03 (firmware)
Electrode material :
Initial state :
Electrolyte :
Comments :
Electrode surface area : 0.001 cm²
Characteristic mass : 0.001 g
Equivalent Weight : 0.000 g/eq.
Density : 0.000 g/cm3
Volume (V) : 0.001 cm³
Record Ece
Cycle Definition : Charge/Discharge alternance
Mode                Single sine
E (V)               0.0000
vs.                 Eoc
tE (h:m:s)          0:00:0.0000
record              0
dI                  0.000
unit dI             mA
dt (s)              0.000
fi                  100.000
unit fi             kHz
ff                  10.000
unit ff             mHz
Nd                  6
Points              per decade
spacing             Logarithmic
Va (mV)             5.0
pw                  0.10
Na                  2
corr                0
E range min (V)     -10.000
E range max (V)     10.000
I Range             Auto
Bandwidth           5
nc cycles           0
goto Ns'            0
nr cycles           0
inc. cycle          0

freq/Hz	Re(Z)/Ohm	-Im(Z)/Ohm	|Z|/Ohm	Phase(Z)/deg	time/s	<Ewe>/V	<I>/mA	Cs/µF	Cp/µF	cycle number	I Range	|Ewe|/V	|I|/A	Ns	(Q-Qo)/mA.h	<Ece>/V	|Ece|/V	Phase(Zce)/deg	|Zce|/Ohm	Re(Zce)/Ohm	-Im(Zce)/Ohm	Phase(Zwe-ce)/deg	|Zwe-ce|/Ohm	Re(Zwe-ce)/Ohm	-Im(Zwe-ce)/Ohm	Re(Y)/Ohm-1	Im(Y)/Ohm-1	|Y|/Ohm-1	Phase(Y)/deg	Re(C)/nF	Im(C)/nF	|C|/nF	Phase(C)/deg	Re(M)	Im(M)	|M|	Phase(M)/deg	Re(Permittivity)	Im(Permittivity)	|Permittivity|	Phase(Permittivity)/deg	Re(Resistivity)/Ohm.cm	Im(Resistivity)/Ohm.cm	|Resistivity|/Ohm.cm	Phase(Resistivity)/deg	Re(Conductivity)/mS/cm	Im(Conductivity)/mS/cm	|Conductivity|/mS/cm	Phase(Conductivity)/deg	Tan(Delta)	Loss Angle(Delta)/deg	dq/mA.h	Pwe/W	Pce/W	Pwe-ce/W	<Ewe-Ece>/V	Rwe/Ohm	Rce/Ohm	Rwe-ce/Ohm		Ewe-Ece/V
100004	1.48327	0.170462	1.49304	-6.55582	1.77954	0.246641	-0.0168437	9.33636	0.1217	1	9	0.00209157	0.00140088	0	-6.35509e-06	-0.000283041	2.83844e-05	48.6066	0.0202618	0.0133976	-0.0152002	-5.92256	1.5047	1.49667	0.155261	0.665397	0.0764691	0.669776	6.55582	121.7	1058.97	1065.94	-83.4442	0.0000000E+000	0.0000000E+000	0.0000000E+000	83.4442	0.0000000E+000	0.0000000E+000	0.0000000E+000	-83.4442	0.0000000E+000	0.0000000E+000	0.0000000E+000	-6.55582	0.0000000E+000	0.0000000E+000	0.0000000E+000	6.55582	8.70151	83.4442	-6.35509e-06	-4.15434e-06	4.76746e-09	-4.15911e-06	0.246924	14642.9	16.804	14659.7
31621.1	0.0333406	-0.319555	0.32129	84.0436	2.5766	0.246633	-0.0245643	-15.7506	-15.581	1	9	8.08598e-05	0.000251673	0	-8.07148e-06	-0.000149271	1.00746e-05	-2.34767	0.0400306	0.039997	0.00163978	77.0101	0.326264	0.0733376	-0.317915	0.322984	-3.09565	3.11246	-84.0436	-15581	1625.64	15665.6	-174.044	0.0000000E+000	0.0000000E+000	0.0000000E+000	174.044	0.0000000E+000	0.0000000E+000	0.0000000E+000	-174.044	0.0000000E+000	0.0000000E+000	0.0000000E+000	84.0436	0.0000000E+000	0.0000000E+000	0.0000000E+000	-84.0436	0.104335	5.95638	-9.20821e-07	-6.05837e-06	3.66674e-09	-6.06203e-06	0.246782	10040.3	6.07676	10046.4
10002.2	2.12339	0.6905	2.23284	-18.0139	4.45552	0.246623	-0.0284058	23.0441	2.2038	1	9	0.00512763	0.00229646	0	-5.37147e-05	-1.55017e-05	3.52729e-06	-95.8894	0.00153597	-0.000157604	0.00152786	-18.0524	2.23316	2.12323	0.692028	0.425907	0.1385	0.44786	18.0139	2203.8	6777.01	7126.33	-71.9861	0.0000000E+000	0.0000000E+000	0.0000000E+000	71.9861	0.0000000E+000	0.0000000E+000	0.0000000E+000	-71.9861	0.0000000E+000	0.0000000E+000	0.0000000E+000	-18.0139	0.0000000E+000	0.0000000E+000	0.0000000E+000	18.0139	3.07515	71.9861	-8.46859e-06	-7.00554e-06	4.40338e-10	-7.00598e-06	0.246639	8682.13	0.545722	8682.68
3163.08	2.64939	1.08108	2.86147	-22.1978	6.20867	0.246624	-0.0266902	46.5429	6.64338	1	9	0.00510571	0.0017843	0	-7.31495e-05	-0.000149271	1.30716e-05	155.768	0.00732589	-0.00668039	-0.00300683	-22.1926	2.85415	2.64271	1.07807	0.32357	0.132032	0.349471	22.1978	6643.38	16280.9	17584.1	-67.8022	0.0000000E+000	0.0000000E+000	0.0000000E+000	67.8022	0.0000000E+000	0.0000000E+000	0.0000000E+000	-67.8022	0.0000000E+000	0.0000000E+000	0.0000000E+000	-22.1978	0.0000000E+000	0.0000000E+000	0.0000000E+000	22.1978	2.4507	67.8022	-6.58307e-06	-6.58244e-06	3.98408e-09	-6.58642e-06	0.246773	9240.24	5.59274	9245.83
1000.32	3.4106	1.84825	3.8792	-28.4539	8.87785	0.246627	-0.00825711	86.0834	19.5415	1	10	0.00538731	0.00138877	0	-8.42977e-05	-0.000359481	6.27714e-06	-118.182	0.00451994	-0.00213468	0.00398409	-28.5207	3.87923	3.40846	1.85224	0.226645	0.122822	0.257785	28.4539	19541.5	36060.1	41014.6	-61.5461	0.0000000E+000	0.0000000E+000	0.0000000E+000	61.5461	0.0000000E+000	0.0000000E+000	0.0000000E+000	-61.5461	0.0000000E+000	0.0000000E+000	0.0000000E+000	-28.4539	0.0000000E+000	0.0000000E+000	0.0000000E+000	28.4539	1.84531	61.5461	-3.17758e-06	-2.03643e-06	2.96827e-09	-2.0394e-06	0.246987	29868.5	43.5359	29912
316.316	4.85694	3.57576	6.03125	-36.3611	10.6571	0.246617	-0.00923816	140.712	49.4599	1	10	0.00483878	0.000802286	0	-8.84708e-05	3.60827e-06	6.74476e-06	-32.5792	0.00840692	0.00708408	0.00452684	-36.3559	6.03964	4.86403	3.58029	0.133521	0.0983002	0.165803	36.3611	49459.9	67181.2	83424.2	-53.6389	0.0000000E+000	0.0000000E+000	0.0000000E+000	53.6389	0.0000000E+000	0.0000000E+000	0.0000000E+000	-53.6389	0.0000000E+000	0.0000000E+000	0.0000000E+000	-36.3611	0.0000000E+000	0.0000000E+000	0.0000000E+000	36.3611	1.3583	53.6389	-1.3745e-06	-2.27828e-06	-3.33338e-11	-2.27825e-06	0.246613	26695.4	0.390583	26695
100.032	8.65931	5.99602	10.5326	-34.7001	12.2168	0.246635	-0.00758197	265.349	85.9948	1	10	0.00485938	0.000461365	0	-9.15691e-05	-0.000225711	2.99101e-06	-69.2511	0.00648295	0.00229673	0.00606248	-34.7201	10.538	8.6616	6.00208	0.0780569	0.0540494	0.0949432	34.7001	85994.8	124192	151058	-55.2999	0.0000000E+000	0.0000000E+000	0.0000000E+000	55.2999	0.0000000E+000	0.0000000E+000	0.0000000E+000	-55.2999	0.0000000E+000	0.0000000E+000	0.0000000E+000	-34.7001	0.0000000E+000	0.0000000E+000	0.0000000E+000	34.7001	1.44418	55.2999	-1.2114e-06	-1.86998e-06	1.71134e-09	-1.87169e-06	0.246861	32529.1	29.7695	32558.9
[...]
1.00006	24.0191	2.88118	24.1913	-6.84017	22.265	0.246628	-0.00577201	55235.9	783.512	1	12	0.00474649	0.000196207	0	-0.000110129	0.000194708	3.07985e-06	-55.2117	0.015697	0.00895586	0.0128914	-6.86795	24.2017	24.028	2.89408	0.041043	0.00492327	0.0413372	6.84017	783512	6.53178e+06	6.5786e+06	-83.1598	0.0000000E+000	0.0000000E+000	0.0000000E+000	83.1598	0.0000000E+000	0.0000000E+000	0.0000000E+000	-83.1598	0.0000000E+000	0.0000000E+000	0.0000000E+000	-6.84017	0.0000000E+000	0.0000000E+000	0.0000000E+000	6.84017	8.33653	83.1598	-1.2342e-06	-1.42354e-06	-1.12386e-09	-1.42241e-06	0.246433	42728.2	33.7331	42694.5
0.316193	25.5909	2.50339	25.7131	-5.58708	36.6098	0.246638	-0.00324516	201066	1905.84	1	12	0.00474647	0.000184593	0	-0.000108241	-7.28316e-05	3.83494e-06	6.9419	0.0207751	0.0206228	-0.00251093	-5.57705	25.7334	25.6116	2.50088	0.0387059	0.00378634	0.0388907	5.58708	1.90584e+06	1.94825e+07	1.95755e+07	-84.4129	0.0000000E+000	0.0000000E+000	0.0000000E+000	84.4129	0.0000000E+000	0.0000000E+000	0.0000000E+000	-84.4129	0.0000000E+000	0.0000000E+000	0.0000000E+000	-5.58708	0.0000000E+000	0.0000000E+000	0.0000000E+000	5.58708	10.2225	84.4129	-4.62329e-06	-8.00379e-07	2.3635e-10	-8.00615e-07	0.24671	76001.6	22.4431	76024
0.0999041	26.9564	3.63741	27.2007	-7.68488	81.8169	0.246622	-0.00297275	437971	7831.92	1	12	0.00475182	0.000174695	0	-0.000234637	-1.55017e-05	2.28415e-06	8.07756	0.0130751	0.0129454	-0.00183722	-7.6774	27.2133	26.9694	3.63557	0.0364336	0.00491622	0.0367637	7.68488	7.83192e+06	5.80415e+07	5.85675e+07	-82.3151	0.0000000E+000	0.0000000E+000	0.0000000E+000	82.3151	0.0000000E+000	0.0000000E+000	0.0000000E+000	-82.3151	0.0000000E+000	0.0000000E+000	0.0000000E+000	-7.68488	0.0000000E+000	0.0000000E+000	0.0000000E+000	7.68488	7.41089	82.3151	-6.25404e-05	-7.33145e-07	4.60826e-11	-7.33191e-07	0.246637	82960.9	5.2146	82966.1
0.0315922	29.4848	7.85986	30.5145	-14.9264	224.7	0.246615	-0.00349709	640952	42524.9	1	12	0.00474699	0.000155565	0	-0.000304352	-0.000225711	2.92014e-06	21.1729	0.0187711	0.017504	-0.00677981	-14.9057	30.5296	29.5023	7.85308	0.0316656	0.00844118	0.0327713	14.9264	4.25249e+07	1.59524e+08	1.65095e+08	-75.0736	0.0000000E+000	0.0000000E+000	0.0000000E+000	75.0736	0.0000000E+000	0.0000000E+000	0.0000000E+000	-75.0736	0.0000000E+000	0.0000000E+000	0.0000000E+000	-14.9264	0.0000000E+000	0.0000000E+000	0.0000000E+000	14.9264	3.75132	75.0736	3.63128e-05	-8.62436e-07	7.89333e-10	-8.63226e-07	0.246841	70520	64.5425	70584.5
0.0100092	35.1406	17.5537	39.281	-26.5434	675.922	0.246621	-0.00168709	905844	180895	1	12	0.00474629	0.000120829	0	-8.17386e-05	9.9158e-05	3.97095e-06	-2.56859	0.0328641	0.0328311	0.00147282	-26.5239	39.311	35.1734	17.5552	0.0227743	0.0113764	0.0254576	26.5434	1.80895e+08	3.62132e+08	4.04799e+08	-63.4566	0.0000000E+000	0.0000000E+000	0.0000000E+000	63.4566	0.0000000E+000	0.0000000E+000	0.0000000E+000	-63.4566	0.0000000E+000	0.0000000E+000	0.0000000E+000	-26.5434	0.0000000E+000	0.0000000E+000	0.0000000E+000	26.5434	2.00189	63.4566	-3.17654e-05	-4.16072e-07	-1.67289e-10	-4.15904e-07	0.246522	146181	58.7746	146122

File: 18818_R307_UA701_3p24_SOC00_C05.mpt
EC-Lab ASCII FILE
Nb header lines : 65

Potentio Electrochemical Impedance Spectroscopy

Run on channel : 5 (SN 65912)
User :
CE vs. WE compliance from -10 V to 10 V
Electrode connection : standard
Potential control : Ewe
Ewe ctrl range : min = -10.00 V, max = 10.00 V
Safety Limits :
	Do not start on E overload
Acquisition started on : 11/03/2025 16:08:58.360
Technique started on : 11/03/2025 16:09:00.086
Loaded Setting File :  C:\Users\Celltest\OneDrive - store-dot.com\Documents\EC-Lab\Data\@Biologic Test Protocols\anode half cell EIS SOC00.mps
Saved on :
	File : 18818_R307_UA701_3p24_SOC00_C05.mpr
	Directory : C:\Users\Celltest\OneDrive - store-dot.com\Documents\EC-Lab\Data\Anna\
	Host : 169.254.61.224
Device : VMP-3e (SN .003165)
Address : USB
EC-LAB for windows v11.62 (software)
Internet server v27.00 (firmware)
Command interpretor v12.03 (firmware)
Electrode material :
Initial state :
Electrolyte :
Comments :
Electrode surface area : 0.001 cm²
Characteristic mass : 0.001 g
Equivalent Weight : 0.000 g/eq.
Density : 0.000 g/cm3
Volume (V) : 0.001 cm³
Record Ece
Cycle Definition : Charge/Discharge alternance
Mode                Single sine
E (V)               0.0000
vs.                 Eoc
tE (h:m:s)          0:00:0.0000
record              0
dI                  0.000
unit dI             mA
dt (s)              0.000
fi                  100.000
unit fi             kHz
ff                  10.000
unit ff             mHz
Nd                  6
Points              per decade
spacing             Logarithmic
Va (mV)             5.0
pw                  0.10
Na                  2
corr                0
E range min (V)     -10.000
E range max (V)     10.000
I Range             Auto
Bandwidth           5
nc cycles           0
goto Ns'            0
nr cycles           0
inc. cycle          0

freq/Hz	Re(Z)/Ohm	-Im(Z)/Ohm	|Z|/Ohm	Phase(Z)/deg	time/s	<Ewe>/V	<I>/mA	Cs/µF	Cp/µF	cycle number	I Range	|Ewe|/V	|I|/A	Ns	(Q-Qo)/mA.h	<Ece>/V	|Ece|/V	Phase(Zce)/deg	|Zce|/Ohm	Re(Zce)/Ohm	-Im(Zce)/Ohm	Phase(Zwe-ce)/deg	|Zwe-ce|/Ohm	Re(Zwe-ce)/Ohm	-Im(Zwe-ce)/Ohm	Re(Y)/Ohm-1	Im(Y)/Ohm-1	|Y|/Ohm-1	Phase(Y)/deg	Re(C)/nF	Im(C)/nF	|C|/nF	Phase(C)/deg	Re(M)	Im(M)	|M|	Phase(M)/deg	Re(Permittivity)	Im(Permittivity)	|Permittivity|	Phase(Permittivity)/deg	Re(Resistivity)/Ohm.cm	Im(Resistivity)/Ohm.cm	|Resistivity|/Ohm.cm	Phase(Resistivity)/deg	Re(Conductivity)/mS/cm	Im(Conductivity)/mS/cm	|Conductivity|/mS/cm	Phase(Conductivity)/deg	Tan(Delta)	Loss Angle(Delta)/deg	dq/mA.h	Pwe/W	Pce/W	Pwe-ce/W	<Ewe-Ece>/V	Rwe/Ohm	Rce/Ohm	Rwe-ce/Ohm		Ewe-Ece/V
100004	1.12162	0.425391	1.19958	-20.77	1.72552	0.244565	-0.0218813	3.74124	0.470474	1	9	0.00462115	0.00385232	0	-8.81631e-06	-3.27544e-06	3.83371e-05	87.478	0.00995171	0.000437907	-0.00994207	-20.3174	1.1965	1.12206	0.415449	0.779451	0.295618	0.833627	20.77	470.474	1240.49	1326.71	-69.23	0.0000000E+000	0.0000000E+000	0.0000000E+000	69.23	0.0000000E+000	0.0000000E+000	0.0000000E+000	-69.23	0.0000000E+000	0.0000000E+000	0.0000000E+000	-20.77	0.0000000E+000	0.0000000E+000	0.0000000E+000	20.77	2.63668	69.23	-8.81631e-06	-5.3514e-06	7.16708e-11	-5.35147e-06	0.244569	11176.9	0.149692	11177.1
31621.1	1.50272	0.604512	1.61976	-21.9138	3.24656	0.244524	-0.0202055	8.32603	1.15971	1	9	0.00509592	0.0031461	0	-5.67016e-06	0.000225819	1.2308e-05	66.4835	0.00391214	0.001561	-0.00358722	-21.7755	1.61987	1.50428	0.600925	0.572769	0.230412	0.617377	21.9138	1159.71	2882.85	3107.37	-68.0862	0.0000000E+000	0.0000000E+000	0.0000000E+000	68.0862	0.0000000E+000	0.0000000E+000	0.0000000E+000	-68.0862	0.0000000E+000	0.0000000E+000	0.0000000E+000	-21.9138	0.0000000E+000	0.0000000E+000	0.0000000E+000	21.9138	2.48585	68.0862	1.10521e-05	-4.94073e-06	-4.56279e-09	-4.93617e-06	0.244298	12101.9	11.1761	12090.7
10002.2	1.97103	0.825785	2.13703	-22.7318	4.14956	0.244536	-0.0178966	19.2689	2.8772	1	9	0.00493419	0.0023089	0	-3.19037e-06	-2.23667e-05	6.87876e-06	-152.717	0.00297924	-0.0026478	0.00136564	-22.793	2.13511	1.96838	0.827151	0.431592	0.18082	0.46794	22.7318	2877.2	6867.47	7445.83	-67.2682	0.0000000E+000	0.0000000E+000	0.0000000E+000	67.2682	0.0000000E+000	0.0000000E+000	0.0000000E+000	-67.2682	0.0000000E+000	0.0000000E+000	0.0000000E+000	-22.7318	0.0000000E+000	0.0000000E+000	0.0000000E+000	22.7318	2.38686	67.2682	-2.2618e-06	-4.37637e-06	4.00288e-10	-4.37677e-06	0.244558	13663.8	1.24977	13665
3163.08	2.6	1.20976	2.86767	-24.9521	5.04862	0.244298	-0.0879075	41.5922	7.402	1	9	0.00452142	0.00157669	0	-1.72659e-05	-7.96403e-05	9.53048e-06	32.7939	0.00604463	0.00508126	-0.00327388	-24.8501	2.8709	2.60509	1.20648	0.316166	0.147109	0.348715	24.9521	7402	15908.4	17546.1	-65.0479	0.0000000E+000	0.0000000E+000	0.0000000E+000	65.0479	0.0000000E+000	0.0000000E+000	0.0000000E+000	-65.0479	0.0000000E+000	0.0000000E+000	0.0000000E+000	-24.9521	0.0000000E+000	0.0000000E+000	0.0000000E+000	24.9521	2.1492	65.0479	-7.89918e-06	-2.14756e-05	7.00098e-09	-2.14827e-05	0.244378	2779.04	0.905956	2779.94
1000.32	3.41276	1.94353	3.92738	-29.6611	6.8618	0.244444	-0.0231729	81.8632	20.0479	1	10	0.00488857	0.00124474	0	-1.72865e-05	-0.00023237	5.40946e-06	-46.3665	0.00434585	0.00299883	0.00314539	-29.6793	3.93154	3.41576	1.94668	0.221259	0.126005	0.254623	29.6611	20047.9	35203.2	40511.5	-60.3389	0.0000000E+000	0.0000000E+000	0.0000000E+000	60.3389	0.0000000E+000	0.0000000E+000	0.0000000E+000	-60.3389	0.0000000E+000	0.0000000E+000	0.0000000E+000	-29.6611	0.0000000E+000	0.0000000E+000	0.0000000E+000	29.6611	1.75596	60.3389	-1.794e-06	-5.66448e-06	5.38469e-09	-5.66986e-06	0.244676	10548.7	10.0277	10558.7
316.316	4.93164	3.6448	6.13234	-36.4668	8.21209	0.244444	-0.0228378	138.047	48.7663	1	10	0.00478257	0.000779892	0	-2.5248e-05	9.21806e-05	6.30266e-06	-64.5776	0.00808145	0.00346927	0.00729891	-36.5023	6.13947	4.93511	3.6521	0.131141	0.0969217	0.16307	36.4668	48766.3	65983.9	82048.9	-53.5332	0.0000000E+000	0.0000000E+000	0.0000000E+000	53.5332	0.0000000E+000	0.0000000E+000	0.0000000E+000	-53.5332	0.0000000E+000	0.0000000E+000	0.0000000E+000	-36.4668	0.0000000E+000	0.0000000E+000	0.0000000E+000	36.4668	1.35306	53.5332	-2.62447e-06	-5.58258e-06	-2.1052e-09	-5.58047e-06	0.244352	10703.5	4.03632	10699.5
100.032	8.82359	6.05623	10.702	-34.4644	9.55883	0.244456	-0.0212665	262.711	84.1299	1	10	0.00477227	0.000445921	0	-3.20264e-05	-0.00023237	2.88587e-05	-41.693	0.064717	0.0483254	0.0430459	-34.5078	10.7662	8.87192	6.09927	0.0770393	0.0528773	0.0934401	34.4644	84129.9	122573	148667	-55.5356	0.0000000E+000	0.0000000E+000	0.0000000E+000	55.5356	0.0000000E+000	0.0000000E+000	0.0000000E+000	-55.5356	0.0000000E+000	0.0000000E+000	0.0000000E+000	-34.4644	0.0000000E+000	0.0000000E+000	0.0000000E+000	34.4644	1.45695	55.5356	-2.98732e-06	-5.19874e-06	4.94171e-09	-5.20368e-06	0.244689	11494.9	10.9266	11505.8
[...]
1.00006	23.9841	2.71476	24.1373	-6.45782	19.607	0.244479	-0.00665735	58622	741.561	1	12	0.00475896	0.000197162	0	-7.06243e-05	0.000225819	2.69557e-06	1.80188	0.0136719	0.0136651	-0.000429893	-6.45316	24.1508	23.9978	2.71433	0.0411668	0.00465966	0.0414297	6.45782	741561	6.55148e+06	6.59331e+06	-83.5422	0.0000000E+000	0.0000000E+000	0.0000000E+000	83.5422	0.0000000E+000	0.0000000E+000	0.0000000E+000	-83.5422	0.0000000E+000	0.0000000E+000	0.0000000E+000	-6.45782	0.0000000E+000	0.0000000E+000	0.0000000E+000	6.45782	8.83471	83.5422	-1.20848e-05	-1.62759e-06	-1.50336e-09	-1.62608e-06	0.244254	36723.2	33.9203	36689.3
0.316193	25.4062	2.42672	25.5218	-5.45618	33.949	0.244483	-0.00652411	207418	1875.28	1	12	0.00475921	0.000186476	0	-7.43432e-05	-0.000366009	2.18376e-06	49.249	0.0117107	0.0076444	-0.00887145	-5.43473	25.5286	25.4138	2.41785	0.0390047	0.00372562	0.0391822	5.45618	1.87528e+06	1.96329e+07	1.97223e+07	-84.5438	0.0000000E+000	0.0000000E+000	0.0000000E+000	84.5438	0.0000000E+000	0.0000000E+000	0.0000000E+000	-84.5438	0.0000000E+000	0.0000000E+000	0.0000000E+000	-5.45618	0.0000000E+000	0.0000000E+000	0.0000000E+000	5.45618	10.4693	84.5438	4.3862e-06	-1.59503e-06	2.38788e-09	-1.59742e-06	0.244849	37473.7	56.1009	37529.8
0.0999041	26.8212	3.67636	27.072	-7.80484	79.157	0.24448	-0.0023137	433330	7991.24	1	12	0.00476166	0.000175889	0	-9.70858e-05	-0.000213279	2.24719e-06	-23.1701	0.0127762	0.0117457	0.00502695	-7.81201	27.0843	26.833	3.68139	0.0365964	0.00501623	0.0369385	7.80484	7.99124e+06	5.83008e+07	5.8846e+07	-82.1952	0.0000000E+000	0.0000000E+000	0.0000000E+000	82.1952	0.0000000E+000	0.0000000E+000	0.0000000E+000	-82.1952	0.0000000E+000	0.0000000E+000	0.0000000E+000	-7.80484	0.0000000E+000	0.0000000E+000	0.0000000E+000	7.80484	7.29559	82.1952	-2.74315e-05	-5.65655e-07	4.93464e-10	-5.66148e-07	0.244694	105666	92.1807	105758
0.0315922	29.4525	7.64728	30.4291	-14.5553	222.041	0.244474	-0.00286405	658769	41607.3	1	12	0.00476399	0.00015656	0	-0.000458722	0.000111272	1.63044e-06	12.9059	0.0104141	0.010151	-0.002326	-14.5463	30.4383	29.4626	7.64495	0.0318086	0.00825904	0.0328633	14.5553	4.16073e+07	1.60245e+08	1.65559e+08	-75.4447	0.0000000E+000	0.0000000E+000	0.0000000E+000	75.4447	0.0000000E+000	0.0000000E+000	0.0000000E+000	-75.4447	0.0000000E+000	0.0000000E+000	0.0000000E+000	-14.5553	0.0000000E+000	0.0000000E+000	0.0000000E+000	14.5553	3.85137	75.4447	-0.000165645	-7.00185e-07	-3.18689e-10	-6.99867e-07	0.244362	85359.3	38.8512	85320.4
0.0100092	34.696	17.4034	38.8161	-26.6382	673.264	0.244478	-0.00267546	913668	183668	1	12	0.00476178	0.000122676	0	-0.000378313	-6.05491e-05	1.74679e-06	49.4597	0.0142391	0.00925515	-0.010821	-26.6178	38.8195	34.7052	17.3926	0.023028	0.0115508	0.0257625	26.6382	1.83668e+08	3.66166e+08	4.09648e+08	-63.3618	0.0000000E+000	0.0000000E+000	0.0000000E+000	63.3618	0.0000000E+000	0.0000000E+000	0.0000000E+000	-63.3618	0.0000000E+000	0.0000000E+000	0.0000000E+000	-26.6382	0.0000000E+000	0.0000000E+000	0.0000000E+000	26.6382	1.99363	63.3618	0.000188423	-6.54091e-07	1.61996e-10	-6.54253e-07	0.244539	91378.1	22.6313	91400.7