Folder: EIS/txt (part 127)

File: 18805_R307_UC93_28_SOC50_C02.mpt
EC-Lab ASCII FILE
Nb header lines : 65

Potentio Electrochemical Impedance Spectroscopy

Run on channel : 2 (SN 66139)
Grouped channel(s) : 1, 2, 3, 4, 5
User :
CE vs. WE compliance from -10 V to 10 V
Electrode connection : standard
Potential control : Ewe
Ewe ctrl range : min = -10.00 V, max = 10.00 V
Safety Limits :
	Do not start on E overload
Acquisition started on : 11/05/2025 08:59:28.513
Loaded Setting File :  C:\Users\Celltest\OneDrive - store-dot.com\Documents\EC-Lab\Data\@Biologic Test Protocols\cathode half cell EIS SOC50.mps
Saved on :
	File : 18804_R307_UC93_28_SOC00_C02.mpr
	Directory : C:\Users\Celltest\OneDrive - store-dot.com\Documents\EC-Lab\Data\Anna\
	Host : 169.254.61.224
Device : VMP-3e (SN .003165)
Address : USB
EC-LAB for windows v11.62 (software)
Internet server v27.00 (firmware)
Command interpretor v12.03 (firmware)
Electrode material :
Initial state :
Electrolyte :
Comments :
Electrode surface area : 0.001 cm²
Characteristic mass : 0.001 g
Equivalent Weight : 0.000 g/eq.
Density : 0.000 g/cm3
Volume (V) : 0.001 cm³
Record Ece
Cycle Definition : Charge/Discharge alternance
Mode                Multi sine
E (V)               0.0000
vs.                 Eoc
tE (h:m:s)          0:00:0.0000
record              0
dI                  0.000
unit dI             mA
dt (s)              0.000
fi                  1.000
unit fi             MHz
ff                  0.100
unit ff             mHz
Nd                  10
Points              per decade
spacing             Logarithmic
Va (mV)             5.0
pw                  0.10
Na                  2
corr                0
E range min (V)     -10.000
E range max (V)     10.000
I Range             Auto
Bandwidth           5
nc cycles           0
goto Ns'            0
nr cycles           0
inc. cycle          0

freq/Hz	Re(Z)/Ohm	-Im(Z)/Ohm	|Z|/Ohm	Phase(Z)/deg	time/s	<Ewe>/V	<I>/mA	Cs/µF	Cp/µF	cycle number	I Range	|Ewe|/V	|I|/A	Ns	(Q-Qo)/mA.h	<Ece>/V	|Ece|/V	Phase(Zce)/deg	|Zce|/Ohm	Re(Zce)/Ohm	-Im(Zce)/Ohm	Phase(Zwe-ce)/deg	|Zwe-ce|/Ohm	Re(Zwe-ce)/Ohm	-Im(Zwe-ce)/Ohm	Re(Y)/Ohm-1	Im(Y)/Ohm-1	|Y|/Ohm-1	Phase(Y)/deg	Re(C)/nF	Im(C)/nF	|C|/nF	Phase(C)/deg	Re(M)	Im(M)	|M|	Phase(M)/deg	Re(Permittivity)	Im(Permittivity)	|Permittivity|	Phase(Permittivity)/deg	Re(Resistivity)/Ohm.cm	Im(Resistivity)/Ohm.cm	|Resistivity|/Ohm.cm	Phase(Resistivity)/deg	Re(Conductivity)/mS/cm	Im(Conductivity)/mS/cm	|Conductivity|/mS/cm	Phase(Conductivity)/deg	Tan(Delta)	Loss Angle(Delta)/deg	dq/mA.h	Pwe/W	Pce/W	Pwe-ce/W	<Ewe-Ece>/V	Rwe/Ohm	Rce/Ohm	Rwe-ce/Ohm		Ewe-Ece/V
1.00002e+06	2.83063	2.37224	3.69324	-39.965	2.23455	3.9713	-0.041875	0.0670894	0.0276794	1	10	0.000245417	6.64504e-05	0	-1.36003e-05	0.000121951	0.000179248	-66.2655	2.69747	1.08573	2.46932	-51.0304	6.22724	3.91636	4.84156	0.207525	0.173918	0.270765	39.965	27.6794	33.0279	43.0928	-50.035	0.0000000E+000	0.0000000E+000	0.0000000E+000	50.035	0.0000000E+000	0.0000000E+000	0.0000000E+000	-50.035	0.0000000E+000	0.0000000E+000	0.0000000E+000	-39.965	0.0000000E+000	0.0000000E+000	0.0000000E+000	39.965	1.19323	50.035	-1.36003e-05	-0.000166298	-5.1067e-09	-0.000166293	3.97117	94837	2.91227	94834.1
251206	1.95804	0.511575	2.02377	-14.6423	4.81353	3.97123	-0.0451398	1.23846	0.0791366	1	9	0.00524169	0.00259006	0	-4.96371e-05	8.37695e-05	2.4089e-05	103.595	0.00930053	-0.00218621	-0.00903993	-14.4098	2.01938	1.95586	0.502535	0.47808	0.124907	0.494128	14.6423	79.1366	302.894	313.061	-75.3577	0.0000000E+000	0.0000000E+000	0.0000000E+000	75.3577	0.0000000E+000	0.0000000E+000	0.0000000E+000	-75.3577	0.0000000E+000	0.0000000E+000	0.0000000E+000	-14.6423	0.0000000E+000	0.0000000E+000	0.0000000E+000	14.6423	3.82748	75.3577	-5.33362e-06	-0.000179261	-3.78133e-09	-0.000179257	3.97115	87976.4	1.85578	87974.6
63093.8	2.67455	1.16706	2.91809	-23.5745	7.23554	3.97115	-0.0189559	2.16142	0.345725	1	9	0.00548447	0.00187948	0	-4.83089e-05	7.4061e-06	1.00242e-05	77.3008	0.00533352	0.00117248	-0.00520305	-23.4716	2.91709	2.67572	1.16186	0.31409	0.137056	0.34269	23.5745	345.725	792.295	864.44	-66.4255	0.0000000E+000	0.0000000E+000	0.0000000E+000	66.4255	0.0000000E+000	0.0000000E+000	0.0000000E+000	-66.4255	0.0000000E+000	0.0000000E+000	0.0000000E+000	-23.5745	0.0000000E+000	0.0000000E+000	0.0000000E+000	23.5745	2.29169	66.4255	2.45295e-06	-7.52767e-05	-1.40389e-10	-7.52766e-05	3.97114	209494	0.390701	209494
15847.7	3.96808	1.97769	4.43362	-26.4917	9.41356	3.97113	-0.0373554	5.07803	1.01041	1	9	0.00457495	0.00103188	0	-6.36383e-05	0.000293769	6.54627e-06	-53.0519	0.00634405	0.00381335	0.00507004	-26.5283	4.43929	3.9719	1.98276	0.201867	0.10061	0.225549	26.4917	1010.41	2027.3	2265.15	-63.5083	0.0000000E+000	0.0000000E+000	0.0000000E+000	63.5083	0.0000000E+000	0.0000000E+000	0.0000000E+000	-63.5083	0.0000000E+000	0.0000000E+000	0.0000000E+000	-26.4917	0.0000000E+000	0.0000000E+000	0.0000000E+000	26.4917	2.00642	63.5083	-2.80105e-06	-0.000148343	-1.09739e-08	-0.000148332	3.97084	106307	7.86416	106299
3983.6	5.92993	3.04991	6.66829	-27.2179	11.2911	3.97109	-0.042769	13.0996	2.74033	1	10	0.00476871	0.000715133	0	-8.01138e-05	0.000160133	4.91344e-06	8.40808	0.00687067	0.00679682	-0.00100465	-27.1835	6.67387	5.93673	3.04891	0.133359	0.0685896	0.149964	27.2179	2740.33	5328.02	5991.42	-62.7821	0.0000000E+000	0.0000000E+000	0.0000000E+000	62.7821	0.0000000E+000	0.0000000E+000	0.0000000E+000	-62.7821	0.0000000E+000	0.0000000E+000	0.0000000E+000	-27.2179	0.0000000E+000	0.0000000E+000	0.0000000E+000	27.2179	1.9443	62.7821	-2.64183e-06	-0.00016984	-6.84872e-09	-0.000169833	3.97093	92849.8	3.74413	92846.1
1000.32	9.04671	5.15648	10.4131	-29.6824	13.9198	3.97112	-0.0174189	30.8552	7.56616	1	10	0.00459036	0.000440826	0	-9.27853e-05	-0.000145321	8.68414e-06	4.10425	0.0196997	0.0196492	-0.00140994	-29.6222	10.4295	9.06636	5.15507	0.0834319	0.0475548	0.0960331	29.6824	7566.16	13274.4	15279.2	-60.3176	0.0000000E+000	0.0000000E+000	0.0000000E+000	60.3176	0.0000000E+000	0.0000000E+000	0.0000000E+000	-60.3176	0.0000000E+000	0.0000000E+000	0.0000000E+000	-29.6824	0.0000000E+000	0.0000000E+000	0.0000000E+000	29.6824	1.75444	60.3176	-2.41606e-06	-6.91726e-05	2.53132e-09	-6.91751e-05	3.97127	227978	8.34271	227986
251.044	15.3132	8.07085	17.3099	-27.7916	16.621	3.97112	-0.0153626	78.5507	17.0766	1	10	0.00455487	0.000263137	0	-0.000104388	-6.89573e-05	5.84621e-06	-12.5724	0.0222174	0.0216846	0.00483612	-27.7723	17.3313	15.3348	8.07569	0.0511066	0.0269359	0.0577705	27.7916	17076.6	32400.1	36624.8	-62.2084	0.0000000E+000	0.0000000E+000	0.0000000E+000	62.2084	0.0000000E+000	0.0000000E+000	0.0000000E+000	-62.2084	0.0000000E+000	0.0000000E+000	0.0000000E+000	-27.7916	0.0000000E+000	0.0000000E+000	0.0000000E+000	27.7916	1.89734	62.2084	-2.06996e-06	-6.10066e-05	1.05936e-09	-6.10077e-05	3.97119	258493	4.48866	258498
[...]
0.0602816	34.9641	4.69712	35.2781	-7.65139	240.889	3.97114	-0.0114564	562087	9964.49	1	11	0.00499823	0.000141681	0	-0.00148979	4.55878e-05	5.69991e-07	76.9179	0.00402306	0.000910606	-0.00391865	-7.64488	35.2785	34.965	4.6932	0.0280938	0.00377416	0.0283462	7.65139	9.96449e+06	7.41729e+07	7.48392e+07	-82.3486	0.0000000E+000	0.0000000E+000	0.0000000E+000	82.3486	0.0000000E+000	0.0000000E+000	0.0000000E+000	-82.3486	0.0000000E+000	0.0000000E+000	0.0000000E+000	-7.65139	0.0000000E+000	0.0000000E+000	0.0000000E+000	7.65139	7.44372	82.3486	0.000000000000000E+000	-4.5495e-05	-5.22272e-10	-4.54944e-05	3.97109	346631	3.97924	346627
0.00796479	45.4609	11.2058	46.8216	-13.847	20329.8	3.97116	-0.000889687	1.78321e+06	102140	1	11	0.00499369	0.000106654	0	-0.0181369	-8.80481e-05	8.54806e-08	-28.5038	0.000801479	0.000704328	0.00038248	-13.8472	46.8224	45.4616	11.2062	0.020737	0.00511152	0.0213577	13.847	1.0214e+08	4.14373e+08	4.26776e+08	-76.153	0.0000000E+000	0.0000000E+000	0.0000000E+000	76.153	0.0000000E+000	0.0000000E+000	0.0000000E+000	-76.153	0.0000000E+000	0.0000000E+000	0.0000000E+000	-13.847	0.0000000E+000	0.0000000E+000	0.0000000E+000	13.847	4.05691	76.153	-0.0166471	-3.53309e-06	7.83353e-11	-3.53317e-06	3.97125	4.46354e+06	98.9653	4.46364e+06
0.0019912	57.7011	17.2226	60.2165	-16.6193	20329.8	3.97116	-0.000889687	4.64095e+06	379641	1	11	0.00500662	8.31436e-05	0	-0.0181369	-8.80481e-05	4.96964e-07	9.73457	0.00597717	0.00589111	-0.00101065	-16.6168	60.2219	57.7069	17.2216	0.015913	0.00474972	0.0166067	16.6193	3.79641e+08	1.27192e+09	1.32736e+09	-73.3807	0.0000000E+000	0.0000000E+000	0.0000000E+000	73.3807	0.0000000E+000	0.0000000E+000	0.0000000E+000	-73.3807	0.0000000E+000	0.0000000E+000	0.0000000E+000	-16.6193	0.0000000E+000	0.0000000E+000	0.0000000E+000	16.6193	3.35031	73.3807	0.000000000000000E+000	-3.53309e-06	7.83353e-11	-3.53317e-06	3.97125	4.46354e+06	98.9653	4.46364e+06
0.000497799	68.7009	22.0283	72.1461	-17.778	20329.8	3.97116	-0.000889687	1.45139e+07	1.35307e+06	1	11	0.00500648	6.93936e-05	0	-0.0181369	-8.80481e-05	7.75975e-07	-18.3264	0.0111822	0.0106151	0.00351603	-17.778	72.1573	68.7115	22.0318	0.0131989	0.00423209	0.0138608	17.778	1.35307e+09	4.21991e+09	4.43152e+09	-72.222	0.0000000E+000	0.0000000E+000	0.0000000E+000	72.222	0.0000000E+000	0.0000000E+000	0.0000000E+000	-72.222	0.0000000E+000	0.0000000E+000	0.0000000E+000	-17.778	0.0000000E+000	0.0000000E+000	0.0000000E+000	17.778	3.11876	72.222	0.000000000000000E+000	-3.53309e-06	7.83353e-11	-3.53317e-06	3.97125	4.46354e+06	98.9653	4.46364e+06
9.95598e-05	84.8304	83.9908	119.376	-44.7151	20329.8	3.97116	-0.000889687	1.90329e+07	9.42178e+06	1	11	0.00500958	4.19647e-05	0	-0.0181369	-8.80481e-05	4.40016e-07	4.07654	0.0104854	0.0104589	-0.000745398	-44.7113	119.383	84.8409	83.9901	0.00595273	0.00589382	0.00837688	44.7151	9.42178e+09	9.51596e+09	1.33912e+10	-45.2849	0.0000000E+000	0.0000000E+000	0.0000000E+000	45.2849	0.0000000E+000	0.0000000E+000	0.0000000E+000	-45.2849	0.0000000E+000	0.0000000E+000	0.0000000E+000	-44.7151	0.0000000E+000	0.0000000E+000	0.0000000E+000	44.7151	1.01	45.2849	0.000000000000000E+000	-3.53309e-06	7.83353e-11	-3.53317e-06	3.97125	4.46354e+06	98.9653	4.46364e+06

File: 18806_R307_UC93_28_SOC50_C03.mpt
EC-Lab ASCII FILE
Nb header lines : 65

Potentio Electrochemical Impedance Spectroscopy

Run on channel : 3 (SN 65921)
Grouped channel(s) : 1, 2, 3, 4, 5
User :
CE vs. WE compliance from -10 V to 10 V
Electrode connection : standard
Potential control : Ewe
Ewe ctrl range : min = -10.00 V, max = 10.00 V
Safety Limits :
	Do not start on E overload
Acquisition started on : 11/05/2025 08:59:28.513
Loaded Setting File :  C:\Users\Celltest\OneDrive - store-dot.com\Documents\EC-Lab\Data\@Biologic Test Protocols\cathode half cell EIS SOC50.mps
Saved on :
	File : 18804_R307_UC93_28_SOC00_C03.mpr
	Directory : C:\Users\Celltest\OneDrive - store-dot.com\Documents\EC-Lab\Data\Anna\
	Host : 169.254.61.224
Device : VMP-3e (SN .003165)
Address : USB
EC-LAB for windows v11.62 (software)
Internet server v27.00 (firmware)
Command interpretor v12.03 (firmware)
Electrode material :
Initial state :
Electrolyte :
Comments :
Electrode surface area : 0.001 cm²
Characteristic mass : 0.001 g
Equivalent Weight : 0.000 g/eq.
Density : 0.000 g/cm3
Volume (V) : 0.001 cm³
Record Ece
Cycle Definition : Charge/Discharge alternance
Mode                Multi sine
E (V)               0.0000
vs.                 Eoc
tE (h:m:s)          0:00:0.0000
record              0
dI                  0.000
unit dI             mA
dt (s)              0.000
fi                  1.000
unit fi             MHz
ff                  0.100
unit ff             mHz
Nd                  10
Points              per decade
spacing             Logarithmic
Va (mV)             5.0
pw                  0.10
Na                  2
corr                0
E range min (V)     -10.000
E range max (V)     10.000
I Range             Auto
Bandwidth           5
nc cycles           0
goto Ns'            0
nr cycles           0
inc. cycle          0

freq/Hz	Re(Z)/Ohm	-Im(Z)/Ohm	|Z|/Ohm	Phase(Z)/deg	time/s	<Ewe>/V	<I>/mA	Cs/µF	Cp/µF	cycle number	I Range	|Ewe|/V	|I|/A	Ns	(Q-Qo)/mA.h	<Ece>/V	|Ece|/V	Phase(Zce)/deg	|Zce|/Ohm	Re(Zce)/Ohm	-Im(Zce)/Ohm	Phase(Zwe-ce)/deg	|Zwe-ce|/Ohm	Re(Zwe-ce)/Ohm	-Im(Zwe-ce)/Ohm	Re(Y)/Ohm-1	Im(Y)/Ohm-1	|Y|/Ohm-1	Phase(Y)/deg	Re(C)/nF	Im(C)/nF	|C|/nF	Phase(C)/deg	Re(M)	Im(M)	|M|	Phase(M)/deg	Re(Permittivity)	Im(Permittivity)	|Permittivity|	Phase(Permittivity)/deg	Re(Resistivity)/Ohm.cm	Im(Resistivity)/Ohm.cm	|Resistivity|/Ohm.cm	Phase(Resistivity)/deg	Re(Conductivity)/mS/cm	Im(Conductivity)/mS/cm	|Conductivity|/mS/cm	Phase(Conductivity)/deg	Tan(Delta)	Loss Angle(Delta)/deg	dq/mA.h	Pwe/W	Pce/W	Pwe-ce/W	<Ewe-Ece>/V	Rwe/Ohm	Rce/Ohm	Rwe-ce/Ohm		Ewe-Ece/V
1.00002e+06	4.06396	2.16631	4.60529	-28.0601	2.69352	3.97081	0.0134942	0.0734668	0.0162562	1	10	0.000253331	5.50087e-05	0	5.2933e-06	0.000123601	0.000189897	-66.2483	3.45213	1.39043	3.15974	-44.318	7.62346	5.45438	5.32605	0.191618	0.102143	0.217142	28.0601	16.2562	30.4964	34.5585	-61.9399	0.0000000E+000	0.0000000E+000	0.0000000E+000	61.9399	0.0000000E+000	0.0000000E+000	0.0000000E+000	-61.9399	0.0000000E+000	0.0000000E+000	0.0000000E+000	-28.0601	0.0000000E+000	0.0000000E+000	0.0000000E+000	28.0601	1.87598	61.9399	5.2933e-06	5.35828e-05	1.66789e-09	5.35811e-05	3.97069	294261	9.15955	294252
251206	2.02925	0.384343	2.06533	-10.7248	5.39452	3.9704	0.0378092	1.64843	0.057086	1	9	0.00395373	0.00191433	0	2.84334e-05	-1.00578e-05	5.98221e-05	86.7741	0.0312496	0.00175851	-0.0312001	-9.86371	2.06149	2.03101	0.353143	0.475726	0.0901031	0.484184	10.7248	57.086	301.402	306.761	-79.2752	0.0000000E+000	0.0000000E+000	0.0000000E+000	79.2752	0.0000000E+000	0.0000000E+000	0.0000000E+000	-79.2752	0.0000000E+000	0.0000000E+000	0.0000000E+000	-10.7248	0.0000000E+000	0.0000000E+000	0.0000000E+000	10.7248	5.2798	79.2752	1.0499e-06	0.000150118	-3.80279e-10	0.000150118	3.97041	105011	0.266015	105012
63093.8	2.63777	1.12556	2.86788	-23.1084	7.69255	3.97034	0.0422472	2.24112	0.345208	1	9	0.00528112	0.00184147	0	4.95467e-05	-0.000430127	1.84234e-05	26.9324	0.0100047	0.00891959	-0.00453151	-22.9555	2.87431	2.64669	1.12103	0.320713	0.136851	0.34869	23.1084	345.208	809.001	879.575	-66.8916	0.0000000E+000	0.0000000E+000	0.0000000E+000	66.8916	0.0000000E+000	0.0000000E+000	0.0000000E+000	-66.8916	0.0000000E+000	0.0000000E+000	0.0000000E+000	-23.1084	0.0000000E+000	0.0000000E+000	0.0000000E+000	23.1084	2.34352	66.8916	-2.52726e-07	0.000167736	-1.81717e-08	0.000167754	3.97077	93978.8	10.1812	93989
15847.7	3.88591	1.88131	4.31736	-25.8333	9.99656	3.97033	0.042098	5.33818	1.01363	1	9	0.00524642	0.00121519	0	7.45756e-05	-2.91519e-05	1.03006e-05	-65.5876	0.00847657	0.00350338	0.00771871	-25.9052	4.32388	3.88941	1.88903	0.208476	0.100931	0.231623	25.8333	1013.63	2093.68	2326.14	-64.1667	0.0000000E+000	0.0000000E+000	0.0000000E+000	64.1667	0.0000000E+000	0.0000000E+000	0.0000000E+000	-64.1667	0.0000000E+000	0.0000000E+000	0.0000000E+000	-25.8333	0.0000000E+000	0.0000000E+000	0.0000000E+000	25.8333	2.06553	64.1667	4.43692e-06	0.000167143	-1.22724e-09	0.000167144	3.97036	94311.6	0.692477	94312.3
3983.6	5.64843	2.90068	6.3497	-27.1822	12.4941	3.97033	0.00132686	13.7735	2.87434	1	10	0.00516501	0.000813426	0	7.43378e-05	-0.000124622	7.73152e-06	-62.1376	0.00950489	0.00444211	0.00840301	-27.2313	6.35749	5.65287	2.90908	0.140095	0.0719438	0.157488	27.1822	2874.34	5597.14	6292.04	-62.8178	0.0000000E+000	0.0000000E+000	0.0000000E+000	62.8178	0.0000000E+000	0.0000000E+000	0.0000000E+000	-62.8178	0.0000000E+000	0.0000000E+000	0.0000000E+000	-27.1822	0.0000000E+000	0.0000000E+000	0.0000000E+000	27.1822	1.94728	62.8178	-3.29032e-07	5.26807e-06	-1.65356e-10	5.26823e-06	3.97046	2.99228e+06	93.9228	2.99237e+06
1000.32	8.60041	5.08498	9.9912	-30.5937	15.1228	3.9703	0.00165126	31.289	8.10467	1	10	0.00487024	0.000487453	0	7.46211e-05	-8.64341e-05	1.19952e-05	-56.9439	0.024608	0.0134227	0.0206249	-30.6562	10.0133	8.61383	5.10561	0.0861557	0.0509395	0.100088	30.5937	8104.67	13707.7	15924.4	-59.4063	0.0000000E+000	0.0000000E+000	0.0000000E+000	59.4063	0.0000000E+000	0.0000000E+000	0.0000000E+000	-59.4063	0.0000000E+000	0.0000000E+000	0.0000000E+000	-30.5937	0.0000000E+000	0.0000000E+000	0.0000000E+000	30.5937	1.69133	59.4063	5.65692e-07	6.556e-06	-1.42725e-10	6.55614e-06	3.97039	2.40441e+06	52.3443	2.40446e+06
251.044	15.0417	7.88337	16.9824	-27.659	17.824	3.97029	0.00187126	80.4189	17.3294	1	10	0.00474246	0.000279257	0	7.54012e-05	-0.000258281	4.28446e-06	24.3575	0.0153423	0.0139767	-0.00632762	-27.6182	16.9918	15.0557	7.87704	0.0521556	0.0273347	0.0588845	27.659	17329.4	33065.1	37331.1	-62.341	0.0000000E+000	0.0000000E+000	0.0000000E+000	62.341	0.0000000E+000	0.0000000E+000	0.0000000E+000	-62.341	0.0000000E+000	0.0000000E+000	0.0000000E+000	-27.659	0.0000000E+000	0.0000000E+000	0.0000000E+000	27.659	1.90804	62.341	3.15485e-07	7.42944e-06	-4.8331e-10	7.42993e-06	3.97055	2.12172e+06	138.025	2.12186e+06
[...]
0.0602816	32.4489	4.44664	32.7521	-7.80294	242.09	3.9703	-0.00110029	593749	10944.3	1	11	0.00505488	0.000154337	0	-0.000611168	8.54125e-05	5.5352e-07	48.9816	0.00358643	0.00235378	-0.00270595	-7.7977	32.7541	32.4512	4.44393	0.0302497	0.00414527	0.0305324	7.80294	1.09443e+07	7.98649e+07	8.06112e+07	-82.1971	0.0000000E+000	0.0000000E+000	0.0000000E+000	82.1971	0.0000000E+000	0.0000000E+000	0.0000000E+000	-82.1971	0.0000000E+000	0.0000000E+000	0.0000000E+000	-7.80294	0.0000000E+000	0.0000000E+000	0.0000000E+000	7.80294	7.29739	82.1971	0.000000000000000E+000	-4.36847e-06	-9.39783e-11	-4.36837e-06	3.97021	3.60842e+06	77.6274	3.60834e+06
0.00796479	42.5143	10.1154	43.7011	-13.3836	20330.9	3.97031	-0.000363407	1.97543e+06	105839	1	11	0.00505238	0.000115612	0	-0.00995222	-0.000315563	6.86027e-07	-161.386	0.00593386	-0.00562348	0.001894	-13.3877	43.6961	42.5086	10.1173	0.0222613	0.00529664	0.0228827	13.3836	1.05839e+08	4.44832e+08	4.5725e+08	-76.6164	0.0000000E+000	0.0000000E+000	0.0000000E+000	76.6164	0.0000000E+000	0.0000000E+000	0.0000000E+000	-76.6164	0.0000000E+000	0.0000000E+000	0.0000000E+000	-13.3836	0.0000000E+000	0.0000000E+000	0.0000000E+000	13.3836	4.20291	76.6164	-0.00934105	-1.44284e-06	1.14678e-10	-1.44295e-06	3.97062	1.09252e+07	868.345	1.09261e+07
0.0019912	53.357	15.6457	55.6035	-16.3425	20330.9	3.97031	-0.000363407	5.10872e+06	404478	1	11	0.00506675	9.11227e-05	0	-0.00995222	-0.000315563	2.18514e-07	-122.672	0.00239802	-0.00129451	0.0020186	-16.3449	55.6029	53.3557	15.6477	0.0172578	0.00506045	0.0179845	16.3425	4.04478e+08	1.37941e+09	1.43749e+09	-73.6575	0.0000000E+000	0.0000000E+000	0.0000000E+000	73.6575	0.0000000E+000	0.0000000E+000	0.0000000E+000	-73.6575	0.0000000E+000	0.0000000E+000	0.0000000E+000	-16.3425	0.0000000E+000	0.0000000E+000	0.0000000E+000	16.3425	3.41034	73.6575	0.000000000000000E+000	-1.44284e-06	1.14678e-10	-1.44295e-06	3.97062	1.09252e+07	868.345	1.09261e+07
0.000497799	63.3843	21.2326	66.846	-18.52	20330.9	3.97031	-0.000363407	1.50578e+07	1.51921e+06	1	11	0.00506492	7.577e-05	0	-0.00995222	-0.000315563	6.54344e-07	52.9151	0.00863592	0.00520744	-0.00688924	-18.5129	66.8488	63.3895	21.2258	0.014185	0.00475174	0.0149598	18.52	1.51921e+09	4.5352e+09	4.78289e+09	-71.48	0.0000000E+000	0.0000000E+000	0.0000000E+000	71.48	0.0000000E+000	0.0000000E+000	0.0000000E+000	-71.48	0.0000000E+000	0.0000000E+000	0.0000000E+000	-18.52	0.0000000E+000	0.0000000E+000	0.0000000E+000	18.52	2.98523	71.48	0.000000000000000E+000	-1.44284e-06	1.14678e-10	-1.44295e-06	3.97062	1.09252e+07	868.345	1.09261e+07
9.95598e-05	76.1385	80.0812	110.499	-46.4457	20330.9	3.97031	-0.000363407	1.99621e+07	1.04845e+07	1	11	0.00506998	4.58825e-05	0	-0.00995222	-0.000315563	1.12053e-06	46.9537	0.0244217	0.01667	-0.0178475	-46.4331	110.498	76.1552	80.0633	0.00623572	0.00655862	0.00904984	46.4457	1.04845e+10	9.96833e+09	1.44669e+10	-43.5543	0.0000000E+000	0.0000000E+000	0.0000000E+000	43.5543	0.0000000E+000	0.0000000E+000	0.0000000E+000	-43.5543	0.0000000E+000	0.0000000E+000	0.0000000E+000	-46.4457	0.0000000E+000	0.0000000E+000	0.0000000E+000	46.4457	0.950767	43.5543	0.000000000000000E+000	-1.44284e-06	1.14678e-10	-1.44295e-06	3.97062	1.09252e+07	868.345	1.09261e+07