Folder: EIS/txt (part 92)

File: 18479_R301_UA693_SOC00_C03.mpt
EC-Lab ASCII FILE
Nb header lines : 65

Potentio Electrochemical Impedance Spectroscopy

Run on channel : 3 (SN 65921)
User :
CE vs. WE compliance from -10 V to 10 V
Electrode connection : standard
Potential control : Ewe
Ewe ctrl range : min = -10.00 V, max = 10.00 V
Safety Limits :
	Do not start on E overload
Acquisition started on : 10/21/2025 09:25:55.866
Technique started on : 10/21/2025 09:25:57.921
Loaded Setting File :  C:\Users\Celltest\OneDrive - store-dot.com\Documents\EC-Lab\Data\@Biologic Test Protocols\anode half cell EIS SOC00.mps
Saved on :
	File : 18479_R301_UA693_SOC00_C03.mpr
	Directory : C:\Users\Celltest\OneDrive - store-dot.com\Documents\EC-Lab\Data\Gyutae\
	Host : 169.254.61.224
Device : VMP-3e (SN .003165)
Address : USB
EC-LAB for windows v11.62 (software)
Internet server v27.00 (firmware)
Command interpretor v12.03 (firmware)
Electrode material :
Initial state :
Electrolyte :
Comments :
Electrode surface area : 0.001 cm²
Characteristic mass : 0.001 g
Equivalent Weight : 0.000 g/eq.
Density : 0.000 g/cm3
Volume (V) : 0.001 cm³
Record Ece
Cycle Definition : Charge/Discharge alternance
Mode                Single sine
E (V)               0.0000
vs.                 Eoc
tE (h:m:s)          0:00:0.0000
record              0
dI                  0.000
unit dI             mA
dt (s)              0.000
fi                  100.000
unit fi             kHz
ff                  10.000
unit ff             mHz
Nd                  6
Points              per decade
spacing             Logarithmic
Va (mV)             5.0
pw                  0.10
Na                  2
corr                0
E range min (V)     -10.000
E range max (V)     10.000
I Range             Auto
Bandwidth           5
nc cycles           0
goto Ns'            0
nr cycles           0
inc. cycle          0

freq/Hz	Re(Z)/Ohm	-Im(Z)/Ohm	|Z|/Ohm	Phase(Z)/deg	time/s	<Ewe>/V	<I>/mA	Cs/µF	Cp/µF	cycle number	I Range	|Ewe|/V	|I|/A	Ns	(Q-Qo)/mA.h	<Ece>/V	|Ece|/V	Phase(Zce)/deg	|Zce|/Ohm	Re(Zce)/Ohm	-Im(Zce)/Ohm	Phase(Zwe-ce)/deg	|Zwe-ce|/Ohm	Re(Zwe-ce)/Ohm	-Im(Zwe-ce)/Ohm	Re(Y)/Ohm-1	Im(Y)/Ohm-1	|Y|/Ohm-1	Phase(Y)/deg	Re(C)/nF	Im(C)/nF	|C|/nF	Phase(C)/deg	Re(M)	Im(M)	|M|	Phase(M)/deg	Re(Permittivity)	Im(Permittivity)	|Permittivity|	Phase(Permittivity)/deg	Re(Resistivity)/Ohm.cm	Im(Resistivity)/Ohm.cm	|Resistivity|/Ohm.cm	Phase(Resistivity)/deg	Re(Conductivity)/mS/cm	Im(Conductivity)/mS/cm	|Conductivity|/mS/cm	Phase(Conductivity)/deg	Tan(Delta)	Loss Angle(Delta)/deg	dq/mA.h	Pwe/W	Pce/W	Pwe-ce/W	<Ewe-Ece>/V	Rwe/Ohm	Rce/Ohm	Rwe-ce/Ohm		Ewe-Ece/V
100004	1.38858	0.547408	1.49259	-21.5154	2.05453	0.264207	0.0333714	2.90732	0.391054	1	9	0.00495492	0.00331969	0	5.85009e-06	-2.32329e-05	3.17193e-05	77.8473	0.00955489	0.00201147	-0.00934076	-21.1531	1.49106	1.39059	0.538067	0.623294	0.245715	0.669978	21.5154	391.054	991.966	1066.26	-68.4846	0.0000000E+000	0.0000000E+000	0.0000000E+000	68.4846	0.0000000E+000	0.0000000E+000	0.0000000E+000	-68.4846	0.0000000E+000	0.0000000E+000	0.0000000E+000	-21.5154	0.0000000E+000	0.0000000E+000	0.0000000E+000	21.5154	2.53665	68.4846	5.85009e-06	8.81696e-06	-7.75313e-10	8.81773e-06	0.264231	7917.19	0.696192	7917.88
31621.1	1.86952	0.807902	2.03662	-23.3713	3.32754	0.2642	0.0435898	6.22994	0.98035	1	9	0.00542484	0.00266365	0	1.88602e-05	0.00012952	1.22897e-05	34.5955	0.00461387	0.00379805	-0.00261966	-23.2614	2.03907	1.87332	0.805283	0.450724	0.194777	0.49101	23.3713	980.35	2268.58	2471.34	-66.6287	0.0000000E+000	0.0000000E+000	0.0000000E+000	66.6287	0.0000000E+000	0.0000000E+000	0.0000000E+000	-66.6287	0.0000000E+000	0.0000000E+000	0.0000000E+000	-23.3713	0.0000000E+000	0.0000000E+000	0.0000000E+000	23.3713	2.31405	66.6287	6.92445e-07	1.15164e-05	5.64573e-09	1.15108e-05	0.26407	6061.04	2.97133	6058.07
10002.2	2.50334	1.10918	2.73806	-23.8973	4.47656	0.264199	0.0367277	14.3456	2.35418	1	9	0.00518763	0.00189464	0	2.11443e-05	-4.13882e-06	1.01095e-05	-11.4336	0.00533586	0.00522997	0.00105773	-23.8732	2.74327	2.50857	1.11024	0.333912	0.147951	0.365222	23.8973	2354.18	5313.2	5811.39	-66.1027	0.0000000E+000	0.0000000E+000	0.0000000E+000	66.1027	0.0000000E+000	0.0000000E+000	0.0000000E+000	-66.1027	0.0000000E+000	0.0000000E+000	0.0000000E+000	-23.8973	0.0000000E+000	0.0000000E+000	0.0000000E+000	23.8973	2.25692	66.1027	1.23351e-06	9.70343e-06	-1.52009e-10	9.70358e-06	0.264203	7193.44	0.112689	7193.56
3163.08	3.32327	1.65012	3.71039	-26.4059	5.49868	0.264093	0.00241764	30.4927	6.03093	1	9	0.00488593	0.00131682	0	2.72401e-05	-0.000137797	8.00919e-06	23.5002	0.00608221	0.00557775	-0.00242529	-26.3342	3.71431	3.32885	1.64769	0.241394	0.11986	0.269513	26.4059	6030.93	12146.1	13560.9	-63.5941	0.0000000E+000	0.0000000E+000	0.0000000E+000	63.5941	0.0000000E+000	0.0000000E+000	0.0000000E+000	-63.5941	0.0000000E+000	0.0000000E+000	0.0000000E+000	-26.4059	0.0000000E+000	0.0000000E+000	0.0000000E+000	26.4059	2.01396	63.5941	1.02237e-06	6.38481e-07	-3.33144e-10	6.38814e-07	0.264231	109236	56.9967	109293
1000.32	4.27888	2.87487	5.15497	-33.8962	7.09681	0.264158	-0.00858824	55.343	17.2126	1	10	0.00477531	0.00092635	0	2.6318e-05	1.49552e-05	7.20714e-06	4.11121	0.00778014	0.00776012	-0.000557778	-33.843	5.1611	4.28664	2.87432	0.161019	0.108185	0.193988	33.8962	17212.6	25618.8	30864.2	-56.1038	0.0000000E+000	0.0000000E+000	0.0000000E+000	56.1038	0.0000000E+000	0.0000000E+000	0.0000000E+000	-56.1038	0.0000000E+000	0.0000000E+000	0.0000000E+000	-33.8962	0.0000000E+000	0.0000000E+000	0.0000000E+000	33.8962	1.48837	56.1038	-1.44375e-06	-2.26865e-06	-1.28439e-10	-2.26853e-06	0.264143	30758.2	1.74136	30756.4
316.316	6.14834	6.1379	8.68769	-44.9513	8.44603	0.264152	-0.00881944	81.9745	40.9176	1	10	0.00462357	0.000532198	0	2.30233e-05	-6.1421e-05	1.10917e-05	-29.9586	0.0208413	0.0180566	0.0104076	-44.9158	8.70783	6.1664	6.14831	0.0814609	0.0813226	0.115105	44.9513	40917.6	40987.2	57915.5	-45.0487	0.0000000E+000	0.0000000E+000	0.0000000E+000	45.0487	0.0000000E+000	0.0000000E+000	0.0000000E+000	-45.0487	0.0000000E+000	0.0000000E+000	0.0000000E+000	-44.9513	0.0000000E+000	0.0000000E+000	0.0000000E+000	44.9513	1.0017	45.0487	-1.10427e-06	-2.32967e-06	5.41699e-10	-2.33021e-06	0.264213	29951.1	6.96427	29958
100.032	12.2222	12.872	17.7502	-46.4832	9.79381	0.264143	-0.00974048	123.605	65.0008	1	10	0.00459806	0.000259042	0	2.03589e-05	-6.1421e-05	8.49524e-06	-69.2274	0.0327948	0.011631	0.030663	-46.524	17.7805	12.2339	12.9026	0.0387921	0.0408543	0.0563373	46.4832	65000.8	61719.7	89635	-43.5168	0.0000000E+000	0.0000000E+000	0.0000000E+000	43.5168	0.0000000E+000	0.0000000E+000	0.0000000E+000	-43.5168	0.0000000E+000	0.0000000E+000	0.0000000E+000	-46.4832	0.0000000E+000	0.0000000E+000	0.0000000E+000	46.4832	0.949522	43.5168	-1.41576e-06	-2.57288e-06	5.9827e-10	-2.57348e-06	0.264204	27118.1	6.30575	27124.4
[...]
1.00006	51.8475	6.08413	52.2032	-6.69286	19.5439	0.264174	-0.00492045	26157.4	355.301	1	12	0.00459058	8.79366e-05	0	5.20065e-06	-0.000175985	3.18031e-06	-12.0097	0.0361659	0.0353744	0.00752531	-6.69653	52.2392	51.8828	6.09165	0.0190254	0.00223256	0.0191559	6.69286	355301	3.02779e+06	3.04856e+06	-83.3071	0.0000000E+000	0.0000000E+000	0.0000000E+000	83.3071	0.0000000E+000	0.0000000E+000	0.0000000E+000	-83.3071	0.0000000E+000	0.0000000E+000	0.0000000E+000	-6.69286	0.0000000E+000	0.0000000E+000	0.0000000E+000	6.69286	8.52176	83.3071	-8.93406e-07	-1.29985e-06	8.65927e-10	-1.30072e-06	0.26435	53688.9	35.7661	53724.7
0.316193	55.1456	5.1432	55.3849	-5.32833	33.8861	0.264174	-0.00365959	97866.5	843.953	1	12	0.00458542	8.27918e-05	0	-2.05957e-06	0.000110426	1.83544e-06	-19.5656	0.0221694	0.0208893	0.00742422	-5.33396	55.4064	55.1665	5.15063	0.0179774	0.00167668	0.0180555	5.32833	843952	9.04889e+06	9.08816e+06	-84.6717	0.0000000E+000	0.0000000E+000	0.0000000E+000	84.6717	0.0000000E+000	0.0000000E+000	0.0000000E+000	-84.6717	0.0000000E+000	0.0000000E+000	0.0000000E+000	-5.32833	0.0000000E+000	0.0000000E+000	0.0000000E+000	5.32833	10.722	84.6717	-5.72837e-06	-9.66769e-07	-4.04113e-10	-9.66364e-07	0.264063	72186.6	30.1743	72156.4
0.0999041	58.0061	6.45573	58.3642	-6.35054	79.0938	0.26417	-0.00234393	246770	3019.18	1	12	0.00458795	7.86089e-05	0	-7.67492e-05	-0.000195079	2.67022e-06	14.0243	0.0339684	0.0329559	-0.0082317	-6.33894	58.3961	58.039	6.4475	0.0170287	0.00189519	0.0171338	6.35054	3.01918e+06	2.7128e+07	2.72954e+07	-83.6495	0.0000000E+000	0.0000000E+000	0.0000000E+000	83.6495	0.0000000E+000	0.0000000E+000	0.0000000E+000	-83.6495	0.0000000E+000	0.0000000E+000	0.0000000E+000	-6.35054	0.0000000E+000	0.0000000E+000	0.0000000E+000	6.35054	8.98521	83.6495	-3.52216e-05	-6.19198e-07	4.57253e-10	-6.19655e-07	0.264366	112704	83.2274	112787
0.0315922	62.5167	12.0987	63.6767	-10.9529	221.975	0.264172	-0.00168758	416392	15032	1	12	0.00459121	7.21019e-05	0	-0.000128751	-9.96091e-05	2.72231e-06	-6.22036	0.0377564	0.0375341	0.00409101	-10.9501	63.7143	62.5543	12.1028	0.0154183	0.00298385	0.0157043	10.9529	1.5032e+07	7.7674e+07	7.91152e+07	-79.0471	0.0000000E+000	0.0000000E+000	0.0000000E+000	79.0471	0.0000000E+000	0.0000000E+000	0.0000000E+000	-79.0471	0.0000000E+000	0.0000000E+000	0.0000000E+000	-10.9529	0.0000000E+000	0.0000000E+000	0.0000000E+000	10.9529	5.16724	79.0471	1.01318e-05	-4.4581e-07	1.68098e-10	-4.45978e-07	0.264272	156539	59.025	156598
0.0100092	71.0064	23.6232	74.8329	-18.4018	673.197	0.26417	8.65527e-05	673107	67077.2	1	12	0.0045904	6.1342e-05	0	8.31375e-05	-4.13882e-06	2.32178e-06	-1.82472	0.0378497	0.0378305	0.00120521	-18.3935	74.8692	71.0442	23.6244	0.0126798	0.00421845	0.0133631	18.4018	6.70772e+07	2.0162e+08	2.12486e+08	-71.5982	0.0000000E+000	0.0000000E+000	0.0000000E+000	71.5982	0.0000000E+000	0.0000000E+000	0.0000000E+000	-71.5982	0.0000000E+000	0.0000000E+000	0.0000000E+000	-18.4018	0.0000000E+000	0.0000000E+000	0.0000000E+000	18.4018	3.0058	71.5982	6.3158e-05	2.28646e-08	-3.58226e-13	2.2865e-08	0.264174	3.05213e+06	47.8185	3.05218e+06

File: 18481_R301_UA693_SOC00_C04.mpt
EC-Lab ASCII FILE
Nb header lines : 65

Potentio Electrochemical Impedance Spectroscopy

Run on channel : 4 (SN 66756)
User :
CE vs. WE compliance from -10 V to 10 V
Electrode connection : standard
Potential control : Ewe
Ewe ctrl range : min = -10.00 V, max = 10.00 V
Safety Limits :
	Do not start on E overload
Acquisition started on : 10/21/2025 09:26:08.351
Technique started on : 10/21/2025 09:26:10.130
Loaded Setting File :  C:\Users\Celltest\OneDrive - store-dot.com\Documents\EC-Lab\Data\@Biologic Test Protocols\anode half cell EIS SOC00.mps
Saved on :
	File : 18481_R301_UA693_SOC00_C04.mpr
	Directory : C:\Users\Celltest\OneDrive - store-dot.com\Documents\EC-Lab\Data\Gyutae\
	Host : 169.254.61.224
Device : VMP-3e (SN .003165)
Address : USB
EC-LAB for windows v11.62 (software)
Internet server v27.00 (firmware)
Command interpretor v12.03 (firmware)
Electrode material :
Initial state :
Electrolyte :
Comments :
Electrode surface area : 0.001 cm²
Characteristic mass : 0.001 g
Equivalent Weight : 0.000 g/eq.
Density : 0.000 g/cm3
Volume (V) : 0.001 cm³
Record Ece
Cycle Definition : Charge/Discharge alternance
Mode                Single sine
E (V)               0.0000
vs.                 Eoc
tE (h:m:s)          0:00:0.0000
record              0
dI                  0.000
unit dI             mA
dt (s)              0.000
fi                  100.000
unit fi             kHz
ff                  10.000
unit ff             mHz
Nd                  6
Points              per decade
spacing             Logarithmic
Va (mV)             5.0
pw                  0.10
Na                  2
corr                0
E range min (V)     -10.000
E range max (V)     10.000
I Range             Auto
Bandwidth           5
nc cycles           0
goto Ns'            0
nr cycles           0
inc. cycle          0

freq/Hz	Re(Z)/Ohm	-Im(Z)/Ohm	|Z|/Ohm	Phase(Z)/deg	time/s	<Ewe>/V	<I>/mA	Cs/µF	Cp/µF	cycle number	I Range	|Ewe|/V	|I|/A	Ns	(Q-Qo)/mA.h	<Ece>/V	|Ece|/V	Phase(Zce)/deg	|Zce|/Ohm	Re(Zce)/Ohm	-Im(Zce)/Ohm	Phase(Zwe-ce)/deg	|Zwe-ce|/Ohm	Re(Zwe-ce)/Ohm	-Im(Zwe-ce)/Ohm	Re(Y)/Ohm-1	Im(Y)/Ohm-1	|Y|/Ohm-1	Phase(Y)/deg	Re(C)/nF	Im(C)/nF	|C|/nF	Phase(C)/deg	Re(M)	Im(M)	|M|	Phase(M)/deg	Re(Permittivity)	Im(Permittivity)	|Permittivity|	Phase(Permittivity)/deg	Re(Resistivity)/Ohm.cm	Im(Resistivity)/Ohm.cm	|Resistivity|/Ohm.cm	Phase(Resistivity)/deg	Re(Conductivity)/mS/cm	Im(Conductivity)/mS/cm	|Conductivity|/mS/cm	Phase(Conductivity)/deg	Tan(Delta)	Loss Angle(Delta)/deg	dq/mA.h	Pwe/W	Pce/W	Pwe-ce/W	<Ewe-Ece>/V	Rwe/Ohm	Rce/Ohm	Rwe-ce/Ohm		Ewe-Ece/V
100004	1.88761	0.436175	1.93735	-13.0111	1.77852	0.268193	-0.0107269	3.64874	0.184948	1	9	0.003484	0.00179833	0	-3.01331e-06	-0.000225711	3.10958e-05	41.0816	0.0172915	0.0130339	-0.0113628	-12.5991	1.94754	1.90064	0.424813	0.502917	0.116211	0.516169	13.0111	184.948	800.388	821.478	-76.9889	0.0000000E+000	0.0000000E+000	0.0000000E+000	76.9889	0.0000000E+000	0.0000000E+000	0.0000000E+000	-76.9889	0.0000000E+000	0.0000000E+000	0.0000000E+000	-13.0111	0.0000000E+000	0.0000000E+000	0.0000000E+000	13.0111	4.32764	76.9889	-3.01331e-06	-2.87689e-06	2.42119e-09	-2.87931e-06	0.268419	25001.8	21.0415	25022.8
31621.1	2.29105	0.954206	2.48182	-22.6113	3.30552	0.268184	-0.0462713	5.27473	0.779729	1	9	0.00507686	0.00204562	0	-0.000115416	6.09381e-05	1.11761e-05	18.0335	0.00546345	0.00519506	-0.00169134	-22.5293	2.48597	2.29625	0.952515	0.371958	0.154918	0.40293	22.6113	779.729	1872.13	2028.02	-67.3887	0.0000000E+000	0.0000000E+000	0.0000000E+000	67.3887	0.0000000E+000	0.0000000E+000	0.0000000E+000	-67.3887	0.0000000E+000	0.0000000E+000	0.0000000E+000	-22.6113	0.0000000E+000	0.0000000E+000	0.0000000E+000	22.6113	2.40101	67.3887	-0.000111953	-1.24092e-05	-2.81968e-09	-1.24064e-05	0.268123	5795.91	1.31698	5794.6
10002.2	3.05737	1.2866	3.31706	-22.8223	4.20655	0.268175	-0.0445183	12.3674	1.86064	1	9	0.00462392	0.00139398	0	-0.000125225	-0.000302151	4.13759e-06	10.4055	0.00296818	0.00291936	-0.000536093	-22.7942	3.31954	3.06029	1.28607	0.277871	0.116933	0.301472	22.8223	1860.64	4421.46	4797.01	-67.1777	0.0000000E+000	0.0000000E+000	0.0000000E+000	67.1777	0.0000000E+000	0.0000000E+000	0.0000000E+000	-67.1777	0.0000000E+000	0.0000000E+000	0.0000000E+000	-22.8223	0.0000000E+000	0.0000000E+000	0.0000000E+000	22.8223	2.37632	67.1777	-2.66318e-06	-1.19387e-05	1.34513e-08	-1.19522e-05	0.268477	6023.93	6.78712	6030.72
3163.08	3.99322	1.8627	4.4063	-25.0074	5.38869	0.268113	-0.0236702	27.0127	4.8273	1	10	0.00501189	0.00113744	0	-0.000133079	3.60827e-06	1.04705e-05	-38.8037	0.00920537	0.00717372	0.00576858	-25.0359	4.41524	4.0004	1.86847	0.205672	0.0959389	0.226948	25.0074	4827.3	10348.7	11419.2	-64.9926	0.0000000E+000	0.0000000E+000	0.0000000E+000	64.9926	0.0000000E+000	0.0000000E+000	0.0000000E+000	-64.9926	0.0000000E+000	0.0000000E+000	0.0000000E+000	-25.0074	0.0000000E+000	0.0000000E+000	0.0000000E+000	25.0074	2.14378	64.9926	-1.79711e-06	-6.34629e-06	-8.54085e-11	-6.3462e-06	0.26811	11327	0.152439	11326.9
1000.32	5.15314	3.12711	6.02775	-31.2509	6.74178	0.268132	-0.0154153	50.8789	13.6935	1	10	0.00484267	0.000803397	0	-0.000139277	-0.000244821	6.32395e-06	-8.21472	0.00787152	0.00779076	0.00112471	-31.2216	6.03499	5.16093	3.12824	0.141828	0.0860664	0.1659	31.2509	13693.5	22565.4	26395.3	-58.7491	0.0000000E+000	0.0000000E+000	0.0000000E+000	58.7491	0.0000000E+000	0.0000000E+000	0.0000000E+000	-58.7491	0.0000000E+000	0.0000000E+000	0.0000000E+000	-31.2509	0.0000000E+000	0.0000000E+000	0.0000000E+000	31.2509	1.64789	58.7491	-2.54144e-06	-4.13334e-06	3.774e-09	-4.13711e-06	0.268377	17393.8	15.8817	17409.7
316.316	7.12954	6.52855	9.66707	-42.4805	8.092	0.268126	-0.0163628	77.0695	35.15	1	10	0.00476644	0.000493059	0	-0.00014478	-5.37216e-05	9.65781e-06	-50.47	0.0195875	0.0124671	0.0151077	-42.4966	9.68647	7.14201	6.54366	0.0762907	0.0698597	0.103444	42.4805	35150	38385.8	52048	-47.5195	0.0000000E+000	0.0000000E+000	0.0000000E+000	47.5195	0.0000000E+000	0.0000000E+000	0.0000000E+000	-47.5195	0.0000000E+000	0.0000000E+000	0.0000000E+000	-42.4805	0.0000000E+000	0.0000000E+000	0.0000000E+000	42.4805	1.09206	47.5195	-1.94365e-06	-4.38729e-06	8.79036e-10	-4.38817e-06	0.26818	16386.3	3.28315	16389.6
100.032	13.2722	13.8498	19.1825	-46.2201	9.43981	0.268138	-0.015669	114.878	59.8847	1	10	0.0047495	0.000247596	0	-0.000151094	-0.000130161	7.37043e-06	33.7493	0.029768	0.0247514	-0.0165379	-46.1326	19.1877	13.2969	13.8333	0.0360688	0.0376387	0.0521309	46.2201	59884.7	57387	82942.4	-43.7799	0.0000000E+000	0.0000000E+000	0.0000000E+000	43.7799	0.0000000E+000	0.0000000E+000	0.0000000E+000	-43.7799	0.0000000E+000	0.0000000E+000	0.0000000E+000	-46.2201	0.0000000E+000	0.0000000E+000	0.0000000E+000	46.2201	0.958292	43.7799	-1.61512e-06	-4.20146e-06	2.0395e-09	-4.2035e-06	0.268268	17112.7	8.30694	17121
[...]
1.00006	60.9717	8.08338	61.5052	-7.55201	18.9729	0.268195	-0.00219624	19687.9	340.065	1	12	0.00473788	7.70322e-05	0	-0.000162257	8.00481e-05	4.31379e-06	-7.31316	0.0559998	0.0555443	0.00712835	-7.55179	61.5612	61.0272	8.09051	0.0161178	0.00213683	0.0162588	7.55201	340065	2.56506e+06	2.5875e+06	-82.448	0.0000000E+000	0.0000000E+000	0.0000000E+000	82.448	0.0000000E+000	0.0000000E+000	0.0000000E+000	-82.448	0.0000000E+000	0.0000000E+000	0.0000000E+000	-7.55201	0.0000000E+000	0.0000000E+000	0.0000000E+000	7.55201	7.54284	82.448	-3.84584e-06	-5.89021e-07	-1.75805e-10	-5.88846e-07	0.268115	122115	36.4477	122079
0.316193	65.6704	6.87478	66.0293	-5.97631	33.3167	0.268189	-0.0023649	73216.5	793.695	1	12	0.00474399	7.18468e-05	0	-0.000171684	-3.46116e-05	6.17715e-07	12.7604	0.00859767	0.00838533	-0.001899	-5.97391	66.0374	65.6788	6.87289	0.0150625	0.00157683	0.0151448	5.97631	793694	7.58166e+06	7.62309e+06	-84.0237	0.0000000E+000	0.0000000E+000	0.0000000E+000	84.0237	0.0000000E+000	0.0000000E+000	0.0000000E+000	-84.0237	0.0000000E+000	0.0000000E+000	0.0000000E+000	-5.97631	0.0000000E+000	0.0000000E+000	0.0000000E+000	5.97631	9.55236	84.0237	-9.05837e-07	-6.3424e-07	8.1853e-11	-6.34322e-07	0.268224	113404	14.6356	113419
0.0999041	69.3856	7.92007	69.8361	-6.51189	78.5244	0.268183	-0.001191	201144	2587.05	1	12	0.00474311	6.79177e-05	0	-0.000160922	-0.000244821	2.88143e-06	12.2627	0.0424254	0.0414574	-0.00901094	-6.50069	69.8763	69.427	7.91106	0.0142269	0.00162393	0.0143192	6.51189	2.58705e+06	2.26645e+07	2.28117e+07	-83.4881	0.0000000E+000	0.0000000E+000	0.0000000E+000	83.4881	0.0000000E+000	0.0000000E+000	0.0000000E+000	-83.4881	0.0000000E+000	0.0000000E+000	0.0000000E+000	-6.51189	0.0000000E+000	0.0000000E+000	0.0000000E+000	6.51189	8.76073	83.4881	2.41715e-06	-3.19406e-07	2.91583e-10	-3.19698e-07	0.268427	225174	205.559	225379
0.0315922	74.4821	13.9023	75.7684	-10.5728	221.408	0.268185	-0.000312658	362372	12199.7	1	12	0.00474505	6.26257e-05	0	-0.000261571	3.60827e-06	4.11892e-06	-0.29189	0.0657704	0.0657696	0.000335062	-10.5639	75.8331	74.5478	13.9026	0.012974	0.00242164	0.0131981	10.5728	1.21997e+07	6.53605e+07	6.64894e+07	-79.4272	0.0000000E+000	0.0000000E+000	0.0000000E+000	79.4272	0.0000000E+000	0.0000000E+000	0.0000000E+000	-79.4272	0.0000000E+000	0.0000000E+000	0.0000000E+000	-10.5728	0.0000000E+000	0.0000000E+000	0.0000000E+000	10.5728	5.35754	79.4272	-6.19045e-05	-8.38502e-08	-1.12816e-12	-8.38491e-08	0.268181	857757	11.5406	857746
0.0100092	84.3031	28.3054	88.9281	-18.5599	672.631	0.268185	-0.000686482	561763	56913.2	1	12	0.00474225	5.33268e-05	0	-0.00039308	8.00481e-05	1.96408e-06	2.0133	0.036831	0.0368083	-0.00129393	-18.5515	88.9626	84.3399	28.3041	0.0106602	0.00357924	0.011245	18.5599	5.69132e+07	1.69507e+08	1.78806e+08	-71.4401	0.0000000E+000	0.0000000E+000	0.0000000E+000	71.4401	0.0000000E+000	0.0000000E+000	0.0000000E+000	-71.4401	0.0000000E+000	0.0000000E+000	0.0000000E+000	-18.5599	0.0000000E+000	0.0000000E+000	0.0000000E+000	18.5599	2.97834	71.4401	1.28852e-05	-1.84104e-07	-5.49516e-11	-1.84049e-07	0.268105	390666	116.606	390549