Folder: EIS/txt (part 23)

File: 17449_C05.mpt
EC-Lab ASCII FILE
Nb header lines : 64

Potentio Electrochemical Impedance Spectroscopy

Run on channel : 5 (SN 65912)
User :
CE vs. WE compliance from -10 V to 10 V
Electrode connection : standard
Potential control : Ewe
Ewe ctrl range : min = -10.00 V, max = 10.00 V
Safety Limits :
	Do not start on E overload
Acquisition started on : 09/11/2025 16:16:09.979
Technique started on : 09/11/2025 16:16:12.045
Loaded Setting File :  C:\Users\Celltest\OneDrive - store-dot.com\Documents\EC-Lab\Data\Charmaine\R279\17382_C01.mpr
Saved on :
	File : 17449_C05.mpr
	Directory : C:\Users\Celltest\OneDrive - store-dot.com\Documents\EC-Lab\Data\John\R281\
	Host : 169.254.61.224
Device : VMP-3e (SN .003165)
Address : USB
EC-LAB for windows v11.62 (software)
Internet server v27.00 (firmware)
Command interpretor v12.03 (firmware)
Electrode material :
Initial state :
Electrolyte :
Comments :
Electrode surface area : 0.001 cm²
Characteristic mass : 0.001 g
Equivalent Weight : 0.000 g/eq.
Density : 0.000 g/cm3
Volume (V) : 0.001 cm³
Cycle Definition : Charge/Discharge alternance
Mode                Single sine
E (V)               0.0000
vs.                 Eoc
tE (h:m:s)          0:00:0.0000
record              0
dI                  0.000
unit dI             mA
dt (s)              0.000
fi                  100.000
unit fi             kHz
ff                  10.000
unit ff             mHz
Nd                  6
Points              per decade
spacing             Logarithmic
Va (mV)             5.0
pw                  0.10
Na                  2
corr                0
E range min (V)     -10.000
E range max (V)     10.000
I Range             Auto
Bandwidth           5
nc cycles           0
goto Ns'            0
nr cycles           0
inc. cycle          0

freq/Hz	Re(Z)/Ohm	-Im(Z)/Ohm	|Z|/Ohm	Phase(Z)/deg	time/s	<Ewe>/V	<I>/mA	Cs/µF	Cp/µF	cycle number	I Range	|Ewe|/V	|I|/A	Ns	(Q-Qo)/mA.h	Re(Y)/Ohm-1	Im(Y)/Ohm-1	|Y|/Ohm-1	Phase(Y)/deg	Re(C)/nF	Im(C)/nF	|C|/nF	Phase(C)/deg	Re(M)	Im(M)	|M|	Phase(M)/deg	Re(Permittivity)	Im(Permittivity)	|Permittivity|	Phase(Permittivity)/deg	Re(Resistivity)/Ohm.cm	Im(Resistivity)/Ohm.cm	|Resistivity|/Ohm.cm	Phase(Resistivity)/deg	Re(Conductivity)/mS/cm	Im(Conductivity)/mS/cm	|Conductivity|/mS/cm	Phase(Conductivity)/deg	Tan(Delta)	Loss Angle(Delta)/deg	dq/mA.h	Pwe/W	Rwe/Ohm
100004	1.26488	0.257216	1.29077	-11.4945	2.06647	0.295009	-0.0168353	6.18736	0.2457	1	9	0.00469129	0.00363449	0	-6.73212e-06	0.759194	0.154384	0.774732	11.4945	245.7	1208.25	1232.98	-78.5055	0.0000000E+000	0.0000000E+000	0.0000000E+000	78.5055	0.0000000E+000	0.0000000E+000	0.0000000E+000	-78.5055	0.0000000E+000	0.0000000E+000	0.0000000E+000	-11.4945	0.0000000E+000	0.0000000E+000	0.0000000E+000	11.4945	4.91757	78.5055	-6.73212e-06	-4.96656e-06	17523.3
46420.4	1.39533	0.319771	1.4315	-12.9077	3.22247	0.294996	-0.0174497	10.7219	0.535015	1	9	0.00504657	0.00352536	0	-1.24219e-06	0.680914	0.156047	0.698566	12.9077	535.015	2334.55	2395.07	-77.0923	0.0000000E+000	0.0000000E+000	0.0000000E+000	77.0923	0.0000000E+000	0.0000000E+000	0.0000000E+000	-77.0923	0.0000000E+000	0.0000000E+000	0.0000000E+000	-12.9077	0.0000000E+000	0.0000000E+000	0.0000000E+000	12.9077	4.36353	77.0923	1.24431e-06	-5.1476e-06	16905.5
21544.7	1.555	0.414003	1.60917	-14.9086	4.23849	0.294985	-0.0194793	17.8434	1.18109	1	9	0.0051567	0.00320458	0	-8.77762e-06	0.600521	0.159883	0.62144	14.9086	1181.09	4436.17	4590.7	-75.0914	0.0000000E+000	0.0000000E+000	0.0000000E+000	75.0914	0.0000000E+000	0.0000000E+000	0.0000000E+000	-75.0914	0.0000000E+000	0.0000000E+000	0.0000000E+000	-14.9086	0.0000000E+000	0.0000000E+000	0.0000000E+000	14.9086	3.75601	75.0914	-3.3938e-08	-5.74611e-06	15143.5
10002.2	1.758	0.5391	1.8388	-17.0484	4.8305	0.294989	-0.017729	29.5158	2.53701	1	9	0.00471253	0.00256282	0	-1.12107e-05	0.519935	0.159441	0.543832	17.0484	2537.01	8273.18	8653.43	-72.9516	0.0000000E+000	0.0000000E+000	0.0000000E+000	72.9516	0.0000000E+000	0.0000000E+000	0.0000000E+000	-72.9516	0.0000000E+000	0.0000000E+000	0.0000000E+000	-17.0484	0.0000000E+000	0.0000000E+000	0.0000000E+000	17.0484	3.26099	72.9516	-2.55637e-06	-5.22988e-06	16638.7
4641.49	2.02264	0.712938	2.14461	-19.4165	5.90267	0.294993	0.0157681	48.0962	5.31517	1	9	0.00506502	0.00236174	0	-2.44826e-05	0.439765	0.155008	0.466284	19.4165	5315.16	15079.4	15988.7	-70.5835	0.0000000E+000	0.0000000E+000	0.0000000E+000	70.5835	0.0000000E+000	0.0000000E+000	0.0000000E+000	-70.5835	0.0000000E+000	0.0000000E+000	0.0000000E+000	-19.4165	0.0000000E+000	0.0000000E+000	0.0000000E+000	19.4165	2.83705	70.5835	-1.00365e-06	4.65149e-06	18708.1
2155.69	2.36637	0.958224	2.55302	-22.0447	6.83669	0.295	0.0109083	77.049	10.854	1	9	0.00494685	0.00193764	0	-2.26453e-05	0.363057	0.147014	0.391693	22.0447	10854	26804.5	28918.7	-67.9553	0.0000000E+000	0.0000000E+000	0.0000000E+000	67.9553	0.0000000E+000	0.0000000E+000	0.0000000E+000	-67.9553	0.0000000E+000	0.0000000E+000	0.0000000E+000	-22.0447	0.0000000E+000	0.0000000E+000	0.0000000E+000	22.0447	2.46954	67.9553	-4.45576e-07	3.21795e-06	27043.5
1000.32	2.77222	1.32558	3.07285	-25.5555	7.77268	0.294998	0.01264	120.026	22.336	1	9	0.00490114	0.00159498	0	-2.04967e-05	0.293593	0.140386	0.325431	25.5555	22336	46711.9	51777.4	-64.4445	0.0000000E+000	0.0000000E+000	0.0000000E+000	64.4445	0.0000000E+000	0.0000000E+000	0.0000000E+000	-64.4445	0.0000000E+000	0.0000000E+000	0.0000000E+000	-25.5555	0.0000000E+000	0.0000000E+000	0.0000000E+000	25.5555	2.09133	64.4445	1.80625e-06	3.72877e-06	23338.5
463.961	3.2867	1.97965	3.83685	-31.0614	8.96122	0.294965	-0.013708	173.281	46.1293	1	10	0.00493266	0.0012856	0	-2.41686e-05	0.22326	0.134474	0.26063	31.0614	46129.3	76586	89405.4	-58.9386	0.0000000E+000	0.0000000E+000	0.0000000E+000	58.9386	0.0000000E+000	0.0000000E+000	0.0000000E+000	-58.9386	0.0000000E+000	0.0000000E+000	0.0000000E+000	-31.0614	0.0000000E+000	0.0000000E+000	0.0000000E+000	31.0614	1.66024	58.9386	-2.03402e-06	-4.04338e-06	21517.7
215.345	4.20891	3.14629	5.2549	-36.7792	9.89545	0.294958	-0.0137061	234.903	84.2083	1	10	0.00489714	0.000931918	0	-2.63809e-05	0.152419	0.113938	0.190298	36.7792	84208.3	112649	140644	-53.2208	0.0000000E+000	0.0000000E+000	0.0000000E+000	53.2208	0.0000000E+000	0.0000000E+000	0.0000000E+000	-53.2208	0.0000000E+000	0.0000000E+000	0.0000000E+000	-36.7792	0.0000000E+000	0.0000000E+000	0.0000000E+000	36.7792	1.33774	53.2208	-7.98853e-07	-4.04273e-06	21520.1
100.032	6.06213	4.76497	7.71066	-38.1681	10.8257	0.294963	-0.0134958	333.904	127.514	1	10	0.00488002	0.000632892	0	-3.04955e-05	0.101963	0.080145	0.12969	38.1681	127514	162227	206343	-51.8319	0.0000000E+000	0.0000000E+000	0.0000000E+000	51.8319	0.0000000E+000	0.0000000E+000	0.0000000E+000	-51.8319	0.0000000E+000	0.0000000E+000	0.0000000E+000	-38.1681	0.0000000E+000	0.0000000E+000	0.0000000E+000	38.1681	1.27223	51.8319	-2.14822e-06	-3.98075e-06	21855.9
46.4415	9.17947	6.13787	11.0425	-33.7687	11.7595	0.294962	-0.0156516	558.336	172.504	1	10	0.00487587	0.000441557	0	-3.4346e-05	0.075281	0.0503368	0.0905595	33.7687	172504	257988	310347	-56.2313	0.0000000E+000	0.0000000E+000	0.0000000E+000	56.2313	0.0000000E+000	0.0000000E+000	0.0000000E+000	-56.2313	0.0000000E+000	0.0000000E+000	0.0000000E+000	-33.7687	0.0000000E+000	0.0000000E+000	0.0000000E+000	33.7687	1.49555	56.2313	-1.94308e-06	-4.61664e-06	18845.4
[...]
1.00006	22.398	2.88115	22.5826	-7.32993	21.1002	0.295002	-0.00448817	55236.6	899.107	1	12	0.00487285	0.000215779	0	-4.58869e-05	0.0439201	0.00564962	0.044282	7.32993	899107	6.98965e+06	7.04724e+06	-82.6701	0.0000000E+000	0.0000000E+000	0.0000000E+000	82.6701	0.0000000E+000	0.0000000E+000	0.0000000E+000	-82.6701	0.0000000E+000	0.0000000E+000	0.0000000E+000	-7.32993	0.0000000E+000	0.0000000E+000	0.0000000E+000	7.32993	7.774	82.6701	4.05062e-06	-1.32402e-06	65728.7
0.464091	23.4505	2.60226	23.5945	-6.33209	28.7849	0.295002	-0.00309429	131785	1603.05	1	12	0.00487527	0.000206627	0	-5.39357e-05	0.0421242	0.00467444	0.0423828	6.33209	1.60305e+06	1.44461e+07	1.45347e+07	-83.6679	0.0000000E+000	0.0000000E+000	0.0000000E+000	83.6679	0.0000000E+000	0.0000000E+000	0.0000000E+000	-83.6679	0.0000000E+000	0.0000000E+000	0.0000000E+000	-6.33209	0.0000000E+000	0.0000000E+000	0.0000000E+000	6.33209	9.01161	83.6679	-8.8583e-06	-9.1282e-07	95337.5
0.215268	24.4052	2.85135	24.5712	-6.66386	45.2649	0.295	-0.00274052	259293	3491.7	1	12	0.00487303	0.000198322	0	-0.00011014	0.040423	0.00472277	0.040698	6.66386	3.49171e+06	2.98861e+07	3.00894e+07	-83.3361	0.0000000E+000	0.0000000E+000	0.0000000E+000	83.3361	0.0000000E+000	0.0000000E+000	0.0000000E+000	-83.3361	0.0000000E+000	0.0000000E+000	0.0000000E+000	-6.66386	0.0000000E+000	0.0000000E+000	0.0000000E+000	6.66386	8.55918	83.3361	-3.39275e-05	-8.08454e-07	107644
0.0999041	25.8188	3.88972	26.1101	-8.56744	80.6715	0.295005	-0.00344212	409561	9089.43	1	12	0.00487407	0.000186673	0	-0.000162768	0.0378719	0.00570558	0.0382993	8.56744	9.08943e+06	6.03329e+07	6.10138e+07	-81.4326	0.0000000E+000	0.0000000E+000	0.0000000E+000	81.4326	0.0000000E+000	0.0000000E+000	0.0000000E+000	-81.4326	0.0000000E+000	0.0000000E+000	0.0000000E+000	-8.56744	0.0000000E+000	0.0000000E+000	0.0000000E+000	8.56744	6.6377	81.4326	-1.77801e-05	-1.01544e-06	85704.4
0.0464052	27.7822	5.47535	28.3166	-11.149	156.908	0.295003	-0.00252481	626386	23419.8	1	12	0.00487401	0.000172126	0	-7.97409e-05	0.0346485	0.00682858	0.035315	11.149	2.34198e+07	1.18833e+08	1.21119e+08	-78.851	0.0000000E+000	0.0000000E+000	0.0000000E+000	78.851	0.0000000E+000	0.0000000E+000	0.0000000E+000	-78.851	0.0000000E+000	0.0000000E+000	0.0000000E+000	-11.149	0.0000000E+000	0.0000000E+000	0.0000000E+000	11.149	5.07405	78.851	6.93429e-05	-7.44829e-07	116842
0.0215268	30.622	7.82768	31.6066	-14.3391	321.136	0.295007	0.000166921	944514	57931.9	1	12	0.00487323	0.000154184	0	0.000115399	0.0306533	0.00783568	0.0316389	14.3391	5.79319e+07	2.2663e+08	2.33918e+08	-75.6609	0.0000000E+000	0.0000000E+000	0.0000000E+000	75.6609	0.0000000E+000	0.0000000E+000	0.0000000E+000	-75.6609	0.0000000E+000	0.0000000E+000	0.0000000E+000	-14.3391	0.0000000E+000	0.0000000E+000	0.0000000E+000	14.3391	3.91201	75.6609	8.81051e-05	4.92428e-08	1.76735e+06
0.0100092	33.5808	12.1021	35.6949	-19.8186	674.351	0.295008	0.00056806	1.31389e+06	151033	1	12	0.00487272	0.00013651	0	-0.00018077	0.0263559	0.00949835	0.0280152	19.8186	1.51033e+08	4.19082e+08	4.45467e+08	-70.1814	0.0000000E+000	0.0000000E+000	0.0000000E+000	70.1814	0.0000000E+000	0.0000000E+000	0.0000000E+000	-70.1814	0.0000000E+000	0.0000000E+000	0.0000000E+000	-19.8186	0.0000000E+000	0.0000000E+000	0.0000000E+000	19.8186	2.77478	70.1814	-0.000264101	1.67582e-07	519325

File: 17450_C06.mpt
EC-Lab ASCII FILE
Nb header lines : 64

Potentio Electrochemical Impedance Spectroscopy

Run on channel : 6 (SN 65795)
User :
CE vs. WE compliance from -10 V to 10 V
Electrode connection : standard
Potential control : Ewe
Ewe ctrl range : min = -10.00 V, max = 10.00 V
Safety Limits :
	Do not start on E overload
Acquisition started on : 09/11/2025 16:16:20.400
Technique started on : 09/11/2025 16:16:22.264
Loaded Setting File :  C:\Users\Celltest\OneDrive - store-dot.com\Documents\EC-Lab\Data\Charmaine\R279\17383.mps
Saved on :
	File : 17450_C06.mpr
	Directory : C:\Users\Celltest\OneDrive - store-dot.com\Documents\EC-Lab\Data\John\R281\
	Host : 169.254.61.224
Device : VMP-3e (SN .003165)
Address : USB
EC-LAB for windows v11.62 (software)
Internet server v27.00 (firmware)
Command interpretor v12.03 (firmware)
Electrode material :
Initial state :
Electrolyte :
Comments :
Electrode surface area : 0.001 cm²
Characteristic mass : 0.001 g
Equivalent Weight : 0.000 g/eq.
Density : 0.000 g/cm3
Volume (V) : 0.001 cm³
Cycle Definition : Charge/Discharge alternance
Mode                Single sine
E (V)               0.0000
vs.                 Eoc
tE (h:m:s)          0:00:0.0000
record              0
dI                  0.000
unit dI             mA
dt (s)              0.000
fi                  100.000
unit fi             kHz
ff                  10.000
unit ff             mHz
Nd                  6
Points              per decade
spacing             Logarithmic
Va (mV)             5.0
pw                  0.10
Na                  2
corr                0
E range min (V)     -10.000
E range max (V)     10.000
I Range             Auto
Bandwidth           5
nc cycles           0
goto Ns'            0
nr cycles           0
inc. cycle          0

freq/Hz	Re(Z)/Ohm	-Im(Z)/Ohm	|Z|/Ohm	Phase(Z)/deg	time/s	<Ewe>/V	<I>/mA	Cs/µF	Cp/µF	cycle number	I Range	|Ewe|/V	|I|/A	Ns	(Q-Qo)/mA.h	Re(Y)/Ohm-1	Im(Y)/Ohm-1	|Y|/Ohm-1	Phase(Y)/deg	Re(C)/nF	Im(C)/nF	|C|/nF	Phase(C)/deg	Re(M)	Im(M)	|M|	Phase(M)/deg	Re(Permittivity)	Im(Permittivity)	|Permittivity|	Phase(Permittivity)/deg	Re(Resistivity)/Ohm.cm	Im(Resistivity)/Ohm.cm	|Resistivity|/Ohm.cm	Phase(Resistivity)/deg	Re(Conductivity)/mS/cm	Im(Conductivity)/mS/cm	|Conductivity|/mS/cm	Phase(Conductivity)/deg	Tan(Delta)	Loss Angle(Delta)/deg	dq/mA.h	Pwe/W	Rwe/Ohm
100004	1.42511	0.228734	1.44335	-9.11836	1.86449	0.218986	0.0389194	6.95782	0.17474	1	9	0.00453499	0.00314199	0	-6.35022e-06	0.684078	0.109796	0.692833	9.11836	174.74	1088.7	1102.64	-80.8816	0.0000000E+000	0.0000000E+000	0.0000000E+000	80.8816	0.0000000E+000	0.0000000E+000	0.0000000E+000	-80.8816	0.0000000E+000	0.0000000E+000	0.0000000E+000	-9.11836	0.0000000E+000	0.0000000E+000	0.0000000E+000	9.11836	6.23042	80.8816	-6.35022e-06	8.52279e-06	5626.65
46420.4	1.54434	0.28476	1.57038	-10.4474	3.02049	0.218962	0.0342445	12.0402	0.395897	1	9	0.00504183	0.00321059	0	1.26125e-05	0.626233	0.11547	0.63679	10.4474	395.897	2147.08	2183.27	-79.5526	0.0000000E+000	0.0000000E+000	0.0000000E+000	79.5526	0.0000000E+000	0.0000000E+000	0.0000000E+000	-79.5526	0.0000000E+000	0.0000000E+000	0.0000000E+000	-10.4474	0.0000000E+000	0.0000000E+000	0.0000000E+000	10.4474	5.42332	79.5526	1.0093e-05	7.49824e-06	6394.07
21544.7	1.68609	0.37897	1.72815	-12.6675	4.0355	0.218954	0.0337975	19.4928	0.937394	1	9	0.00523169	0.00302734	0	1.89908e-05	0.564569	0.126894	0.578654	12.6675	937.395	4170.58	4274.63	-77.3325	0.0000000E+000	0.0000000E+000	0.0000000E+000	77.3325	0.0000000E+000	0.0000000E+000	0.0000000E+000	-77.3325	0.0000000E+000	0.0000000E+000	0.0000000E+000	-12.6675	0.0000000E+000	0.0000000E+000	0.0000000E+000	12.6675	4.44912	77.3325	6.01715e-06	7.40012e-06	6478.42
10002.2	1.86569	0.499985	1.93152	-15.0021	4.62748	0.218959	0.0344866	31.8249	2.13245	1	9	0.00450818	0.002334	0	2.41951e-05	0.50008	0.134016	0.517726	15.0021	2132.45	7957.24	8238.03	-74.9979	0.0000000E+000	0.0000000E+000	0.0000000E+000	74.9979	0.0000000E+000	0.0000000E+000	0.0000000E+000	-74.9979	0.0000000E+000	0.0000000E+000	0.0000000E+000	-15.0021	0.0000000E+000	0.0000000E+000	0.0000000E+000	15.0021	3.7315	74.9979	1.47853e-06	7.55114e-06	6349.09
4641.49	2.11715	0.676448	2.22259	-17.7192	5.65369	0.218969	0.0704701	50.6907	4.69547	1	9	0.00472982	0.00212807	0	2.0576e-05	0.428581	0.136936	0.449926	17.7192	4695.47	14695.9	15427.8	-72.2808	0.0000000E+000	0.0000000E+000	0.0000000E+000	72.2808	0.0000000E+000	0.0000000E+000	0.0000000E+000	-72.2808	0.0000000E+000	0.0000000E+000	0.0000000E+000	-17.7192	0.0000000E+000	0.0000000E+000	0.0000000E+000	17.7192	3.1298	72.2808	9.7076e-06	1.54308e-05	3107.27
2155.69	2.43776	0.917057	2.60455	-20.6157	6.58769	0.218976	0.0725002	80.5077	9.98079	1	9	0.0046241	0.00177539	0	3.70893e-05	0.359357	0.135186	0.383944	20.6157	9980.79	26531.4	28346.6	-69.3843	0.0000000E+000	0.0000000E+000	0.0000000E+000	69.3843	0.0000000E+000	0.0000000E+000	0.0000000E+000	-69.3843	0.0000000E+000	0.0000000E+000	0.0000000E+000	-20.6157	0.0000000E+000	0.0000000E+000	0.0000000E+000	20.6157	2.65825	69.3843	8.72405e-06	1.58758e-05	3020.35
1000.32	2.86064	1.23715	3.11669	-23.3872	7.52368	0.218979	0.0736177	128.605	20.2635	1	9	0.00458808	0.0014721	0	5.43228e-05	0.294493	0.12736	0.320853	23.3872	20263.5	46855	51049	-66.6128	0.0000000E+000	0.0000000E+000	0.0000000E+000	66.6128	0.0000000E+000	0.0000000E+000	0.0000000E+000	-66.6128	0.0000000E+000	0.0000000E+000	0.0000000E+000	-23.3872	0.0000000E+000	0.0000000E+000	0.0000000E+000	23.3872	2.31228	66.6128	7.36609e-06	1.61207e-05	2974.54
463.961	3.41968	1.7826	3.85641	-27.5319	8.71322	0.218923	-0.0150969	192.436	41.1174	1	10	0.00461457	0.0011966	0	5.4932e-05	0.229943	0.119864	0.259309	27.5319	41117.4	78878.6	88952.1	-62.4681	0.0000000E+000	0.0000000E+000	0.0000000E+000	62.4681	0.0000000E+000	0.0000000E+000	0.0000000E+000	-62.4681	0.0000000E+000	0.0000000E+000	0.0000000E+000	-27.5319	0.0000000E+000	0.0000000E+000	0.0000000E+000	27.5319	1.91837	62.4681	-2.29553e-06	-3.30507e-06	14501.2
215.345	4.29867	2.67392	5.06245	-31.883	9.64744	0.218919	-0.0151994	276.4	77.1103	1	10	0.0045855	0.000905786	0	5.1673e-05	0.167731	0.104334	0.197533	31.883	77110.3	123965	145991	-58.117	0.0000000E+000	0.0000000E+000	0.0000000E+000	58.117	0.0000000E+000	0.0000000E+000	0.0000000E+000	-58.117	0.0000000E+000	0.0000000E+000	0.0000000E+000	-31.883	0.0000000E+000	0.0000000E+000	0.0000000E+000	31.883	1.60763	58.117	-1.24309e-06	-3.32744e-06	14403.1
100.032	5.91708	3.79389	7.0289	-32.667	10.5787	0.218931	-0.0142827	419.369	122.177	1	10	0.00457164	0.000650405	0	4.79533e-05	0.119766	0.0767909	0.14227	32.667	122177	190552	226357	-57.333	0.0000000E+000	0.0000000E+000	0.0000000E+000	57.333	0.0000000E+000	0.0000000E+000	0.0000000E+000	-57.333	0.0000000E+000	0.0000000E+000	0.0000000E+000	-32.667	0.0000000E+000	0.0000000E+000	0.0000000E+000	32.667	1.55963	57.333	-1.83758e-06	-3.12693e-06	15328.4
46.4415	8.4102	4.56476	9.56914	-28.4915	11.5126	0.218916	-0.0170963	750.751	170.838	1	10	0.00456654	0.000477216	0	4.45647e-05	0.0918461	0.0498508	0.104503	28.4915	170838	314756	358130	-61.5085	0.0000000E+000	0.0000000E+000	0.0000000E+000	61.5085	0.0000000E+000	0.0000000E+000	0.0000000E+000	-61.5085	0.0000000E+000	0.0000000E+000	0.0000000E+000	-28.4915	0.0000000E+000	0.0000000E+000	0.0000000E+000	28.4915	1.84242	61.5085	-1.72272e-06	-3.74264e-06	12804.9
[...]
1.00006	16.4479	1.68779	16.5342	-5.85888	20.8461	0.218954	-0.00768179	94291.8	982.524	1	12	0.00456859	0.000276311	0	2.31694e-05	0.0601647	0.00617377	0.0604806	5.85888	982524	9.57489e+06	9.62517e+06	-84.1411	0.0000000E+000	0.0000000E+000	0.0000000E+000	84.1411	0.0000000E+000	0.0000000E+000	0.0000000E+000	-84.1411	0.0000000E+000	0.0000000E+000	0.0000000E+000	-5.85888	0.0000000E+000	0.0000000E+000	0.0000000E+000	5.85888	9.7452	84.1411	2.65659e-06	-1.68196e-06	28503
0.464091	17.0369	1.67309	17.1188	-5.60869	28.5308	0.21895	-0.00497278	204974	1957.89	1	12	0.004567	0.000266782	0	2.55527e-05	0.0581355	0.00570914	0.0584152	5.60869	1.95789e+06	1.9937e+07	2.00329e+07	-84.3913	0.0000000E+000	0.0000000E+000	0.0000000E+000	84.3913	0.0000000E+000	0.0000000E+000	0.0000000E+000	-84.3913	0.0000000E+000	0.0000000E+000	0.0000000E+000	-5.60869	0.0000000E+000	0.0000000E+000	0.0000000E+000	5.60869	10.1829	84.3913	-2.46437e-06	-1.08879e-06	44029.6
0.215268	17.6058	2.11034	17.7318	-6.83523	45.0099	0.218953	-0.00216951	350338	4962.35	1	12	0.00456787	0.000257609	0	-3.26149e-05	0.055995	0.00671192	0.0563958	6.83523	4.96235e+06	4.1399e+07	4.16954e+07	-83.1648	0.0000000E+000	0.0000000E+000	0.0000000E+000	83.1648	0.0000000E+000	0.0000000E+000	0.0000000E+000	-83.1648	0.0000000E+000	0.0000000E+000	0.0000000E+000	-6.83523	0.0000000E+000	0.0000000E+000	0.0000000E+000	6.83523	8.34262	83.1648	-3.98129e-05	-4.7502e-07	100923
0.0999041	18.5425	3.09645	18.7992	-9.48047	80.4171	0.218946	-0.00377295	514486	13957.9	1	12	0.0045693	0.000243058	0	-0.000148483	0.0524671	0.0087616	0.0531937	9.48047	1.39579e+07	8.35842e+07	8.47416e+07	-80.5195	0.0000000E+000	0.0000000E+000	0.0000000E+000	80.5195	0.0000000E+000	0.0000000E+000	0.0000000E+000	-80.5195	0.0000000E+000	0.0000000E+000	0.0000000E+000	-9.48047	0.0000000E+000	0.0000000E+000	0.0000000E+000	9.48047	5.98831	80.5195	-5.83948e-05	-8.26074e-07	58030.4
0.0464052	19.7835	5.02331	20.4112	-14.2471	156.654	0.218949	-0.00317691	682753	41352.8	1	12	0.00456538	0.00022367	0	-0.000127003	0.0474858	0.0120573	0.0489926	14.2471	4.13528e+07	1.62861e+08	1.68029e+08	-75.7529	0.0000000E+000	0.0000000E+000	0.0000000E+000	75.7529	0.0000000E+000	0.0000000E+000	0.0000000E+000	-75.7529	0.0000000E+000	0.0000000E+000	0.0000000E+000	-14.2471	0.0000000E+000	0.0000000E+000	0.0000000E+000	14.2471	3.93833	75.7529	5.0854e-05	-6.95583e-07	68918.9
0.0215268	21.7688	8.04588	23.2081	-20.2847	320.884	0.218956	-0.000395028	918898	110442	1	12	0.0045675	0.000196806	0	0.000240949	0.0404162	0.0149381	0.0430884	20.2847	1.10442e+08	2.98811e+08	3.18568e+08	-69.7153	0.0000000E+000	0.0000000E+000	0.0000000E+000	69.7153	0.0000000E+000	0.0000000E+000	0.0000000E+000	-69.7153	0.0000000E+000	0.0000000E+000	0.0000000E+000	-20.2847	0.0000000E+000	0.0000000E+000	0.0000000E+000	20.2847	2.70558	69.7153	0.000210633	-8.64937e-08	554279
0.0100092	24.455	14.1131	28.2352	-29.9894	674.1	0.218951	-1.95924e-06	1.12668e+06	281490	1	12	0.00456658	0.000161734	0	0.000135233	0.0306751	0.0177027	0.0354168	29.9894	2.8149e+08	4.87762e+08	5.63159e+08	-60.0106	0.0000000E+000	0.0000000E+000	0.0000000E+000	60.0106	0.0000000E+000	0.0000000E+000	0.0000000E+000	-60.0106	0.0000000E+000	0.0000000E+000	0.0000000E+000	-29.9894	0.0000000E+000	0.0000000E+000	0.0000000E+000	29.9894	1.73279	60.0106	-0.00020789	-4.28976e-10	1.11753e+08