Folder: EIS/txt (part 178)

File: 19255_UA646_UC61_FC_SOC0_C02.mpt
EC-Lab ASCII FILE
Nb header lines : 65

Potentio Electrochemical Impedance Spectroscopy

Run on channel : 2 (SN 66139)
User :
CE vs. WE compliance from -10 V to 10 V
Electrode connection : standard
Potential control : Ewe
Ewe ctrl range : min = -5.00 V, max = 5.00 V
Safety Limits :
	Do not start on E overload
Acquisition started on : 12/11/2025 11:03:37.991
Technique started on : 12/11/2025 11:03:40.225
Loaded Setting File :  C:\Users\Celltest\OneDrive - store-dot.com\Documents\EC-Lab\Data\John\19254_UA646_UC61_FC_SOC0.mps
Saved on :
	File : 19255_UA646_UC61_FC_SOC0_C02.mpr
	Directory : C:\Users\Celltest\OneDrive - store-dot.com\Documents\EC-Lab\Data\John\
	Host : 169.254.61.224
Device : VMP-3e (SN .003165)
Address : USB
EC-LAB for windows v11.62 (software)
Internet server v27.00 (firmware)
Command interpretor v12.03 (firmware)
Electrode material :
Initial state :
Electrolyte :
Comments :
Electrode surface area : 0.001 cm²
Characteristic mass : 0.001 g
Equivalent Weight : 0.000 g/eq.
Density : 0.000 g/cm3
Volume (V) : 0.001 cm³
Record Ece
Cycle Definition : Charge/Discharge alternance
Mode                Multi sine
E (V)               0.0000
vs.                 Eoc
tE (h:m:s)          0:00:0.0000
record              0
dI                  0.000
unit dI             mA
dt (s)              0.000
fi                  1.000
unit fi             MHz
ff                  0.100
unit ff             mHz
Nd                  10
Points              per decade
spacing             Logarithmic
Va (mV)             5.0
pw                  0.10
Na                  2
corr                0
E range min (V)     -5.000
E range max (V)     5.000
I Range             Auto
Bandwidth           5
nc cycles           0
goto Ns'            0
nr cycles           0
inc. cycle          0

freq/Hz	Re(Z)/Ohm	-Im(Z)/Ohm	|Z|/Ohm	Phase(Z)/deg	time/s	<Ewe>/V	<I>/mA	Cs/µF	Cp/µF	cycle number	I Range	|Ewe|/V	|I|/A	Ns	(Q-Qo)/mA.h	<Ece>/V	|Ece|/V	Phase(Zce)/deg	|Zce|/Ohm	Re(Zce)/Ohm	-Im(Zce)/Ohm	Phase(Zwe-ce)/deg	|Zwe-ce|/Ohm	Re(Zwe-ce)/Ohm	-Im(Zwe-ce)/Ohm	Re(Y)/Ohm-1	Im(Y)/Ohm-1	|Y|/Ohm-1	Phase(Y)/deg	Re(C)/nF	Im(C)/nF	|C|/nF	Phase(C)/deg	Re(M)	Im(M)	|M|	Phase(M)/deg	Re(Permittivity)	Im(Permittivity)	|Permittivity|	Phase(Permittivity)/deg	Re(Resistivity)/Ohm.cm	Im(Resistivity)/Ohm.cm	|Resistivity|/Ohm.cm	Phase(Resistivity)/deg	Re(Conductivity)/mS/cm	Im(Conductivity)/mS/cm	|Conductivity|/mS/cm	Phase(Conductivity)/deg	Tan(Delta)	Loss Angle(Delta)/deg	dq/mA.h	Pwe/W	Pce/W	Pwe-ce/W	<Ewe-Ece>/V	Rwe/Ohm	Rce/Ohm	Rwe-ce/Ohm		Ewe-Ece/V
1.00002e+06	1.98126	2.63061	3.29325	-53.0145	2.23353	2.6487	-0.0125724	0.0605	0.0386028	1	10	0.000210701	6.39796e-05	0	-5.76389e-06	0.000156172	0.000172542	-72.7246	2.69683	0.800864	2.57518	-61.8786	5.90258	2.78213	5.20579	0.18268	0.242553	0.303651	53.0145	38.6028	29.074	48.3267	-36.9855	0.0000000E+000	0.0000000E+000	0.0000000E+000	36.9855	0.0000000E+000	0.0000000E+000	0.0000000E+000	-36.9855	0.0000000E+000	0.0000000E+000	0.0000000E+000	-53.0145	0.0000000E+000	0.0000000E+000	0.0000000E+000	53.0145	0.753157	36.9855	-5.76389e-06	-3.33005e-05	-1.96345e-09	-3.32986e-05	2.64855	210676	12.4218	210664
251206	1.49875	0.354137	1.54002	-13.2945	4.94056	2.64874	0.00175284	1.78903	0.0946035	1	9	0.00378692	0.002459	0	-6.87658e-06	-1.5646e-05	2.5736e-05	96.5582	0.010466	-0.00119535	-0.0103976	-12.9274	1.5365	1.49756	0.343739	0.63194	0.14932	0.649341	13.2945	94.6035	400.374	411.399	-76.7055	0.0000000E+000	0.0000000E+000	0.0000000E+000	76.7055	0.0000000E+000	0.0000000E+000	0.0000000E+000	-76.7055	0.0000000E+000	0.0000000E+000	0.0000000E+000	-13.2945	0.0000000E+000	0.0000000E+000	0.0000000E+000	13.2945	4.23212	76.7055	-1.50252e-07	4.64282e-06	-2.7425e-11	4.64285e-06	2.64875	1.51111e+06	8.92606	1.51112e+06
63093.8	1.97931	0.621856	2.0747	-17.4416	7.24452	2.64859	-0.00524938	4.05643	0.36443	1	9	0.00535826	0.00258267	0	3.26097e-07	-1.5646e-05	2.32935e-05	52.1297	0.00901916	0.00553665	-0.00711974	-17.2085	2.07786	1.98484	0.614736	0.459838	0.144471	0.481998	17.4416	364.43	1159.95	1215.85	-72.5584	0.0000000E+000	0.0000000E+000	0.0000000E+000	72.5584	0.0000000E+000	0.0000000E+000	0.0000000E+000	-72.5584	0.0000000E+000	0.0000000E+000	0.0000000E+000	-17.4416	0.0000000E+000	0.0000000E+000	0.0000000E+000	17.4416	3.1829	72.5584	-2.06616e-06	-1.39035e-05	8.21318e-11	-1.39035e-05	2.64861	504553	2.98054	504556
15847.7	2.63768	0.848207	2.77071	-17.8264	9.54455	2.64858	0.00387583	11.84	1.10962	1	9	0.00507266	0.00183082	0	-3.26212e-06	-9.20094e-05	2.52083e-05	-73.8448	0.0137688	0.00383105	0.0132251	-18.0618	2.77843	2.64151	0.861432	0.343591	0.110489	0.360919	17.8264	1109.62	3450.61	3624.63	-72.1736	0.0000000E+000	0.0000000E+000	0.0000000E+000	72.1736	0.0000000E+000	0.0000000E+000	0.0000000E+000	-72.1736	0.0000000E+000	0.0000000E+000	0.0000000E+000	-17.8264	0.0000000E+000	0.0000000E+000	0.0000000E+000	17.8264	3.10971	72.1736	-1.98988e-06	1.02654e-05	-3.56613e-10	1.02658e-05	2.64867	683357	23.7392	683380
3983.6	3.39544	1.08062	3.56325	-17.6541	11.1471	2.64848	-0.00390856	36.9717	3.40038	1	9	0.00531195	0.00149076	0	-4.94223e-06	-0.000149282	7.8239e-06	132.246	0.00524826	-0.0035285	-0.00388509	-17.6117	3.55871	3.39191	1.07674	0.267426	0.0851104	0.280643	17.6541	3400.38	10684.3	11212.4	-72.3459	0.0000000E+000	0.0000000E+000	0.0000000E+000	72.3459	0.0000000E+000	0.0000000E+000	0.0000000E+000	-72.3459	0.0000000E+000	0.0000000E+000	0.0000000E+000	-17.6541	0.0000000E+000	0.0000000E+000	0.0000000E+000	17.6541	3.14211	72.3459	-7.92829e-07	-1.03517e-05	5.83477e-10	-1.03523e-05	2.64863	677609	38.1936	677648
1000.32	4.26928	1.76919	4.62134	-22.5092	14.0219	2.64854	-0.0176945	89.9302	13.1802	1	10	0.00526702	0.00113972	0	-1.71409e-05	9.88991e-05	9.57863e-06	-49.5593	0.0084044	0.0054516	0.0063964	-22.5565	4.62883	4.27473	1.77559	0.199903	0.0828399	0.216387	22.5092	13180.2	31805.3	34428.1	-67.4908	0.0000000E+000	0.0000000E+000	0.0000000E+000	67.4908	0.0000000E+000	0.0000000E+000	0.0000000E+000	-67.4908	0.0000000E+000	0.0000000E+000	0.0000000E+000	-22.5092	0.0000000E+000	0.0000000E+000	0.0000000E+000	22.5092	2.41312	67.4908	-1.61556e-06	-4.68648e-05	-1.74997e-09	-4.6863e-05	2.64845	149682	5.58924	149676
251.044	6.04898	3.70371	7.09278	-31.4786	16.7231	2.64854	-0.0181565	171.172	46.6738	1	10	0.00517699	0.000729896	0	-3.16885e-05	0.00011799	8.2412e-06	80.5606	0.0112909	0.00185175	-0.0111381	-31.394	7.08855	6.05083	3.69257	0.12024	0.0736213	0.140988	31.4786	46673.8	76228.6	89382.6	-58.5214	0.0000000E+000	0.0000000E+000	0.0000000E+000	58.5214	0.0000000E+000	0.0000000E+000	0.0000000E+000	-58.5214	0.0000000E+000	0.0000000E+000	0.0000000E+000	-31.4786	0.0000000E+000	0.0000000E+000	0.0000000E+000	31.4786	1.63322	58.5214	-1.91691e-06	-4.80881e-05	-2.14228e-09	-4.8086e-05	2.64842	145873	6.4985	145867
[...]
0.0602816	43.1898	15.8208	45.9963	-20.1182	240.996	2.6485	-0.0201177	166881	19743.2	1	11	0.00500177	0.000108743	0	-0.00154088	7.98082e-05	2.54086e-07	-45.3879	0.00233657	0.00164098	0.00166335	-20.1195	45.9984	43.1914	15.8225	0.0204144	0.00747797	0.0217409	20.1182	1.97433e+07	5.38978e+07	5.74001e+07	-69.8818	0.0000000E+000	0.0000000E+000	0.0000000E+000	69.8818	0.0000000E+000	0.0000000E+000	0.0000000E+000	-69.8818	0.0000000E+000	0.0000000E+000	0.0000000E+000	-20.1182	0.0000000E+000	0.0000000E+000	0.0000000E+000	20.1182	2.72994	69.8818	0.000000000000000E+000	-5.32815e-05	-1.60555e-09	-5.32799e-05	2.64842	131650	3.96707	131646
0.00796479	70.2359	57.2064	90.585	-39.1625	20329.9	2.64843	-0.00239454	349302	139309	1	11	0.00499455	5.51366e-05	0	-0.0377812	0.000194353	2.26811e-06	-7.27794	0.0411363	0.0408049	0.00521126	-39.1487	90.62	70.2767	57.2116	0.00855945	0.00697159	0.0110394	39.1625	1.39309e+08	1.71038e+08	2.20592e+08	-50.8375	0.0000000E+000	0.0000000E+000	0.0000000E+000	50.8375	0.0000000E+000	0.0000000E+000	0.0000000E+000	-50.8375	0.0000000E+000	0.0000000E+000	0.0000000E+000	-39.1625	0.0000000E+000	0.0000000E+000	0.0000000E+000	39.1625	1.22776	50.8375	-0.0362403	-6.34178e-06	-4.65387e-10	-6.34131e-06	2.64824	1.10603e+06	81.1652	1.10595e+06
0.0019912	113.16	156.37	193.02	-54.1079	20329.9	2.64843	-0.00239454	511156	335471	1	11	0.00500809	2.5946e-05	0	-0.0377812	0.000194353	1.2853e-06	-39.1072	0.0495375	0.0384395	0.031247	-54.1041	193.068	113.198	156.401	0.00303731	0.00419709	0.00518081	54.1079	3.35471e+08	2.4277e+08	4.14099e+08	-35.8921	0.0000000E+000	0.0000000E+000	0.0000000E+000	35.8921	0.0000000E+000	0.0000000E+000	0.0000000E+000	-35.8921	0.0000000E+000	0.0000000E+000	0.0000000E+000	-54.1079	0.0000000E+000	0.0000000E+000	0.0000000E+000	54.1079	0.723669	35.8921	0.000000000000000E+000	-6.34178e-06	-4.65387e-10	-6.34131e-06	2.64824	1.10603e+06	81.1652	1.10595e+06
0.000497799	251.005	434.059	501.408	-59.9603	20329.9	2.64843	-0.00239454	736576	551990	1	11	0.00500952	9.99091e-06	0	-0.0377812	0.000194353	1.26704e-06	16.3965	0.126819	0.121662	-0.035799	-59.9462	501.438	251.126	434.023	0.000998387	0.0017265	0.00199438	59.9603	5.5199e+08	3.19202e+08	6.37639e+08	-30.0397	0.0000000E+000	0.0000000E+000	0.0000000E+000	30.0397	0.0000000E+000	0.0000000E+000	0.0000000E+000	-30.0397	0.0000000E+000	0.0000000E+000	0.0000000E+000	-59.9603	0.0000000E+000	0.0000000E+000	0.0000000E+000	59.9603	0.578274	30.0397	0.000000000000000E+000	-6.34178e-06	-4.65387e-10	-6.34131e-06	2.64824	1.10603e+06	81.1652	1.10595e+06
9.95598e-05	-846.775	1143.75	1423.09	-126.514	20329.9	2.64843	-0.00239454	1.39767e+06	902819	1	11	0.00501575	3.52454e-06	0	-0.0377812	0.000194353	2.34203e-06	95.675	0.664492	-0.0657087	-0.661236	-126.532	1422.6	-846.841	1143.09	-0.00041812	0.000564761	0.000702694	126.514	9.02819e+08	-6.68401e+08	1.12332e+09	36.5144	0.0000000E+000	0.0000000E+000	0.0000000E+000	-36.5144	0.0000000E+000	0.0000000E+000	0.0000000E+000	36.5144	0.0000000E+000	0.0000000E+000	0.0000000E+000	-126.514	0.0000000E+000	0.0000000E+000	0.0000000E+000	126.514	0.740349	36.5143	0.000000000000000E+000	-6.34178e-06	-4.65387e-10	-6.34131e-06	2.64824	1.10603e+06	81.1652	1.10595e+06

File: 19317_R313_UC97_SOC50_C01.mpt
EC-Lab ASCII FILE
Nb header lines : 65

Potentio Electrochemical Impedance Spectroscopy

Run on channel : 1 (SN 66354)
User :
CE vs. WE compliance from -10 V to 10 V
Electrode connection : standard
Potential control : Ewe
Ewe ctrl range : min = -10.00 V, max = 10.00 V
Safety Limits :
	Do not start on E overload
Acquisition started on : 11/18/2025 16:31:48.690
Technique started on : 11/18/2025 16:31:51.384
Loaded Setting File :  C:\Users\Celltest\OneDrive - store-dot.com\Documents\EC-Lab\Data\txt_done\19191_R297_UC94_SOC50_C08.mpr
Saved on :
	File : 19317_R313_UC97_SOC50_C01.mpr
	Directory : C:\Users\Celltest\OneDrive - store-dot.com\Documents\EC-Lab\Data\Michael\
	Host : 169.254.61.224
Device : VMP-3e (SN .003165)
Address : USB
EC-LAB for windows v11.62 (software)
Internet server v27.00 (firmware)
Command interpretor v12.03 (firmware)
Electrode material :
Initial state :
Electrolyte :
Comments :
Electrode surface area : 0.001 cm²
Characteristic mass : 0.001 g
Equivalent Weight : 0.000 g/eq.
Density : 0.000 g/cm3
Volume (V) : 0.001 cm³
Record Ece
Cycle Definition : Charge/Discharge alternance
Mode                Multi sine
E (V)               0.0000
vs.                 Eoc
tE (h:m:s)          0:00:0.0000
record              0
dI                  0.000
unit dI             mA
dt (s)              0.000
fi                  1.000
unit fi             MHz
ff                  0.100
unit ff             mHz
Nd                  10
Points              per decade
spacing             Logarithmic
Va (mV)             5.0
pw                  0.10
Na                  2
corr                0
E range min (V)     -10.000
E range max (V)     10.000
I Range             Auto
Bandwidth           5
nc cycles           0
goto Ns'            0
nr cycles           0
inc. cycle          0

freq/Hz	Re(Z)/Ohm	-Im(Z)/Ohm	|Z|/Ohm	Phase(Z)/deg	time/s	<Ewe>/V	<I>/mA	Cs/µF	Cp/µF	cycle number	I Range	|Ewe|/V	|I|/A	Ns	(Q-Qo)/mA.h	<Ece>/V	|Ece|/V	Phase(Zce)/deg	|Zce|/Ohm	Re(Zce)/Ohm	-Im(Zce)/Ohm	Phase(Zwe-ce)/deg	|Zwe-ce|/Ohm	Re(Zwe-ce)/Ohm	-Im(Zwe-ce)/Ohm	Re(Y)/Ohm-1	Im(Y)/Ohm-1	|Y|/Ohm-1	Phase(Y)/deg	Re(C)/nF	Im(C)/nF	|C|/nF	Phase(C)/deg	Re(M)	Im(M)	|M|	Phase(M)/deg	Re(Permittivity)	Im(Permittivity)	|Permittivity|	Phase(Permittivity)/deg	Re(Resistivity)/Ohm.cm	Im(Resistivity)/Ohm.cm	|Resistivity|/Ohm.cm	Phase(Resistivity)/deg	Re(Conductivity)/mS/cm	Im(Conductivity)/mS/cm	|Conductivity|/mS/cm	Phase(Conductivity)/deg	Tan(Delta)	Loss Angle(Delta)/deg	dq/mA.h	Pwe/W	Pce/W	Pwe-ce/W	<Ewe-Ece>/V	Rwe/Ohm	Rce/Ohm	Rwe-ce/Ohm		Ewe-Ece/V
1.00002e+06	1.06136	-0.236012	1.08728	12.5368	2.69352	3.88354	0.0863137	-0.67434	-0.0317733	1	9	0.000215991	0.000198653	0	-1.35195e-05	-0.000389938	0.000192914	-4.86594	0.971112	0.967612	0.0823742	4.33028	2.03478	2.02897	-0.153637	0.897797	-0.199641	0.919726	-12.5368	-31.7733	142.886	146.376	-102.537	0.0000000E+000	0.0000000E+000	0.0000000E+000	102.537	0.0000000E+000	0.0000000E+000	0.0000000E+000	-102.537	0.0000000E+000	0.0000000E+000	0.0000000E+000	12.5368	0.0000000E+000	0.0000000E+000	0.0000000E+000	-12.5368	4.49705	77.4632	-1.35195e-05	0.000335203	-3.3657e-08	0.000335237	3.88393	44993.4	4.51768	44997.9
251206	0.72642	0.258201	0.770943	-19.5674	4.99454	3.88324	0.039038	2.45376	0.275235	1	9	0.0019516	0.00253144	0	9.77051e-06	-8.3915e-06	6.10797e-05	113.889	0.0241284	-0.00977106	-0.0220615	-18.2373	0.754551	0.716649	0.23614	1.2222	0.434423	1.29711	19.5674	275.235	774.342	821.802	-70.4326	0.0000000E+000	0.0000000E+000	0.0000000E+000	70.4326	0.0000000E+000	0.0000000E+000	0.0000000E+000	-70.4326	0.0000000E+000	0.0000000E+000	0.0000000E+000	-19.5674	0.0000000E+000	0.0000000E+000	0.0000000E+000	19.5674	2.81339	70.4326	3.25371e-06	0.000151594	-3.27587e-10	0.000151594	3.88325	99473.5	0.214957	99473.7
63093.8	1.16123	0.454621	1.24705	-21.3803	7.29256	3.88319	0.0396713	5.54861	0.737422	1	9	0.00532184	0.00426755	0	-1.22334e-05	0.000163304	2.93493e-05	56.609	0.00687733	0.00378493	-0.00574211	-21.0716	1.2485	1.16501	0.448878	0.746708	0.292336	0.801894	21.3803	737.422	1883.58	2022.79	-68.6197	0.0000000E+000	0.0000000E+000	0.0000000E+000	68.6197	0.0000000E+000	0.0000000E+000	0.0000000E+000	-68.6197	0.0000000E+000	0.0000000E+000	0.0000000E+000	-21.3803	0.0000000E+000	0.0000000E+000	0.0000000E+000	21.3803	2.55428	68.6197	7.04965e-06	0.000154051	6.4785e-09	0.000154045	3.88302	97883.9	4.11643	97879.8
15847.7	1.56194	0.435594	1.62155	-15.5827	9.59355	3.88318	0.0374733	23.0554	1.66371	1	9	0.00508558	0.00313626	0	2.16269e-05	0.000220536	6.60328e-06	22.6478	0.00210547	0.00194311	-0.000810742	-15.5367	1.6232	1.56389	0.434784	0.594028	0.165662	0.616696	15.5827	1663.71	5965.7	6193.35	-74.4173	0.0000000E+000	0.0000000E+000	0.0000000E+000	74.4173	0.0000000E+000	0.0000000E+000	0.0000000E+000	-74.4173	0.0000000E+000	0.0000000E+000	0.0000000E+000	-15.5827	0.0000000E+000	0.0000000E+000	0.0000000E+000	15.5827	3.58577	74.4173	5.13801e-06	0.000145516	8.26422e-09	0.000145507	3.88296	103625	5.88516	103619
3983.6	1.89856	0.502115	1.96384	-14.8139	11.4421	3.88306	-0.0154651	79.5685	5.20161	1	9	0.00522995	0.00266313	0	3.49699e-05	0.000163304	1.57353e-05	-32.0998	0.00590859	0.0050053	0.00313979	-14.865	1.96948	1.90356	0.505255	0.492282	0.130195	0.509208	14.8139	5201.61	19667.9	20344.1	-75.1861	0.0000000E+000	0.0000000E+000	0.0000000E+000	75.1861	0.0000000E+000	0.0000000E+000	0.0000000E+000	-75.1861	0.0000000E+000	0.0000000E+000	0.0000000E+000	-14.8139	0.0000000E+000	0.0000000E+000	0.0000000E+000	14.8139	3.78112	75.1861	-2.48472e-06	-6.0052e-05	-2.52552e-09	-6.00495e-05	3.8829	251085	10.5595	251074
1000.32	2.32758	0.812459	2.46531	-19.2419	14.0708	3.88306	0.00208166	195.83	21.2687	1	9	0.00512641	0.00207942	0	2.90815e-05	0.000163304	1.31613e-05	75.5598	0.00632931	0.00157834	-0.00612936	-19.0953	2.46479	2.32916	0.80633	0.382969	0.133678	0.405629	19.2419	21268.7	60931.9	64537.2	-70.7581	0.0000000E+000	0.0000000E+000	0.0000000E+000	70.7581	0.0000000E+000	0.0000000E+000	0.0000000E+000	-70.7581	0.0000000E+000	0.0000000E+000	0.0000000E+000	-19.2419	0.0000000E+000	0.0000000E+000	0.0000000E+000	19.2419	2.86486	70.7581	1.97957e-06	8.08321e-06	3.39944e-10	8.08287e-06	3.8829	1.86537e+06	78.4491	1.86529e+06
251.044	3.41438	1.4368	3.70438	-22.8217	17.017	3.88309	-0.0509551	441.239	66.3797	1	10	0.00509349	0.00137499	0	6.0467e-06	0.000106072	1.54547e-05	77.115	0.0112398	0.00250642	-0.0109568	-22.6504	3.70245	3.41689	1.42584	0.248818	0.104705	0.269951	22.8217	66379.7	157744	171141	-67.1783	0.0000000E+000	0.0000000E+000	0.0000000E+000	67.1783	0.0000000E+000	0.0000000E+000	0.0000000E+000	-67.1783	0.0000000E+000	0.0000000E+000	0.0000000E+000	-22.8217	0.0000000E+000	0.0000000E+000	0.0000000E+000	22.8217	2.37638	67.1783	-6.35352e-06	-0.000197864	-5.40493e-09	-0.000197858	3.88299	76206.1	2.08168	76204
[...]
0.0602816	6.56081	1.08365	6.6497	-9.37884	240.57	3.8831	-0.0292995	2.4364e+06	64702.1	1	11	0.005029	0.000756275	0	-0.00530549	-4.65461e-05	7.49832e-07	10.3946	0.00099148	0.000975209	-0.00017889	-9.37595	6.65063	6.56178	1.08347	0.148372	0.0245066	0.150383	9.37884	6.47021e+07	3.91732e+08	3.97039e+08	-80.6212	0.0000000E+000	0.0000000E+000	0.0000000E+000	80.6212	0.0000000E+000	0.0000000E+000	0.0000000E+000	-80.6212	0.0000000E+000	0.0000000E+000	0.0000000E+000	-9.37884	0.0000000E+000	0.0000000E+000	0.0000000E+000	9.37884	6.05438	80.6212	0.000000000000000E+000	-0.000113773	1.36378e-09	-0.000113774	3.88315	132531	1.58863	132533
0.00796479	8.35501	2.36072	8.68212	-15.7777	20329.5	3.88316	-4.02775e-06	8.4645e+06	625806	1	11	0.00502293	0.000578538	0	-0.0661997	-4.65461e-05	4.07308e-07	-8.48939	0.000704029	0.000696316	0.000103933	-15.7771	8.68281	8.3557	2.36082	0.11084	0.031318	0.115179	15.7777	6.25806e+08	2.21484e+09	2.30155e+09	-74.2223	0.0000000E+000	0.0000000E+000	0.0000000E+000	74.2223	0.0000000E+000	0.0000000E+000	0.0000000E+000	-74.2223	0.0000000E+000	0.0000000E+000	0.0000000E+000	-15.7777	0.0000000E+000	0.0000000E+000	0.0000000E+000	15.7777	3.53918	74.2223	-0.0608942	-1.56404e-08	1.87476e-13	-1.56406e-08	3.8832	9.64101e+08	11556.4	9.64112e+08
0.0019912	9.92208	4.05081	10.7171	-22.2083	20329.5	3.88316	-4.02775e-06	1.97317e+07	2.81897e+06	1	11	0.00503471	0.000469782	0	-0.0661997	-4.65461e-05	6.18125e-07	-46.7356	0.00131577	0.000901786	0.000958143	-22.2112	10.7183	9.92299	4.05177	0.0863866	0.0352683	0.0933086	22.2083	2.81897e+09	6.90482e+09	7.45809e+09	-67.7917	0.0000000E+000	0.0000000E+000	0.0000000E+000	67.7917	0.0000000E+000	0.0000000E+000	0.0000000E+000	-67.7917	0.0000000E+000	0.0000000E+000	0.0000000E+000	-22.2083	0.0000000E+000	0.0000000E+000	0.0000000E+000	22.2083	2.44941	67.7917	0.000000000000000E+000	-1.56404e-08	1.87476e-13	-1.56406e-08	3.8832	9.64101e+08	11556.4	9.64112e+08
0.000497799	10.5713	11.2138	15.4111	-46.6894	20329.5	3.88316	-4.02775e-06	2.85111e+07	1.50957e+07	1	11	0.00503922	0.000326987	0	-0.0661997	-4.65461e-05	5.34578e-07	-8.72044	0.00163486	0.00161596	0.000247866	-46.6857	15.4123	10.5729	11.214	0.0445104	0.0472159	0.0648885	46.6894	1.50957e+10	1.42307e+10	2.0746e+10	-43.3106	0.0000000E+000	0.0000000E+000	0.0000000E+000	43.3106	0.0000000E+000	0.0000000E+000	0.0000000E+000	-43.3106	0.0000000E+000	0.0000000E+000	0.0000000E+000	-46.6894	0.0000000E+000	0.0000000E+000	0.0000000E+000	46.6894	0.9427	43.3106	0.000000000000000E+000	-1.56404e-08	1.87476e-13	-1.56406e-08	3.8832	9.64101e+08	11556.4	9.64112e+08
9.95598e-05	5.9119	80.299	80.5163	-85.7893	20329.5	3.88316	-4.02775e-06	1.99079e+07	1.98006e+07	1	11	0.00503242	6.25019e-05	0	-0.0661997	-4.65461e-05	1.37564e-06	-49.2394	0.0220096	0.0143701	0.016671	-85.7799	80.534	5.92627	80.3157	0.000911925	0.0123863	0.0124198	85.7893	1.98006e+10	1.45779e+09	1.98542e+10	-4.21072	0.0000000E+000	0.0000000E+000	0.0000000E+000	4.21072	0.0000000E+000	0.0000000E+000	0.0000000E+000	-4.21072	0.0000000E+000	0.0000000E+000	0.0000000E+000	-85.7893	0.0000000E+000	0.0000000E+000	0.0000000E+000	85.7893	0.0736236	4.21072	0.000000000000000E+000	-1.56404e-08	1.87476e-13	-1.56406e-08	3.8832	9.64101e+08	11556.4	9.64112e+08