Folder: EIS/txt (part 158)

File: 19071_R307_UA701_4p38_SOC00_C08.mpt
EC-Lab ASCII FILE
Nb header lines : 65

Potentio Electrochemical Impedance Spectroscopy

Run on channel : 8 (SN 65398)
Grouped channel(s) : 6, 7, 8
User :
CE vs. WE compliance from -10 V to 10 V
Electrode connection : standard
Potential control : Ewe
Ewe ctrl range : min = -10.00 V, max = 10.00 V
Safety Limits :
	Do not start on E overload
Acquisition started on : 11/12/2025 10:26:23.601
Loaded Setting File :  C:\Users\Celltest\OneDrive - store-dot.com\Documents\EC-Lab\Data\@Biologic Test Protocols\anode half cell EIS SOC00.mps
Saved on :
	File : 19067_R307_UA701_4p38_SOC00_C08.mpr
	Directory : C:\Users\Celltest\OneDrive - store-dot.com\Documents\EC-Lab\Data\Anna\
	Host : 169.254.61.224
Device : VMP-3e (SN .003165)
Address : USB
EC-LAB for windows v11.62 (software)
Internet server v27.00 (firmware)
Command interpretor v12.03 (firmware)
Electrode material :
Initial state :
Electrolyte :
Comments :
Electrode surface area : 0.001 cm²
Characteristic mass : 0.001 g
Equivalent Weight : 0.000 g/eq.
Density : 0.000 g/cm3
Volume (V) : 0.001 cm³
Record Ece
Cycle Definition : Charge/Discharge alternance
Mode                Single sine
E (V)               0.0000
vs.                 Eoc
tE (h:m:s)          0:00:0.0000
record              0
dI                  0.000
unit dI             mA
dt (s)              0.000
fi                  100.000
unit fi             kHz
ff                  10.000
unit ff             mHz
Nd                  6
Points              per decade
spacing             Logarithmic
Va (mV)             5.0
pw                  0.10
Na                  2
corr                0
E range min (V)     -10.000
E range max (V)     10.000
I Range             Auto
Bandwidth           5
nc cycles           0
goto Ns'            0
nr cycles           0
inc. cycle          0

freq/Hz	Re(Z)/Ohm	-Im(Z)/Ohm	|Z|/Ohm	Phase(Z)/deg	time/s	<Ewe>/V	<I>/mA	Cs/µF	Cp/µF	cycle number	I Range	|Ewe|/V	|I|/A	Ns	(Q-Qo)/mA.h	<Ece>/V	|Ece|/V	Phase(Zce)/deg	|Zce|/Ohm	Re(Zce)/Ohm	-Im(Zce)/Ohm	Phase(Zwe-ce)/deg	|Zwe-ce|/Ohm	Re(Zwe-ce)/Ohm	-Im(Zwe-ce)/Ohm	Re(Y)/Ohm-1	Im(Y)/Ohm-1	|Y|/Ohm-1	Phase(Y)/deg	Re(C)/nF	Im(C)/nF	|C|/nF	Phase(C)/deg	Re(M)	Im(M)	|M|	Phase(M)/deg	Re(Permittivity)	Im(Permittivity)	|Permittivity|	Phase(Permittivity)/deg	Re(Resistivity)/Ohm.cm	Im(Resistivity)/Ohm.cm	|Resistivity|/Ohm.cm	Phase(Resistivity)/deg	Re(Conductivity)/mS/cm	Im(Conductivity)/mS/cm	|Conductivity|/mS/cm	Phase(Conductivity)/deg	Tan(Delta)	Loss Angle(Delta)/deg	dq/mA.h	Pwe/W	Pce/W	Pwe-ce/W	<Ewe-Ece>/V	Rwe/Ohm	Rce/Ohm	Rwe-ce/Ohm		Ewe-Ece/V
100004	1.07208	0.373927	1.13542	-19.228	1.72652	0.263234	0.00163933	4.25616	0.461612	1	9	0.00451955	0.00398051	0	-4.56664e-07	0.00024868	5.2297e-05	81.3884	0.0131383	0.00196726	-0.0129902	-18.575	1.13307	1.07405	0.360936	0.8316	0.29005	0.880731	19.228	461.612	1323.48	1401.68	-70.772	0.0000000E+000	0.0000000E+000	0.0000000E+000	70.772	0.0000000E+000	0.0000000E+000	0.0000000E+000	-70.772	0.0000000E+000	0.0000000E+000	0.0000000E+000	-19.228	0.0000000E+000	0.0000000E+000	0.0000000E+000	19.228	2.86709	70.772	-4.56664e-07	4.31527e-07	4.07668e-10	4.3112e-07	0.262986	160575	151.696	160423
31621.1	1.3833	0.496274	1.46963	-19.7359	3.12352	0.263247	0.0130976	10.1419	1.1565	1	9	0.00508163	0.00345776	0	-4.31489e-06	7.68873e-05	1.84762e-05	26.7903	0.00534341	0.00476986	-0.00240842	-19.5851	1.47331	1.38807	0.493865	0.640473	0.229776	0.680443	19.7359	1156.5	3223.61	3424.79	-70.2641	0.0000000E+000	0.0000000E+000	0.0000000E+000	70.2641	0.0000000E+000	0.0000000E+000	0.0000000E+000	-70.2641	0.0000000E+000	0.0000000E+000	0.0000000E+000	-19.7359	0.0000000E+000	0.0000000E+000	0.0000000E+000	19.7359	2.78738	70.2641	8.16647e-07	3.44791e-06	1.00704e-09	3.4469e-06	0.26317	20098.9	5.87033	20093
10002.2	1.75149	0.670971	1.87561	-20.9612	4.14855	0.263241	0.00781489	23.7148	3.03489	1	9	0.00512449	0.00273218	0	-1.95436e-05	3.87112e-05	2.90696e-06	-18.2693	0.00106397	0.00101034	0.000333537	-20.9597	1.87667	1.7525	0.671305	0.497878	0.19073	0.533161	20.9612	3034.89	7922.21	8483.63	-69.0388	0.0000000E+000	0.0000000E+000	0.0000000E+000	69.0388	0.0000000E+000	0.0000000E+000	0.0000000E+000	-69.0388	0.0000000E+000	0.0000000E+000	0.0000000E+000	-20.9612	0.0000000E+000	0.0000000E+000	0.0000000E+000	20.9612	2.61037	69.0388	-6.37733e-07	2.0572e-06	3.02523e-10	2.05689e-06	0.263202	33684.5	4.95352	33679.6
3163.08	2.27533	1.00148	2.48598	-23.7564	5.04664	0.263025	-0.0698634	50.2423	8.1537	1	9	0.00478634	0.00192533	0	-2.76757e-05	7.68873e-05	6.18478e-06	19.5684	0.00321232	0.00302678	-0.00107591	-23.7057	2.48832	2.27836	1.0004	0.368171	0.162048	0.402256	23.7564	8153.7	18525.1	20240.1	-66.2436	0.0000000E+000	0.0000000E+000	0.0000000E+000	66.2436	0.0000000E+000	0.0000000E+000	0.0000000E+000	-66.2436	0.0000000E+000	0.0000000E+000	0.0000000E+000	-23.7564	0.0000000E+000	0.0000000E+000	0.0000000E+000	23.7564	2.27198	66.2436	-7.88399e-06	-1.83758e-05	-5.37161e-09	-1.83705e-05	0.262948	3764.85	1.10054	3763.75
1000.32	3.02029	1.55592	3.39751	-27.2556	6.64481	0.26313	-0.0248528	102.257	21.4461	1	10	0.00476133	0.00140142	0	-3.09549e-05	5.77992e-05	1.86131e-05	33.3655	0.0132816	0.0110925	-0.00730461	-27.0608	3.40404	3.03138	1.54862	0.261654	0.134793	0.294333	27.2556	21446.1	41630.3	46829.6	-62.7444	0.0000000E+000	0.0000000E+000	0.0000000E+000	62.7444	0.0000000E+000	0.0000000E+000	0.0000000E+000	-62.7444	0.0000000E+000	0.0000000E+000	0.0000000E+000	-27.2556	0.0000000E+000	0.0000000E+000	0.0000000E+000	27.2556	1.94116	62.7444	-5.25494e-06	-6.53953e-06	-1.43647e-09	-6.53809e-06	0.263073	10587.5	2.32566	10585.2
316.316	4.26742	2.6984	5.04899	-32.3062	7.99508	0.263129	-0.0240233	186.463	53.2595	1	10	0.00464458	0.000919903	0	-3.97497e-05	0.000210504	1.27823e-05	-3.22998	0.0138953	0.0138732	0.000782916	-32.2298	5.06113	4.2813	2.69918	0.167401	0.105852	0.19806	32.3062	53259.5	84228	99654.1	-57.6938	0.0000000E+000	0.0000000E+000	0.0000000E+000	57.6938	0.0000000E+000	0.0000000E+000	0.0000000E+000	-57.6938	0.0000000E+000	0.0000000E+000	0.0000000E+000	-32.3062	0.0000000E+000	0.0000000E+000	0.0000000E+000	32.3062	1.58146	57.6938	-3.02302e-06	-6.32121e-06	-5.05699e-09	-6.31615e-06	0.262918	10953.1	8.76249	10944.3
100.032	7.00601	4.23772	8.18795	-31.1685	9.34285	0.263124	-0.0233239	375.447	100.569	1	10	0.00461228	0.000563301	0	-4.91303e-05	0.000191416	1.01334e-05	-86.0408	0.0179893	0.00124209	0.0179463	-31.2713	8.19831	7.00725	4.25567	0.104501	0.0632095	0.122131	31.1685	100569	166265	194315	-58.8315	0.0000000E+000	0.0000000E+000	0.0000000E+000	58.8315	0.0000000E+000	0.0000000E+000	0.0000000E+000	-58.8315	0.0000000E+000	0.0000000E+000	0.0000000E+000	-31.1685	0.0000000E+000	0.0000000E+000	0.0000000E+000	31.1685	1.65325	58.8315	-2.33834e-06	-6.13709e-06	-4.46456e-09	-6.13262e-06	0.262933	11281.3	8.20683	11273.1
[...]
1.00006	17.1277	1.56301	17.1989	-5.21417	19.4089	0.263169	-0.00758997	101819	840.921	1	12	0.00461508	0.000268336	0	-7.26968e-05	0.000134151	1.59e-06	75.7844	0.00592541	0.00145511	-0.00574396	-5.19467	17.1998	17.1292	1.55727	0.0579028	0.005284	0.0581434	5.21417	840921	9.21492e+06	9.25321e+06	-84.7858	0.0000000E+000	0.0000000E+000	0.0000000E+000	84.7858	0.0000000E+000	0.0000000E+000	0.0000000E+000	-84.7858	0.0000000E+000	0.0000000E+000	0.0000000E+000	-5.21417	0.0000000E+000	0.0000000E+000	0.0000000E+000	5.21417	10.9581	84.7858	2.69272e-06	-1.99744e-06	-1.01821e-09	-1.99643e-06	0.263035	34673.2	17.6748	34655.6
0.316193	17.8256	1.57025	17.8946	-5.03416	33.7528	0.263172	-0.00299379	320553	2468.26	1	12	0.00461667	0.000257992	0	-0.000101375	0.00024868	3.13803e-06	-7.57151	0.0121633	0.0120573	0.00160268	-5.03588	17.9068	17.8377	1.57185	0.0556671	0.00490368	0.0558826	5.03416	2.46825e+06	2.80199e+07	2.81284e+07	-84.9658	0.0000000E+000	0.0000000E+000	0.0000000E+000	84.9658	0.0000000E+000	0.0000000E+000	0.0000000E+000	-84.9658	0.0000000E+000	0.0000000E+000	0.0000000E+000	-5.03416	0.0000000E+000	0.0000000E+000	0.0000000E+000	5.03416	11.3521	84.9658	-2.2893e-05	-7.8788e-07	-7.44494e-10	-7.87135e-07	0.262923	87906	83.0653	87822.9
0.0999041	18.7305	2.74561	18.9306	-8.33933	78.9609	0.263166	-0.0041627	580227	12205.2	1	12	0.00461098	0.000243572	0	-0.000242225	-1.8553e-05	1.95281e-06	3.61712	0.00801737	0.0080014	-0.000505807	-8.3343	18.9385	18.7385	2.74511	0.0522659	0.00766141	0.0528244	8.33933	1.22052e+07	8.32636e+07	8.41534e+07	-81.6607	0.0000000E+000	0.0000000E+000	0.0000000E+000	81.6607	0.0000000E+000	0.0000000E+000	0.0000000E+000	-81.6607	0.0000000E+000	0.0000000E+000	0.0000000E+000	-8.33933	0.0000000E+000	0.0000000E+000	0.0000000E+000	8.33933	6.82197	81.6607	-4.50131e-05	-1.09548e-06	7.72304e-11	-1.09556e-06	0.263185	63220.2	4.45696	63224.6
0.0315922	20.3073	5.89832	21.1466	-16.1961	221.843	0.263167	-0.000962968	854106	66449	1	12	0.00461147	0.000218072	0	2.23183e-06	0.000134151	3.14004e-06	-15.8389	0.0143991	0.0138524	0.00392999	-16.1959	21.161	20.3212	5.90225	0.0454122	0.0131901	0.047289	16.1961	6.6449e+07	2.28777e+08	2.38232e+08	-73.8039	0.0000000E+000	0.0000000E+000	0.0000000E+000	73.8039	0.0000000E+000	0.0000000E+000	0.0000000E+000	-73.8039	0.0000000E+000	0.0000000E+000	0.0000000E+000	-16.1961	0.0000000E+000	0.0000000E+000	0.0000000E+000	16.1961	3.4429	73.8039	0.000175201	-2.53421e-07	-1.29184e-10	-2.53292e-07	0.263033	273288	139.31	273148
0.0100092	23.6104	14.0452	27.4721	-30.7473	673.066	0.263165	0.000343168	1.13213e+06	295914	1	12	0.00461249	0.000167897	0	-0.000106546	3.87112e-05	2.50591e-06	-16.2127	0.0149252	0.0143317	0.0041672	-30.7395	27.4865	23.6247	14.0494	0.0312838	0.0186099	0.0364006	30.7473	2.95914e+08	4.9744e+08	5.78802e+08	-59.2527	0.0000000E+000	0.0000000E+000	0.0000000E+000	59.2527	0.0000000E+000	0.0000000E+000	0.0000000E+000	-59.2527	0.0000000E+000	0.0000000E+000	0.0000000E+000	-30.7473	0.0000000E+000	0.0000000E+000	0.0000000E+000	30.7473	1.68103	59.2527	-0.000322289	9.03098e-08	1.32845e-11	9.02965e-08	0.263126	766867	112.805	766754

File: 19077_R307_UC93_28_SOC50_C01.mpt
EC-Lab ASCII FILE
Nb header lines : 66

Potentio Electrochemical Impedance Spectroscopy

Run on channel : 1 (SN 66354)
Grouped channel(s) : 1, 2, 3, 4, 5
User :
CE vs. WE compliance from -10 V to 10 V
Electrode connection : standard
Potential control : Ewe
Ewe ctrl range : min = -10.00 V, max = 10.00 V
Safety Limits :
	Do not start on E overload
Acquisition started on : 11/10/2025 15:44:01.793
Technique started on : 11/10/2025 15:44:04.028
Loaded Setting File :  C:\Users\Celltest\OneDrive - store-dot.com\Documents\EC-Lab\Data\@Biologic Test Protocols\cathode half cell EIS SOC50.mps
Saved on :
	File : 19077_R307_UC93_28_SOC50_C01.mpr
	Directory : C:\Users\Celltest\OneDrive - store-dot.com\Documents\EC-Lab\Data\Anna\
	Host : 169.254.61.224
Device : VMP-3e (SN .003165)
Address : USB
EC-LAB for windows v11.62 (software)
Internet server v27.00 (firmware)
Command interpretor v12.03 (firmware)
Electrode material :
Initial state :
Electrolyte :
Comments :
Electrode surface area : 0.001 cm²
Characteristic mass : 0.001 g
Equivalent Weight : 0.000 g/eq.
Density : 0.000 g/cm3
Volume (V) : 0.001 cm³
Record Ece
Cycle Definition : Charge/Discharge alternance
Mode                Multi sine
E (V)               0.0000
vs.                 Eoc
tE (h:m:s)          0:00:0.0000
record              0
dI                  0.000
unit dI             mA
dt (s)              0.000
fi                  1.000
unit fi             MHz
ff                  0.100
unit ff             mHz
Nd                  10
Points              per decade
spacing             Logarithmic
Va (mV)             5.0
pw                  0.10
Na                  2
corr                0
E range min (V)     -10.000
E range max (V)     10.000
I Range             Auto
Bandwidth           5
nc cycles           0
goto Ns'            0
nr cycles           0
inc. cycle          0

freq/Hz	Re(Z)/Ohm	-Im(Z)/Ohm	|Z|/Ohm	Phase(Z)/deg	time/s	<Ewe>/V	<I>/mA	Cs/µF	Cp/µF	cycle number	I Range	|Ewe|/V	|I|/A	Ns	(Q-Qo)/mA.h	<Ece>/V	|Ece|/V	Phase(Zce)/deg	|Zce|/Ohm	Re(Zce)/Ohm	-Im(Zce)/Ohm	Phase(Zwe-ce)/deg	|Zwe-ce|/Ohm	Re(Zwe-ce)/Ohm	-Im(Zwe-ce)/Ohm	Re(Y)/Ohm-1	Im(Y)/Ohm-1	|Y|/Ohm-1	Phase(Y)/deg	Re(C)/nF	Im(C)/nF	|C|/nF	Phase(C)/deg	Re(M)	Im(M)	|M|	Phase(M)/deg	Re(Permittivity)	Im(Permittivity)	|Permittivity|	Phase(Permittivity)/deg	Re(Resistivity)/Ohm.cm	Im(Resistivity)/Ohm.cm	|Resistivity|/Ohm.cm	Phase(Resistivity)/deg	Re(Conductivity)/mS/cm	Im(Conductivity)/mS/cm	|Conductivity|/mS/cm	Phase(Conductivity)/deg	Tan(Delta)	Loss Angle(Delta)/deg	dq/mA.h	Pwe/W	Pce/W	Pwe-ce/W	<Ewe-Ece>/V	Rwe/Ohm	Rce/Ohm	Rwe-ce/Ohm		Ewe-Ece/V
1.00002e+06	2.44215	2.76913	3.69218	-48.5904	2.23455	3.97113	-0.0128547	0.0574736	0.0323289	1	10	0.000242292	6.5623e-05	0	-5.88195e-06	0.000214098	0.000186123	-71.3922	2.83625	0.905013	2.68798	-58.4768	6.40184	3.34716	5.45712	0.179146	0.203132	0.270843	48.5904	32.3289	28.5114	43.1052	-41.4096	0.0000000E+000	0.0000000E+000	0.0000000E+000	41.4096	0.0000000E+000	0.0000000E+000	0.0000000E+000	-41.4096	0.0000000E+000	0.0000000E+000	0.0000000E+000	-48.5904	0.0000000E+000	0.0000000E+000	0.0000000E+000	48.5904	0.881918	41.4097	-5.88195e-06	-5.10476e-05	-2.75216e-09	-5.10449e-05	3.97092	308925	16.6552	308908
251206	1.61709	0.42587	1.67222	-14.7542	4.93954	3.97072	-0.00879659	1.48769	0.096489	1	9	0.00430537	0.00257464	0	-5.52346e-06	4.24746e-06	5.68078e-05	114.381	0.0220644	-0.00910832	-0.0200966	-14.1629	1.65839	1.60798	0.405773	0.578288	0.152296	0.598006	14.7542	96.4891	366.382	378.874	-75.2458	0.0000000E+000	0.0000000E+000	0.0000000E+000	75.2458	0.0000000E+000	0.0000000E+000	0.0000000E+000	-75.2458	0.0000000E+000	0.0000000E+000	0.0000000E+000	-14.7542	0.0000000E+000	0.0000000E+000	0.0000000E+000	14.7542	3.79714	75.2458	5.10137e-07	-3.49288e-05	-3.73632e-11	-3.49288e-05	3.97072	451394	0.482853	451393
63093.8	2.25866	1.01005	2.47422	-24.0937	7.36155	3.97073	0.0211559	2.49741	0.416198	1	9	0.00502052	0.00202913	0	1.15683e-05	0.000290407	3.13407e-05	71.8688	0.0154454	0.00480651	-0.0146785	-23.7378	2.47266	2.26347	0.995373	0.368956	0.164994	0.404168	24.0937	416.198	930.697	1019.52	-65.9063	0.0000000E+000	0.0000000E+000	0.0000000E+000	65.9063	0.0000000E+000	0.0000000E+000	0.0000000E+000	-65.9063	0.0000000E+000	0.0000000E+000	0.0000000E+000	-24.0937	0.0000000E+000	0.0000000E+000	0.0000000E+000	24.0937	2.23619	65.9063	-3.46403e-06	8.40042e-05	6.14382e-09	8.3998e-05	3.97044	187689	13.727	187675
15847.7	3.38823	1.69315	3.78772	-26.552	9.66353	3.97073	0.019852	5.93142	1.18521	1	9	0.00457631	0.0012082	0	1.60259e-05	-9.11391e-05	4.8077e-06	76.6534	0.00397924	0.000918576	-0.00387177	-26.4934	3.78682	3.38915	1.68928	0.236165	0.118016	0.264011	26.552	1185.21	2371.76	2651.41	-63.448	0.0000000E+000	0.0000000E+000	0.0000000E+000	63.448	0.0000000E+000	0.0000000E+000	0.0000000E+000	-63.448	0.0000000E+000	0.0000000E+000	0.0000000E+000	-26.552	0.0000000E+000	0.0000000E+000	0.0000000E+000	26.552	2.00114	63.448	8.42394e-07	7.88267e-05	-1.80929e-09	7.88285e-05	3.97082	200017	4.59094	200021
3983.6	5.04976	2.6517	5.70364	-27.7046	11.5441	3.97067	-0.0333566	15.0668	3.2566	1	10	0.00469169	0.000822578	0	9.79104e-06	-3.39072e-05	1.0582e-05	-102.652	0.0128644	-0.00281772	0.012552	-27.8293	5.707	5.04694	2.66425	0.155226	0.0815116	0.175327	27.7046	3256.6	6201.69	7004.74	-62.2954	0.0000000E+000	0.0000000E+000	0.0000000E+000	62.2954	0.0000000E+000	0.0000000E+000	0.0000000E+000	-62.2954	0.0000000E+000	0.0000000E+000	0.0000000E+000	-27.7046	0.0000000E+000	0.0000000E+000	0.0000000E+000	27.7046	1.90435	62.2954	-1.98925e-06	-0.000132448	1.13103e-09	-0.000132449	3.9707	119037	1.01651	119038
1000.32	7.915	4.3506	9.03188	-28.796	14.3868	3.97068	-0.0131491	36.5706	8.48542	1	10	0.00498678	0.00055213	0	-1.87596e-07	9.9634e-05	8.78961e-06	15.5402	0.0159194	0.0153375	-0.00426504	-28.7256	9.04328	7.93034	4.34633	0.0970274	0.0533325	0.110719	28.796	8485.42	15437.4	17615.8	-61.204	0.0000000E+000	0.0000000E+000	0.0000000E+000	61.204	0.0000000E+000	0.0000000E+000	0.0000000E+000	-61.204	0.0000000E+000	0.0000000E+000	0.0000000E+000	-28.796	0.0000000E+000	0.0000000E+000	0.0000000E+000	28.796	1.81929	61.204	-1.61755e-06	-5.22108e-05	-1.3101e-09	-5.22095e-05	3.97058	301973	7.57725	301966
251.044	13.2679	5.65129	14.4213	-23.0709	17.087	3.97067	-0.0138721	112.182	17.2269	1	10	0.00494901	0.000343173	0	-1.02342e-05	-0.000129294	4.9841e-06	-43.8898	0.0145236	0.0104668	0.0100688	-23.0914	14.4349	13.2784	5.66136	0.0637959	0.027173	0.0693418	23.0709	17226.9	40444.8	43960.7	-66.9291	0.0000000E+000	0.0000000E+000	0.0000000E+000	66.9291	0.0000000E+000	0.0000000E+000	0.0000000E+000	-66.9291	0.0000000E+000	0.0000000E+000	0.0000000E+000	-23.0709	0.0000000E+000	0.0000000E+000	0.0000000E+000	23.0709	2.34777	66.9291	-1.50275e-06	-5.50816e-05	1.79358e-09	-5.50834e-05	3.9708	286234	9.3204	286243
[...]
0.0602816	24.7878	3.67606	25.0589	-8.43554	240.438	3.97071	-0.0095965	718211	15455.8	1	11	0.00502758	0.00020063	0	-0.00149732	-0.000205603	7.55742e-07	-62.5092	0.00376684	0.0017388	0.00334151	-8.44252	25.0612	24.7896	3.67941	0.0394742	0.00585407	0.0399059	8.43554	1.54559e+07	1.04219e+08	1.05359e+08	-81.5645	0.0000000E+000	0.0000000E+000	0.0000000E+000	81.5645	0.0000000E+000	0.0000000E+000	0.0000000E+000	-81.5645	0.0000000E+000	0.0000000E+000	0.0000000E+000	-8.43554	0.0000000E+000	0.0000000E+000	0.0000000E+000	8.43554	6.74304	81.5645	0.000000000000000E+000	-3.81049e-05	1.97307e-09	-3.81069e-05	3.97091	413767	21.4248	413788
0.00796479	33.971	8.72677	35.074	-14.4071	20329.3	3.97073	0.000487417	2.28977e+06	141752	1	11	0.00502061	0.000143143	0	-0.00764776	0.000118711	5.76358e-07	-34.8165	0.00402644	0.00330564	0.0022989	-14.4094	35.0778	33.9743	8.72907	0.0276145	0.00709386	0.0285111	14.4071	1.41752e+08	5.51803e+08	5.69719e+08	-75.5929	0.0000000E+000	0.0000000E+000	0.0000000E+000	75.5929	0.0000000E+000	0.0000000E+000	0.0000000E+000	-75.5929	0.0000000E+000	0.0000000E+000	0.0000000E+000	-14.4071	0.0000000E+000	0.0000000E+000	0.0000000E+000	14.4071	3.89274	75.5929	-0.00615044	1.9354e-06	5.78619e-11	1.93534e-06	3.97061	8.14647e+06	243.552	8.14622e+06
0.0019912	43.2916	13.2607	45.277	-17.0304	20329.3	3.97073	0.000487417	6.02755e+06	517029	1	11	0.00503296	0.000111159	0	-0.00764776	0.000118711	5.54952e-07	-47.1139	0.00499241	0.00339755	0.00365798	-17.0335	45.2814	43.295	13.2643	0.0211178	0.00646858	0.0220862	17.0304	5.17029e+08	1.68793e+09	1.76534e+09	-72.9696	0.0000000E+000	0.0000000E+000	0.0000000E+000	72.9696	0.0000000E+000	0.0000000E+000	0.0000000E+000	-72.9696	0.0000000E+000	0.0000000E+000	0.0000000E+000	-17.0304	0.0000000E+000	0.0000000E+000	0.0000000E+000	17.0304	3.26466	72.9696	0.000000000000000E+000	1.9354e-06	5.78619e-11	1.93534e-06	3.97061	8.14647e+06	243.552	8.14622e+06
0.000497799	50.9497	18.1749	54.0944	-19.6324	20329.3	3.97073	0.000487417	1.75911e+07	1.98579e+06	1	11	0.00503614	9.30992e-05	0	-0.00764776	0.000118711	3.43822e-07	-27.2457	0.00369307	0.00328333	0.00169071	-19.633	54.098	50.953	18.1766	0.0174116	0.00621109	0.0184862	19.6324	1.98579e+09	5.56677e+09	5.91036e+09	-70.3676	0.0000000E+000	0.0000000E+000	0.0000000E+000	70.3676	0.0000000E+000	0.0000000E+000	0.0000000E+000	-70.3676	0.0000000E+000	0.0000000E+000	0.0000000E+000	-19.6324	0.0000000E+000	0.0000000E+000	0.0000000E+000	19.6324	2.8033	70.3676	0.000000000000000E+000	1.9354e-06	5.78619e-11	1.93534e-06	3.97061	8.14647e+06	243.552	8.14622e+06
9.95598e-05	61.1575	77.3194	98.5826	-51.657	20329.3	3.97073	0.000487417	2.06751e+07	1.27181e+07	1	11	0.00503168	5.10402e-05	0	-0.00764776	0.000118711	1.93192e-06	-60.9997	0.0378509	0.0183507	0.033105	-51.6605	98.62	61.1759	77.3525	0.00629288	0.00795587	0.0101438	51.657	1.27181e+10	1.00597e+10	1.62157e+10	-38.343	0.0000000E+000	0.0000000E+000	0.0000000E+000	38.343	0.0000000E+000	0.0000000E+000	0.0000000E+000	-38.343	0.0000000E+000	0.0000000E+000	0.0000000E+000	-51.657	0.0000000E+000	0.0000000E+000	0.0000000E+000	51.657	0.790973	38.343	0.000000000000000E+000	1.9354e-06	5.78619e-11	1.93534e-06	3.97061	8.14647e+06	243.552	8.14622e+06