Folder: EIS/txt (part 89)

File: 18442_R297_UC61_11mm_SOC50_C02.mpt
EC-Lab ASCII FILE
Nb header lines : 65

Potentio Electrochemical Impedance Spectroscopy

Run on channel : 2 (SN 66139)
User :
CE vs. WE compliance from -10 V to 10 V
Electrode connection : standard
Potential control : Ewe
Ewe ctrl range : min = -10.00 V, max = 10.00 V
Safety Limits :
	Do not start on E overload
Acquisition started on : 10/16/2025 15:32:01.264
Technique started on : 10/16/2025 15:32:03.959
Loaded Setting File :  C:\Users\Celltest\OneDrive - store-dot.com\Documents\EC-Lab\Data\txt_done\UC80_17231_EIS_50SOC.mps
Saved on :
	File : 18442_R297_UC61_11mm_SOC50_C02.mpr
	Directory : C:\Users\Celltest\OneDrive - store-dot.com\Documents\EC-Lab\Data\Michael\
	Host : 169.254.61.224
Device : VMP-3e (SN .003165)
Address : USB
EC-LAB for windows v11.62 (software)
Internet server v27.00 (firmware)
Command interpretor v12.03 (firmware)
Electrode material :
Initial state :
Electrolyte :
Comments :
Electrode surface area : 0.001 cm²
Characteristic mass : 0.001 g
Equivalent Weight : 0.000 g/eq.
Density : 0.000 g/cm3
Volume (V) : 0.001 cm³
Record Ece
Cycle Definition : Charge/Discharge alternance
Mode                Multi sine
E (V)               0.0000
vs.                 Eoc
tE (h:m:s)          0:00:0.0000
record              0
dI                  0.000
unit dI             mA
dt (s)              0.000
fi                  1.000
unit fi             MHz
ff                  0.100
unit ff             mHz
Nd                  10
Points              per decade
spacing             Logarithmic
Va (mV)             5.0
pw                  0.10
Na                  2
corr                0
E range min (V)     -10.000
E range max (V)     10.000
I Range             Auto
Bandwidth           5
nc cycles           0
goto Ns'            0
nr cycles           0
inc. cycle          0

freq/Hz	Re(Z)/Ohm	-Im(Z)/Ohm	|Z|/Ohm	Phase(Z)/deg	time/s	<Ewe>/V	<I>/mA	Cs/µF	Cp/µF	cycle number	I Range	|Ewe|/V	|I|/A	Ns	(Q-Qo)/mA.h	<Ece>/V	|Ece|/V	Phase(Zce)/deg	|Zce|/Ohm	Re(Zce)/Ohm	-Im(Zce)/Ohm	Phase(Zwe-ce)/deg	|Zwe-ce|/Ohm	Re(Zwe-ce)/Ohm	-Im(Zwe-ce)/Ohm	Re(Y)/Ohm-1	Im(Y)/Ohm-1	|Y|/Ohm-1	Phase(Y)/deg	Re(C)/nF	Im(C)/nF	|C|/nF	Phase(C)/deg	Re(M)	Im(M)	|M|	Phase(M)/deg	Re(Permittivity)	Im(Permittivity)	|Permittivity|	Phase(Permittivity)/deg	Re(Resistivity)/Ohm.cm	Im(Resistivity)/Ohm.cm	|Resistivity|/Ohm.cm	Phase(Resistivity)/deg	Re(Conductivity)/mS/cm	Im(Conductivity)/mS/cm	|Conductivity|/mS/cm	Phase(Conductivity)/deg	Tan(Delta)	Loss Angle(Delta)/deg	dq/mA.h	Pwe/W	Pce/W	Pwe-ce/W	<Ewe-Ece>/V	Rwe/Ohm	Rce/Ohm	Rwe-ce/Ohm		Ewe-Ece/V
1.00002e+06	0.987955	-0.223476	1.01291	12.7458	2.69454	3.82389	-0.0148216	-0.712167	-0.0346654	1	9	0.000210592	0.000207906	0	-9.70672e-06	0.000324887	0.000174463	3.07852	0.839141	0.83793	-0.0450656	8.36677	1.84553	1.82589	-0.268541	0.962923	-0.217813	0.98725	-12.7458	-34.6654	153.251	157.123	-102.746	0.0000000E+000	0.0000000E+000	0.0000000E+000	102.746	0.0000000E+000	0.0000000E+000	0.0000000E+000	-102.746	0.0000000E+000	0.0000000E+000	0.0000000E+000	12.7458	0.0000000E+000	0.0000000E+000	0.0000000E+000	-12.7458	4.42086	77.2542	-9.70672e-06	-5.66764e-05	-4.81536e-09	-5.66716e-05	3.82357	257994	21.9198	257972
251206	0.86885	0.3197	0.925801	-20.2015	4.99255	3.8239	-0.0166094	1.98174	0.236318	1	9	0.00235929	0.00254838	0	-1.99971e-05	-0.000114203	2.28336e-05	90.2273	0.00896004	-3.55527e-05	-0.00895997	-19.6801	0.922712	0.868814	0.31074	1.0137	0.372998	1.08015	20.2015	236.318	642.242	684.34	-69.7985	0.0000000E+000	0.0000000E+000	0.0000000E+000	69.7985	0.0000000E+000	0.0000000E+000	0.0000000E+000	-69.7985	0.0000000E+000	0.0000000E+000	0.0000000E+000	-20.2015	0.0000000E+000	0.0000000E+000	0.0000000E+000	20.2015	2.7177	69.7985	-2.54296e-06	-6.35126e-05	1.89684e-09	-6.35145e-05	3.82401	230225	6.87579	230232
63093.8	1.29597	0.586396	1.42246	-24.3457	7.29054	3.82377	-0.00711167	4.30172	0.731044	1	9	0.0053934	0.00379159	0	-3.03499e-05	0.000210342	2.29128e-05	82.2114	0.00604307	0.000818946	-0.00598732	-24.1121	1.42075	1.29679	0.580409	0.640492	0.289808	0.703007	24.3457	731.044	1615.65	1773.34	-65.6543	0.0000000E+000	0.0000000E+000	0.0000000E+000	65.6543	0.0000000E+000	0.0000000E+000	0.0000000E+000	-65.6543	0.0000000E+000	0.0000000E+000	0.0000000E+000	-24.3457	0.0000000E+000	0.0000000E+000	0.0000000E+000	24.3457	2.21006	65.6543	-3.59136e-06	-2.71934e-05	-1.49588e-09	-2.71919e-05	3.82356	537676	29.577	537646
15847.7	1.85957	0.978451	2.10128	-27.752	9.46453	3.82376	-0.00975615	10.264	2.22549	1	9	0.00492201	0.00234239	0	-2.06494e-05	0.000286705	8.46084e-06	-72.4966	0.00361206	0.00108637	0.00344482	-27.8213	2.10385	1.86066	0.981896	0.421159	0.221601	0.475901	27.752	2225.49	4229.61	4779.37	-62.248	0.0000000E+000	0.0000000E+000	0.0000000E+000	62.248	0.0000000E+000	0.0000000E+000	0.0000000E+000	-62.248	0.0000000E+000	0.0000000E+000	0.0000000E+000	-27.752	0.0000000E+000	0.0000000E+000	0.0000000E+000	27.752	1.90053	62.248	-2.80128e-06	-3.73052e-05	-2.79714e-09	-3.73024e-05	3.82348	391934	29.3871	391904
3983.6	2.85428	1.77987	3.36375	-31.9468	11.3331	3.82358	-0.0739681	22.4469	6.28469	1	9	0.00500572	0.00148813	0	-3.0708e-05	9.57967e-05	8.65006e-06	-78.6185	0.00581269	0.00114708	0.00569838	-32.0188	3.36774	2.85542	1.78557	0.25226	0.157304	0.297287	31.9468	6284.69	10078.4	11877.4	-58.0532	0.0000000E+000	0.0000000E+000	0.0000000E+000	58.0532	0.0000000E+000	0.0000000E+000	0.0000000E+000	-58.0532	0.0000000E+000	0.0000000E+000	0.0000000E+000	-31.9468	0.0000000E+000	0.0000000E+000	0.0000000E+000	31.9468	1.60364	58.0532	-6.48971e-06	-0.000282823	-7.0859e-09	-0.000282816	3.82348	51692.2	1.29511	51690.9
1000.32	4.87488	3.08006	5.76639	-32.2856	14.2058	3.82366	-0.0306434	51.6562	14.7378	1	10	0.00488031	0.000846337	0	-5.35692e-05	3.42479e-07	6.23762e-06	18.1285	0.00737014	0.00700429	-0.00229322	-32.2292	5.77109	4.88189	3.07776	0.146608	0.0926299	0.173419	32.2856	14737.8	23325.8	27591.6	-57.7144	0.0000000E+000	0.0000000E+000	0.0000000E+000	57.7144	0.0000000E+000	0.0000000E+000	0.0000000E+000	-57.7144	0.0000000E+000	0.0000000E+000	0.0000000E+000	-32.2856	0.0000000E+000	0.0000000E+000	0.0000000E+000	32.2856	1.58272	57.7144	-3.36138e-06	-0.00011717	-1.04947e-11	-0.00011717	3.82366	124779	0.0111763	124779
251.044	8.71522	3.84778	9.52683	-23.8215	16.907	3.82366	-0.030148	164.763	26.8772	1	10	0.00479421	0.000503232	0	-7.47308e-05	0.000343978	4.95508e-06	39.9887	0.0098465	0.0075441	-0.00632772	-23.7684	9.53117	8.72276	3.84145	0.0960245	0.0423949	0.104967	23.8215	26877.1	60876.8	66545.9	-66.1785	0.0000000E+000	0.0000000E+000	0.0000000E+000	66.1785	0.0000000E+000	0.0000000E+000	0.0000000E+000	-66.1785	0.0000000E+000	0.0000000E+000	0.0000000E+000	-23.8215	0.0000000E+000	0.0000000E+000	0.0000000E+000	23.8215	2.265	66.1785	-3.27584e-06	-0.000115275	-1.03702e-08	-0.000115265	3.82331	126830	11.4097	126818
[...]
0.0602816	15.4394	2.45925	15.634	-9.05028	240.298	3.82367	-0.0137076	1.07358e+06	26564.2	1	11	0.00499715	0.000319633	0	-0.00229602	0.000153069	5.49197e-07	19.5182	0.00171821	0.00161948	-0.000574064	-9.04726	15.6355	15.441	2.45868	0.0631667	0.0100615	0.063963	9.05028	2.65642e+07	1.66772e+08	1.68875e+08	-80.9497	0.0000000E+000	0.0000000E+000	0.0000000E+000	80.9497	0.0000000E+000	0.0000000E+000	0.0000000E+000	-80.9497	0.0000000E+000	0.0000000E+000	0.0000000E+000	-9.05028	0.0000000E+000	0.0000000E+000	0.0000000E+000	9.05028	6.27809	80.9497	0.000000000000000E+000	-5.24135e-05	-2.09821e-09	-5.24114e-05	3.82352	278945	11.1667	278934
0.00796479	20.2629	4.35331	20.7253	-12.1252	20329.2	3.82368	-0.00143502	4.59015e+06	202519	1	11	0.00499418	0.000240971	0	-0.0293462	0.000153069	4.11275e-07	10.9025	0.00170674	0.00167594	-0.00032281	-12.1233	20.7268	20.2646	4.35298	0.0471739	0.0101349	0.0482503	12.1252	2.02519e+08	9.42644e+08	9.64153e+08	-77.8748	0.0000000E+000	0.0000000E+000	0.0000000E+000	77.8748	0.0000000E+000	0.0000000E+000	0.0000000E+000	-77.8748	0.0000000E+000	0.0000000E+000	0.0000000E+000	-12.1252	0.0000000E+000	0.0000000E+000	0.0000000E+000	12.1252	4.6546	77.8748	-0.0270502	-5.48703e-06	-2.19657e-10	-5.48681e-06	3.82352	2.66455e+06	106.667	2.66445e+06
0.0019912	23.224	6.57112	24.1357	-15.7986	20329.2	3.82368	-0.00143502	1.21637e+07	901622	1	11	0.00500676	0.000207442	0	-0.0293462	0.000153069	7.08086e-07	-88.5326	0.00341342	8.74092e-05	0.0034123	-15.8064	24.1367	23.2241	6.57453	0.0398672	0.0112802	0.0414323	15.7986	9.01622e+08	3.18656e+09	3.31166e+09	-74.2014	0.0000000E+000	0.0000000E+000	0.0000000E+000	74.2014	0.0000000E+000	0.0000000E+000	0.0000000E+000	-74.2014	0.0000000E+000	0.0000000E+000	0.0000000E+000	-15.7986	0.0000000E+000	0.0000000E+000	0.0000000E+000	15.7986	3.53425	74.2014	0.000000000000000E+000	-5.48703e-06	-2.19657e-10	-5.48681e-06	3.82352	2.66455e+06	106.667	2.66445e+06
0.000497799	23.6143	16.7855	28.9722	-35.4059	20329.2	3.82368	-0.00143502	1.90473e+07	6.39348e+06	1	11	0.0050071	0.000172824	0	-0.0293462	0.000153069	6.8827e-07	-13.044	0.00398248	0.00387972	0.000898842	-35.4029	28.9759	23.6182	16.7864	0.0281328	0.0199973	0.0345159	35.4059	6.39348e+09	8.99454e+09	1.10353e+10	-54.5941	0.0000000E+000	0.0000000E+000	0.0000000E+000	54.5941	0.0000000E+000	0.0000000E+000	0.0000000E+000	-54.5941	0.0000000E+000	0.0000000E+000	0.0000000E+000	-35.4059	0.0000000E+000	0.0000000E+000	0.0000000E+000	35.4059	1.40683	54.5941	0.000000000000000E+000	-5.48703e-06	-2.19657e-10	-5.48681e-06	3.82352	2.66455e+06	106.667	2.66445e+06
9.95598e-05	29.1971	95.4383	99.8045	-72.9898	20329.2	3.82368	-0.00143502	1.67499e+07	1.53165e+07	1	11	0.0050011	5.0109e-05	0	-0.0293462	0.000153069	5.50589e-06	-5.91057	0.109878	0.109294	0.0113148	-72.9317	99.8474	29.3064	95.4496	0.00293116	0.00958125	0.0100196	72.9898	1.53165e+10	4.6857e+09	1.60172e+10	-17.0102	0.0000000E+000	0.0000000E+000	0.0000000E+000	17.0102	0.0000000E+000	0.0000000E+000	0.0000000E+000	-17.0102	0.0000000E+000	0.0000000E+000	0.0000000E+000	-72.9898	0.0000000E+000	0.0000000E+000	0.0000000E+000	72.9898	0.305926	17.0102	0.000000000000000E+000	-5.48703e-06	-2.19657e-10	-5.48681e-06	3.82352	2.66455e+06	106.667	2.66445e+06

File: 18443_R297_UC61_11mm_SOC50_C03.mpt
EC-Lab ASCII FILE
Nb header lines : 65

Potentio Electrochemical Impedance Spectroscopy

Run on channel : 3 (SN 65921)
User :
CE vs. WE compliance from -10 V to 10 V
Electrode connection : standard
Potential control : Ewe
Ewe ctrl range : min = -10.00 V, max = 10.00 V
Safety Limits :
	Do not start on E overload
Acquisition started on : 10/16/2025 15:32:17.177
Technique started on : 10/16/2025 15:32:19.412
Loaded Setting File :  C:\Users\Celltest\OneDrive - store-dot.com\Documents\EC-Lab\Data\txt_done\UC80_17231_EIS_50SOC.mps
Saved on :
	File : 18443_R297_UC61_11mm_SOC50_C03.mpr
	Directory : C:\Users\Celltest\OneDrive - store-dot.com\Documents\EC-Lab\Data\Michael\
	Host : 169.254.61.224
Device : VMP-3e (SN .003165)
Address : USB
EC-LAB for windows v11.62 (software)
Internet server v27.00 (firmware)
Command interpretor v12.03 (firmware)
Electrode material :
Initial state :
Electrolyte :
Comments :
Electrode surface area : 0.001 cm²
Characteristic mass : 0.001 g
Equivalent Weight : 0.000 g/eq.
Density : 0.000 g/cm3
Volume (V) : 0.001 cm³
Record Ece
Cycle Definition : Charge/Discharge alternance
Mode                Multi sine
E (V)               0.0000
vs.                 Eoc
tE (h:m:s)          0:00:0.0000
record              0
dI                  0.000
unit dI             mA
dt (s)              0.000
fi                  1.000
unit fi             MHz
ff                  0.100
unit ff             mHz
Nd                  10
Points              per decade
spacing             Logarithmic
Va (mV)             5.0
pw                  0.10
Na                  2
corr                0
E range min (V)     -10.000
E range max (V)     10.000
I Range             Auto
Bandwidth           5
nc cycles           0
goto Ns'            0
nr cycles           0
inc. cycle          0

freq/Hz	Re(Z)/Ohm	-Im(Z)/Ohm	|Z|/Ohm	Phase(Z)/deg	time/s	<Ewe>/V	<I>/mA	Cs/µF	Cp/µF	cycle number	I Range	|Ewe|/V	|I|/A	Ns	(Q-Qo)/mA.h	<Ece>/V	|Ece|/V	Phase(Zce)/deg	|Zce|/Ohm	Re(Zce)/Ohm	-Im(Zce)/Ohm	Phase(Zwe-ce)/deg	|Zwe-ce|/Ohm	Re(Zwe-ce)/Ohm	-Im(Zwe-ce)/Ohm	Re(Y)/Ohm-1	Im(Y)/Ohm-1	|Y|/Ohm-1	Phase(Y)/deg	Re(C)/nF	Im(C)/nF	|C|/nF	Phase(C)/deg	Re(M)	Im(M)	|M|	Phase(M)/deg	Re(Permittivity)	Im(Permittivity)	|Permittivity|	Phase(Permittivity)/deg	Re(Resistivity)/Ohm.cm	Im(Resistivity)/Ohm.cm	|Resistivity|/Ohm.cm	Phase(Resistivity)/deg	Re(Conductivity)/mS/cm	Im(Conductivity)/mS/cm	|Conductivity|/mS/cm	Phase(Conductivity)/deg	Tan(Delta)	Loss Angle(Delta)/deg	dq/mA.h	Pwe/W	Pce/W	Pwe-ce/W	<Ewe-Ece>/V	Rwe/Ohm	Rce/Ohm	Rwe-ce/Ohm		Ewe-Ece/V
1.00002e+06	1.73135	2.74267	3.24343	-57.7373	2.23451	3.82396	-0.0182498	0.0580281	0.0414933	1	10	0.000226996	6.99863e-05	0	-1.81458e-05	9.13315e-05	0.000196388	-64.1659	2.8061	1.2228	2.52565	-60.719	6.04006	2.95415	5.26833	0.16458	0.260715	0.308316	57.7373	41.4933	26.1932	49.0691	-32.2627	0.0000000E+000	0.0000000E+000	0.0000000E+000	32.2627	0.0000000E+000	0.0000000E+000	0.0000000E+000	-32.2627	0.0000000E+000	0.0000000E+000	0.0000000E+000	-57.7373	0.0000000E+000	0.0000000E+000	0.0000000E+000	57.7373	0.631263	32.2627	-1.81458e-05	-6.97866e-05	-1.66678e-09	-6.97849e-05	3.82387	209535	5.00452	209530
251206	0.853529	0.260617	0.89243	-16.9795	4.93755	3.82354	-0.0333468	2.43101	0.207321	1	9	0.00232516	0.00260542	0	-3.86349e-05	-2.32329e-05	5.1884e-05	100.51	0.0199139	-0.00363259	-0.0195798	-15.8337	0.883415	0.849896	0.241037	1.07169	0.32723	1.12054	16.9795	207.321	678.983	709.93	-73.0205	0.0000000E+000	0.0000000E+000	0.0000000E+000	73.0205	0.0000000E+000	0.0000000E+000	0.0000000E+000	-73.0205	0.0000000E+000	0.0000000E+000	0.0000000E+000	-16.9795	0.0000000E+000	0.0000000E+000	0.0000000E+000	16.9795	3.27503	73.0205	-3.7918e-06	-0.000127503	7.74743e-10	-0.000127504	3.82356	114660	0.696704	114660
63093.8	1.20844	0.605575	1.35169	-26.6164	7.23552	3.82347	-0.00548854	4.16548	0.836084	1	9	0.00537423	0.00397595	0	-4.41082e-05	-0.000328738	2.84641e-05	61.5755	0.00715908	0.00340772	-0.00629602	-26.3131	1.35193	1.21185	0.599279	0.661416	0.331449	0.739817	26.6164	836.084	1668.43	1866.2	-63.3836	0.0000000E+000	0.0000000E+000	0.0000000E+000	63.3836	0.0000000E+000	0.0000000E+000	0.0000000E+000	-63.3836	0.0000000E+000	0.0000000E+000	0.0000000E+000	-26.6164	0.0000000E+000	0.0000000E+000	0.0000000E+000	26.6164	1.99553	63.3836	-1.09266e-05	-2.09853e-05	1.80429e-09	-2.09871e-05	3.8238	696627	59.8953	696686
15847.7	1.84273	1.14046	2.16709	-31.7532	9.53552	3.82345	-0.0101503	8.80595	2.43881	1	9	0.00499343	0.00230421	0	-4.37553e-05	-4.23269e-05	7.54362e-06	-140.56	0.00327385	-0.00252836	0.00207977	-31.8351	2.16604	1.8402	1.14254	0.39238	0.242842	0.461448	31.7532	2438.81	3940.59	4634.23	-58.2468	0.0000000E+000	0.0000000E+000	0.0000000E+000	58.2468	0.0000000E+000	0.0000000E+000	0.0000000E+000	-58.2468	0.0000000E+000	0.0000000E+000	0.0000000E+000	-31.7532	0.0000000E+000	0.0000000E+000	0.0000000E+000	31.7532	1.61578	58.2468	-9.03674e-07	-3.8809e-05	4.2963e-10	-3.88094e-05	3.82349	376684	4.17003	376689
3983.6	3.06478	2.03273	3.67761	-33.5546	11.3861	3.82327	-0.0862292	19.6546	6.00471	1	9	0.00465521	0.00126582	0	-5.40668e-05	-0.000156891	4.87812e-06	-24.5654	0.00385371	0.0035049	0.00160211	-33.5452	3.68142	3.06828	2.03433	0.226603	0.150296	0.271915	33.5546	6004.71	9053.38	10863.7	-56.4454	0.0000000E+000	0.0000000E+000	0.0000000E+000	56.4454	0.0000000E+000	0.0000000E+000	0.0000000E+000	-56.4454	0.0000000E+000	0.0000000E+000	0.0000000E+000	-33.5546	0.0000000E+000	0.0000000E+000	0.0000000E+000	33.5546	1.50771	56.4454	-7.11801e-06	-0.000329678	1.35286e-08	-0.000329691	3.82343	44338.5	1.81947	44340.3
1000.32	5.29658	3.55213	6.37742	-33.8476	14.2238	3.82338	-0.0409027	44.7911	13.8957	1	10	0.00456675	0.000716081	0	-8.8007e-05	-8.05151e-05	5.69173e-06	-108.208	0.00794845	-0.00248363	0.00755046	-33.9164	6.37956	5.2941	3.55968	0.130229	0.0873373	0.156803	33.8476	13895.7	20719.9	24948	-56.1524	0.0000000E+000	0.0000000E+000	0.0000000E+000	56.1524	0.0000000E+000	0.0000000E+000	0.0000000E+000	-56.1524	0.0000000E+000	0.0000000E+000	0.0000000E+000	-33.8476	0.0000000E+000	0.0000000E+000	0.0000000E+000	33.8476	1.4911	56.1524	-4.30769e-06	-0.000156387	3.29329e-09	-0.00015639	3.82346	93474.9	1.96845	93476.8
251.044	9.78777	4.70612	10.8604	-25.679	17.1371	3.82337	-0.0423682	134.712	25.2954	1	10	0.0048737	0.000448759	0	-0.000119665	0.000110426	6.18739e-06	-73.6231	0.0137878	0.00388753	0.0132284	-25.733	10.8696	9.79165	4.71935	0.0829838	0.0399	0.0920778	25.679	25295.4	52609.4	58374.7	-64.321	0.0000000E+000	0.0000000E+000	0.0000000E+000	64.321	0.0000000E+000	0.0000000E+000	0.0000000E+000	-64.321	0.0000000E+000	0.0000000E+000	0.0000000E+000	-25.679	0.0000000E+000	0.0000000E+000	0.0000000E+000	25.679	2.0798	64.321	-5.19414e-06	-0.000161989	-4.67853e-09	-0.000161984	3.82326	90241.4	2.60633	90238.8
[...]
0.0602816	18.6324	2.84101	18.8478	-8.66948	240.5	3.82341	-0.0244908	929314	21114.8	1	11	0.0050593	0.00026843	0	-0.00293156	-0.000175985	7.30582e-07	9.28809	0.00272169	0.00268601	-0.000439277	-8.66693	18.8504	18.6351	2.84057	0.0524504	0.00799745	0.0530566	8.66948	2.11148e+07	1.38479e+08	1.4008e+08	-81.3305	0.0000000E+000	0.0000000E+000	0.0000000E+000	81.3305	0.0000000E+000	0.0000000E+000	0.0000000E+000	-81.3305	0.0000000E+000	0.0000000E+000	0.0000000E+000	-8.66948	0.0000000E+000	0.0000000E+000	0.0000000E+000	8.66948	6.55839	81.3305	0.000000000000000E+000	-9.36381e-05	4.31002e-09	-9.36424e-05	3.82358	156116	7.18579	156124
0.00796479	24.5684	4.51579	24.98	-10.415	20329.3	3.82343	-0.000785796	4.42499e+06	144609	1	11	0.00505353	0.000202303	0	-0.0246651	0.000263178	6.22691e-07	-165.622	0.00307801	-0.00298161	0.000764304	-10.4179	24.9772	24.5655	4.51655	0.0393725	0.00723683	0.040032	10.415	1.44609e+08	7.86753e+08	7.99932e+08	-79.585	0.0000000E+000	0.0000000E+000	0.0000000E+000	79.585	0.0000000E+000	0.0000000E+000	0.0000000E+000	-79.585	0.0000000E+000	0.0000000E+000	0.0000000E+000	-10.415	0.0000000E+000	0.0000000E+000	0.0000000E+000	10.415	5.44057	79.585	-0.0217336	-3.00444e-06	-2.06804e-10	-3.00423e-06	3.82317	4.86568e+06	334.919	4.86535e+06
0.0019912	27.7044	6.98087	28.5703	-14.1428	20329.3	3.82343	-0.000785796	1.14498e+07	683573	1	11	0.00506473	0.000177272	0	-0.0246651	0.000263178	5.00861e-07	-88.8494	0.00282538	5.6736e-05	0.00282481	-14.1483	28.5711	27.7044	6.98369	0.0339404	0.00855222	0.0350013	14.1428	6.83573e+08	2.71284e+09	2.79763e+09	-75.8572	0.0000000E+000	0.0000000E+000	0.0000000E+000	75.8572	0.0000000E+000	0.0000000E+000	0.0000000E+000	-75.8572	0.0000000E+000	0.0000000E+000	0.0000000E+000	-14.1428	0.0000000E+000	0.0000000E+000	0.0000000E+000	14.1428	3.96861	75.8572	0.000000000000000E+000	-3.00444e-06	-2.06804e-10	-3.00423e-06	3.82317	4.86568e+06	334.919	4.86535e+06
0.000497799	29.1376	17.7712	34.1294	-31.3793	20329.3	3.82343	-0.000785796	1.79908e+07	4.87782e+06	1	11	0.0050675	0.000148479	0	-0.0246651	0.000263178	8.12978e-07	9.18574	0.00547537	0.00540515	-0.000874063	-31.3733	34.1335	29.143	17.7703	0.0250148	0.0152567	0.0293003	31.3793	4.87782e+09	7.99766e+09	9.36781e+09	-58.6207	0.0000000E+000	0.0000000E+000	0.0000000E+000	58.6207	0.0000000E+000	0.0000000E+000	0.0000000E+000	-58.6207	0.0000000E+000	0.0000000E+000	0.0000000E+000	-31.3793	0.0000000E+000	0.0000000E+000	0.0000000E+000	31.3793	1.6396	58.6207	0.000000000000000E+000	-3.00444e-06	-2.06804e-10	-3.00423e-06	3.82317	4.86568e+06	334.919	4.86535e+06
9.95598e-05	36.5515	92.6632	99.6116	-68.473	20329.3	3.82343	-0.000785796	1.72516e+07	1.49287e+07	1	11	0.00505984	5.07957e-05	0	-0.0246651	0.000263178	5.00629e-06	-1.32633	0.0985573	0.0985309	0.00228128	-68.4207	99.6499	36.65	92.6655	0.00368371	0.00933871	0.010039	68.473	1.49287e+10	5.88872e+09	1.60482e+10	-21.527	0.0000000E+000	0.0000000E+000	0.0000000E+000	21.527	0.0000000E+000	0.0000000E+000	0.0000000E+000	-21.527	0.0000000E+000	0.0000000E+000	0.0000000E+000	-68.473	0.0000000E+000	0.0000000E+000	0.0000000E+000	68.473	0.394456	21.527	0.000000000000000E+000	-3.00444e-06	-2.06804e-10	-3.00423e-06	3.82317	4.86568e+06	334.919	4.86535e+06