Folder: EIS/txt (part 65)

File: 17739_R277_UA674_SOC00_C03.mpt
EC-Lab ASCII FILE

Nb header lines : 63

Potentio Electrochemical Impedance Spectroscopy

Run on channel : 3 (SN 65921)
User :
CE vs. WE compliance from -10 V to 10 V
Electrode connection : standard
Potential control : Ewe
Ewe ctrl range : min = -10.00 V, max = 10.00 V
Safety Limits :
	Do not start on E overload
Acquisition started on : 09/22/2025 08:11:20.123
Loaded Setting File :  C:\Users\Celltest\OneDrive - store-dot.com\Documents\EC-Lab\Data\Gyutae\17738_R277_UA674_SOC00_C02.mpr
Saved on :
	File : 17739_R277_UA674_SOC00_C03.mpr
	Directory : C:\Users\Celltest\OneDrive - store-dot.com\Documents\EC-Lab\Data\Gyutae\
	Host : 169.254.61.224
Device : VMP-3e (SN .003165)
Address : USB
EC-LAB for windows v11.62 (software)
Internet server v27.00 (firmware)
Command interpretor v12.03 (firmware)
Electrode material :
Initial state :
Electrolyte :
Comments :
Electrode surface area : 0.001 cm²
Characteristic mass : 0.001 g
Equivalent Weight : 0.000 g/eq.
Density : 0.000 g/cm3
Volume (V) : 0.001 cm³
Cycle Definition : Charge/Discharge alternance
Mode                Single sine
E (V)               0.0000
vs.                 Eoc
tE (h:m:s)          0:00:0.0000
record              0
dI                  0.000
unit dI             mA
dt (s)              0.000
fi                  100.000
unit fi             kHz
ff                  10.000
unit ff             mHz
Nd                  6
Points              per decade
spacing             Logarithmic
Va (mV)             5.0
pw                  0.10
Na                  2
corr                0
E range min (V)     -10.000
E range max (V)     10.000
I Range             Auto
Bandwidth           5
nc cycles           0
goto Ns'            0
nr cycles           0
inc. cycle          0

freq/Hz	Re(Z)/Ohm	-Im(Z)/Ohm	|Z|/Ohm	Phase(Z)/deg	time/s	<Ewe>/V	<I>/mA	Cs/µF	Cp/µF	cycle number	I Range	|Ewe|/V	|I|/A	Ns	(Q-Qo)/mA.h	Re(Y)/Ohm-1	Im(Y)/Ohm-1	|Y|/Ohm-1	Phase(Y)/deg	Re(C)/nF	Im(C)/nF	|C|/nF	Phase(C)/deg	Re(M)	Im(M)	|M|	Phase(M)/deg	Re(Permittivity)	Im(Permittivity)	|Permittivity|	Phase(Permittivity)/deg	Re(Resistivity)/Ohm.cm	Im(Resistivity)/Ohm.cm	|Resistivity|/Ohm.cm	Phase(Resistivity)/deg	Re(Conductivity)/mS/cm	Im(Conductivity)/mS/cm	|Conductivity|/mS/cm	Phase(Conductivity)/deg	Tan(Delta)	Loss Angle(Delta)/deg	dq/mA.h	Pwe/W	Rwe/Ohm
100004	1.10346	0.247591	1.13089	-12.6464	1.8645	0.275501	0.0219409	6.42789	0.308103	1	9	0.00462017	0.00408541	0	-6.31157e-06	0.862804	0.193594	0.884256	12.6464	308.103	1373.14	1407.29	-77.3536	0.0000000E+000	0.0000000E+000	0.0000000E+000	77.3536	0.0000000E+000	0.0000000E+000	0.0000000E+000	-77.3536	0.0000000E+000	0.0000000E+000	0.0000000E+000	-12.6464	0.0000000E+000	0.0000000E+000	0.0000000E+000	12.6464	4.45677	77.3536	-6.31157e-06	6.04473e-06	12556.5
46420.4	1.22832	0.298157	1.26399	-13.6439	2.88048	0.275493	0.0281689	11.4992	0.639843	1	9	0.0050632	0.00400574	0	3.2138e-07	0.768823	0.186621	0.791148	13.6439	639.843	2635.95	2712.5	-76.3561	0.0000000E+000	0.0000000E+000	0.0000000E+000	76.3561	0.0000000E+000	0.0000000E+000	0.0000000E+000	-76.3561	0.0000000E+000	0.0000000E+000	0.0000000E+000	-13.6439	0.0000000E+000	0.0000000E+000	0.0000000E+000	13.6439	4.11969	76.3561	9.93877e-06	7.76032e-06	9780.02
21544.7	1.37609	0.383306	1.42848	-15.565	3.8955	0.27547	0.0221646	19.2723	1.38764	1	9	0.00544158	0.00380935	0	1.58446e-05	0.674372	0.187844	0.700045	15.565	1387.64	4981.73	5171.38	-74.435	0.0000000E+000	0.0000000E+000	0.0000000E+000	74.435	0.0000000E+000	0.0000000E+000	0.0000000E+000	-74.435	0.0000000E+000	0.0000000E+000	0.0000000E+000	-15.565	0.0000000E+000	0.0000000E+000	0.0000000E+000	15.565	3.59006	74.435	6.22199e-06	6.1057e-06	12428.4
10002.2	1.55777	0.489366	1.63283	-17.4399	4.62948	0.275502	0.0343969	32.5154	2.92063	1	9	0.00466026	0.0028541	0	2.54553e-05	0.584282	0.183549	0.612434	17.4399	2920.63	9297.07	9745.03	-72.5601	0.0000000E+000	0.0000000E+000	0.0000000E+000	72.5601	0.0000000E+000	0.0000000E+000	0.0000000E+000	-72.5601	0.0000000E+000	0.0000000E+000	0.0000000E+000	-17.4399	0.0000000E+000	0.0000000E+000	0.0000000E+000	17.4399	3.18324	72.5601	5.61879e-07	9.47644e-06	8009.51
4641.49	1.80266	0.649476	1.91609	-19.8135	5.65569	0.27546	0.0464614	52.7959	6.0659	1	9	0.00482186	0.00251651	0	2.32896e-05	0.491001	0.176902	0.521896	19.8135	6065.9	16836.2	17895.6	-70.1865	0.0000000E+000	0.0000000E+000	0.0000000E+000	70.1865	0.0000000E+000	0.0000000E+000	0.0000000E+000	-70.1865	0.0000000E+000	0.0000000E+000	0.0000000E+000	-19.8135	0.0000000E+000	0.0000000E+000	0.0000000E+000	19.8135	2.77556	70.1865	7.38048e-06	1.27982e-05	5928.79
2155.69	2.11634	0.866403	2.28682	-22.2636	6.5897	0.275466	0.0412589	85.2146	12.2318	1	9	0.00468608	0.00204917	0	3.37225e-05	0.404689	0.165675	0.437289	22.2636	12231.8	29878.3	32285.1	-67.7364	0.0000000E+000	0.0000000E+000	0.0000000E+000	67.7364	0.0000000E+000	0.0000000E+000	0.0000000E+000	-67.7364	0.0000000E+000	0.0000000E+000	0.0000000E+000	-22.2636	0.0000000E+000	0.0000000E+000	0.0000000E+000	22.2636	2.44267	67.7364	4.137e-06	1.13654e-05	6676.51
1000.32	2.49865	1.18858	2.76694	-25.44	7.52571	0.275466	0.0463495	133.86	24.7008	1	9	0.00463537	0.00167527	0	4.45885e-05	0.326366	0.155249	0.36141	25.44	24700.8	51926.1	57501.8	-64.56	0.0000000E+000	0.0000000E+000	0.0000000E+000	64.56	0.0000000E+000	0.0000000E+000	0.0000000E+000	-64.56	0.0000000E+000	0.0000000E+000	0.0000000E+000	-25.44	0.0000000E+000	0.0000000E+000	0.0000000E+000	25.44	2.1022	64.56	4.19396e-06	1.27677e-05	5943.25
463.961	3.01753	1.72327	3.47493	-29.7301	8.71422	0.275457	-0.0202522	199.061	48.9554	1	10	0.00466953	0.00134378	0	4.23269e-05	0.249896	0.142712	0.287776	29.7301	48955.4	85723.2	98717.2	-60.2699	0.0000000E+000	0.0000000E+000	0.0000000E+000	60.2699	0.0000000E+000	0.0000000E+000	0.0000000E+000	-60.2699	0.0000000E+000	0.0000000E+000	0.0000000E+000	-29.7301	0.0000000E+000	0.0000000E+000	0.0000000E+000	29.7301	1.75105	60.2699	-3.02228e-06	-5.5786e-06	13601.4
215.345	3.90046	2.58761	4.68074	-33.5608	9.64841	0.275443	-0.0209159	285.619	87.2883	1	10	0.00462721	0.000988562	0	3.61366e-05	0.178027	0.118105	0.213641	33.5608	87288.3	131575	157896	-56.4392	0.0000000E+000	0.0000000E+000	0.0000000E+000	56.4392	0.0000000E+000	0.0000000E+000	0.0000000E+000	-56.4392	0.0000000E+000	0.0000000E+000	0.0000000E+000	-33.5608	0.0000000E+000	0.0000000E+000	0.0000000E+000	33.5608	1.50736	56.4392	-2.82552e-06	-5.76115e-06	13169.1
100.032	5.48761	3.6016	6.56395	-33.2775	10.5797	0.275465	-0.018714	441.759	132.998	1	10	0.00461789	0.000703523	0	3.22193e-05	0.127366	0.0835921	0.152347	33.2775	132998	202644	242391	-56.7225	0.0000000E+000	0.0000000E+000	0.0000000E+000	56.7225	0.0000000E+000	0.0000000E+000	0.0000000E+000	-56.7225	0.0000000E+000	0.0000000E+000	0.0000000E+000	-33.2775	0.0000000E+000	0.0000000E+000	0.0000000E+000	33.2775	1.52366	56.7225	-1.73787e-06	-5.15507e-06	14719.7
46.4415	7.7883	4.2761	8.88497	-28.7686	11.5136	0.275452	-0.0216487	801.429	185.631	1	10	0.00460196	0.000517949	0	2.82099e-05	0.0986576	0.0541671	0.11255	28.7686	185630	338099	385707	-61.2314	0.0000000E+000	0.0000000E+000	0.0000000E+000	61.2314	0.0000000E+000	0.0000000E+000	0.0000000E+000	-61.2314	0.0000000E+000	0.0000000E+000	0.0000000E+000	-28.7686	0.0000000E+000	0.0000000E+000	0.0000000E+000	28.7686	1.82136	61.2314	-2.06812e-06	-5.96318e-06	12723.8
[...]
0.464091	16.5638	1.42403	16.6249	-4.91376	28.5345	0.275482	-0.00859587	240823	1766.92	1	12	0.00460906	0.000277238	0	-3.79543e-05	0.0599295	0.00515227	0.0601506	4.91376	1.76692e+06	2.05522e+07	2.0628e+07	-85.0862	0.0000000E+000	0.0000000E+000	0.0000000E+000	85.0862	0.0000000E+000	0.0000000E+000	0.0000000E+000	-85.0862	0.0000000E+000	0.0000000E+000	0.0000000E+000	-4.91376	0.0000000E+000	0.0000000E+000	0.0000000E+000	4.91376	11.6317	85.0862	-2.7353e-05	-2.36801e-06	32048.2
0.215268	17.0615	1.54021	17.1308	-5.15836	45.0127	0.275479	-0.00797127	480021	3880.29	1	12	0.00459998	0.00026852	0	-0.000121636	0.0581378	0.00524835	0.0583742	5.15836	3.88029e+06	4.29833e+07	4.31581e+07	-84.8416	0.0000000E+000	0.0000000E+000	0.0000000E+000	84.8416	0.0000000E+000	0.0000000E+000	0.0000000E+000	-84.8416	0.0000000E+000	0.0000000E+000	0.0000000E+000	-5.15836	0.0000000E+000	0.0000000E+000	0.0000000E+000	5.15836	11.0773	84.8416	-4.33975e-05	-2.19592e-06	34559
0.0999041	17.6501	2.27434	17.796	-7.34251	80.4182	0.275481	-0.00708475	700457	11440.6	1	12	0.00460249	0.000258625	0	-0.000145471	0.0557316	0.00718142	0.0561924	7.34251	1.14406e+07	8.87847e+07	8.95188e+07	-82.6575	0.0000000E+000	0.0000000E+000	0.0000000E+000	82.6575	0.0000000E+000	0.0000000E+000	0.0000000E+000	-82.6575	0.0000000E+000	0.0000000E+000	0.0000000E+000	-7.34251	0.0000000E+000	0.0000000E+000	0.0000000E+000	7.34251	7.76053	82.6575	5.79309e-06	-1.95171e-06	38883.7
0.0464052	18.6108	3.59258	18.9544	-10.9258	156.654	0.275481	-0.002447	954656	34295.8	1	12	0.00460352	0.000242874	0	4.21862e-07	0.0518019	0.0099997	0.0527582	10.9258	3.42958e+07	1.77664e+08	1.80944e+08	-79.0742	0.0000000E+000	0.0000000E+000	0.0000000E+000	79.0742	0.0000000E+000	0.0000000E+000	0.0000000E+000	-79.0742	0.0000000E+000	0.0000000E+000	0.0000000E+000	-10.9258	0.0000000E+000	0.0000000E+000	0.0000000E+000	10.9258	5.18034	79.0742	9.94886e-05	-6.74102e-07	112579
0.0215268	20.1243	6.26988	21.0784	-17.3048	320.884	0.275482	0.000551066	1.17919e+06	104334	1	12	0.00460867	0.000218644	0	1.71632e-05	0.0452945	0.0141118	0.0474419	17.3048	1.04334e+08	3.34878e+08	3.50755e+08	-72.6952	0.0000000E+000	0.0000000E+000	0.0000000E+000	72.6952	0.0000000E+000	0.0000000E+000	0.0000000E+000	-72.6952	0.0000000E+000	0.0000000E+000	0.0000000E+000	-17.3048	0.0000000E+000	0.0000000E+000	0.0000000E+000	17.3048	3.20968	72.6952	-6.21295e-05	1.51809e-07	499907
0.0146812	20.9502	8.18602	22.4927	-21.3425	464.079	0.275482	0.000318355	1.3243e+06	175408	1	12	0.00460519	0.000204742	0	-0.000300833	0.04141	0.0161805	0.0444589	21.3425	1.75408e+08	4.48916e+08	4.81968e+08	-68.6575	0.0000000E+000	0.0000000E+000	0.0000000E+000	68.6575	0.0000000E+000	0.0000000E+000	0.0000000E+000	-68.6575	0.0000000E+000	0.0000000E+000	0.0000000E+000	-21.3425	0.0000000E+000	0.0000000E+000	0.0000000E+000	21.3425	2.55926	68.6575	-0.000317996	8.7701e-08	865330

0.0100092	22.1859	10.6552	24.612	-25.6536	674.098	0.275488	-0.000265735	1.49231e+06	279700	1	12	0.00460401	0.000187064	0	-0.000863971	0.0366256	0.0175902	0.0406306	25.6536	2.797e+08	5.8238e+08	6.46064e+08	-64.3464	0.0000000E+000	0.0000000E+000	0.0000000E+000	64.3464	0.0000000E+000	0.0000000E+000	0.0000000E+000	-64.3464	0.0000000E+000	0.0000000E+000	0.0000000E+000	-25.6536	0.0000000E+000	0.0000000E+000	0.0000000E+000	25.6536	2.08216	64.3464	-0.000563138	-7.3207e-08	1.0367e+06

File: 17740_R277_UA674_SOC00_C04.mpt
EC-Lab ASCII FILE

Nb header lines : 63

Potentio Electrochemical Impedance Spectroscopy

Run on channel : 4 (SN 66756)
User :
CE vs. WE compliance from -10 V to 10 V
Electrode connection : standard
Potential control : Ewe
Ewe ctrl range : min = -10.00 V, max = 10.00 V
Safety Limits :
	Do not start on E overload
Acquisition started on : 09/22/2025 08:11:34.083
Loaded Setting File :  C:\Users\Celltest\OneDrive - store-dot.com\Documents\EC-Lab\Data\Gyutae\17739_R277_UA674_SOC00_C03.mpr
Saved on :
	File : 17740_R277_UA674_SOC00_C04.mpr
	Directory : C:\Users\Celltest\OneDrive - store-dot.com\Documents\EC-Lab\Data\Gyutae\
	Host : 169.254.61.224
Device : VMP-3e (SN .003165)
Address : USB
EC-LAB for windows v11.62 (software)
Internet server v27.00 (firmware)
Command interpretor v12.03 (firmware)
Electrode material :
Initial state :
Electrolyte :
Comments :
Electrode surface area : 0.001 cm²
Characteristic mass : 0.001 g
Equivalent Weight : 0.000 g/eq.
Density : 0.000 g/cm3
Volume (V) : 0.001 cm³
Cycle Definition : Charge/Discharge alternance
Mode                Single sine
E (V)               0.0000
vs.                 Eoc
tE (h:m:s)          0:00:0.0000
record              0
dI                  0.000
unit dI             mA
dt (s)              0.000
fi                  100.000
unit fi             kHz
ff                  10.000
unit ff             mHz
Nd                  6
Points              per decade
spacing             Logarithmic
Va (mV)             5.0
pw                  0.10
Na                  2
corr                0
E range min (V)     -10.000
E range max (V)     10.000
I Range             Auto
Bandwidth           5
nc cycles           0
goto Ns'            0
nr cycles           0
inc. cycle          0

freq/Hz	Re(Z)/Ohm	-Im(Z)/Ohm	|Z|/Ohm	Phase(Z)/deg	time/s	<Ewe>/V	<I>/mA	Cs/µF	Cp/µF	cycle number	I Range	|Ewe|/V	|I|/A	Ns	(Q-Qo)/mA.h	Re(Y)/Ohm-1	Im(Y)/Ohm-1	|Y|/Ohm-1	Phase(Y)/deg	Re(C)/nF	Im(C)/nF	|C|/nF	Phase(C)/deg	Re(M)	Im(M)	|M|	Phase(M)/deg	Re(Permittivity)	Im(Permittivity)	|Permittivity|	Phase(Permittivity)/deg	Re(Resistivity)/Ohm.cm	Im(Resistivity)/Ohm.cm	|Resistivity|/Ohm.cm	Phase(Resistivity)/deg	Re(Conductivity)/mS/cm	Im(Conductivity)/mS/cm	|Conductivity|/mS/cm	Phase(Conductivity)/deg	Tan(Delta)	Loss Angle(Delta)/deg	dq/mA.h	Pwe/W	Rwe/Ohm
100004	1.41109	0.225744	1.42903	-9.08911	2.07747	0.277716	-0.00539339	7.04997	0.175929	1	9	0.00469626	0.00328633	0	-3.91699e-06	0.690989	0.110544	0.699776	9.08911	175.929	1099.7	1113.69	-80.9109	0.0000000E+000	0.0000000E+000	0.0000000E+000	80.9109	0.0000000E+000	0.0000000E+000	0.0000000E+000	-80.9109	0.0000000E+000	0.0000000E+000	0.0000000E+000	-9.08911	0.0000000E+000	0.0000000E+000	0.0000000E+000	9.08911	6.25082	80.9109	-3.91699e-06	-1.49783e-06	51491.9
46420.4	1.57042	-0.171447	1.57975	6.23046	2.95248	0.277697	-0.00373374	-19.9978	-0.23554	1	9	0.00115395	0.000730464	0	-2.56115e-06	0.629274	-0.0686995	0.633013	-6.23046	-235.54	2157.5	2170.32	-96.2305	0.0000000E+000	0.0000000E+000	0.0000000E+000	96.2305	0.0000000E+000	0.0000000E+000	0.0000000E+000	-96.2305	0.0000000E+000	0.0000000E+000	0.0000000E+000	6.23046	0.0000000E+000	0.0000000E+000	0.0000000E+000	-6.23046	9.1598	83.7695	-8.35988e-07	-1.03685e-06	74375.2
21544.7	1.70061	0.491216	1.77013	-16.1112	4.25249	0.277677	-0.0373758	15.0386	1.15808	1	9	0.00507511	0.00286708	0	0.000186563	0.542741	0.156769	0.564929	16.1112	1158.08	4009.34	4173.24	-73.8888	0.0000000E+000	0.0000000E+000	0.0000000E+000	73.8888	0.0000000E+000	0.0000000E+000	0.0000000E+000	-73.8888	0.0000000E+000	0.0000000E+000	0.0000000E+000	-16.1112	0.0000000E+000	0.0000000E+000	0.0000000E+000	16.1112	3.46205	73.8888	0.000189223	-1.03784e-05	7429.33
10002.2	1.935	0.619074	2.03162	-17.7413	4.8455	0.277669	-0.038644	25.7028	2.38661	1	9	0.0047114	0.00231904	0	0.000184114	0.468809	0.149988	0.492218	17.7413	2386.61	7459.67	7832.15	-72.2587	0.0000000E+000	0.0000000E+000	0.0000000E+000	72.2587	0.0000000E+000	0.0000000E+000	0.0000000E+000	-72.2587	0.0000000E+000	0.0000000E+000	0.0000000E+000	-17.7413	0.0000000E+000	0.0000000E+000	0.0000000E+000	17.7413	3.12564	72.2587	-1.29864e-06	-1.07302e-05	7185.31
4641.49	2.23983	0.812538	2.38266	-19.9391	5.9187	0.277682	-0.00613937	42.2007	4.90776	1	9	0.0049361	0.00207168	0	0.00017503	0.394541	0.143127	0.419699	19.9391	4907.76	13528.7	14391.3	-70.0609	0.0000000E+000	0.0000000E+000	0.0000000E+000	70.0609	0.0000000E+000	0.0000000E+000	0.0000000E+000	-70.0609	0.0000000E+000	0.0000000E+000	0.0000000E+000	-19.9391	0.0000000E+000	0.0000000E+000	0.0000000E+000	19.9391	2.75659	70.0609	-2.49285e-06	-1.70479e-06	45229.7
2155.69	2.63446	1.06836	2.84285	-22.0741	6.85168	0.27767	-0.00930966	69.1061	9.75987	1	9	0.00481824	0.00169486	0	0.000170924	0.325975	0.132194	0.35176	22.0741	9759.87	24066.8	25970.5	-67.9259	0.0000000E+000	0.0000000E+000	0.0000000E+000	67.9259	0.0000000E+000	0.0000000E+000	0.0000000E+000	-67.9259	0.0000000E+000	0.0000000E+000	0.0000000E+000	-22.0741	0.0000000E+000	0.0000000E+000	0.0000000E+000	22.0741	2.4659	67.9259	-2.61462e-06	-2.58501e-06	29826
1000.32	3.15813	1.43055	3.46702	-24.3693	8.0417	0.277731	-0.016816	111.219	18.9352	1	10	0.00486637	0.00140362	0	0.000166895	0.262734	0.119012	0.288432	24.3693	18935.2	41802	45890.7	-65.6307	0.0000000E+000	0.0000000E+000	0.0000000E+000	65.6307	0.0000000E+000	0.0000000E+000	0.0000000E+000	-65.6307	0.0000000E+000	0.0000000E+000	0.0000000E+000	-24.3693	0.0000000E+000	0.0000000E+000	0.0000000E+000	24.3693	2.20763	65.6307	-2.66209e-06	-4.67032e-06	16515.9
463.961	3.82196	1.98549	4.30692	-27.4517	8.97622	0.277666	-0.0163572	172.771	36.7175	1	10	0.00479678	0.00111374	0	0.000163098	0.20604	0.107037	0.232184	27.4517	36717.5	70679.2	79647.5	-62.5483	0.0000000E+000	0.0000000E+000	0.0000000E+000	62.5483	0.0000000E+000	0.0000000E+000	0.0000000E+000	-62.5483	0.0000000E+000	0.0000000E+000	0.0000000E+000	-27.4517	0.0000000E+000	0.0000000E+000	0.0000000E+000	27.4517	1.92495	62.5483	-2.53352e-06	-4.54183e-06	16975.1
215.345	4.83606	2.81028	5.59331	-30.1613	9.91044	0.277685	-0.0171032	262.989	66.3892	1	10	0.00475742	0.000850556	0	0.000158581	0.15458	0.0898279	0.178785	30.1613	66389.2	114246	132135	-59.8387	0.0000000E+000	0.0000000E+000	0.0000000E+000	59.8387	0.0000000E+000	0.0000000E+000	0.0000000E+000	-59.8387	0.0000000E+000	0.0000000E+000	0.0000000E+000	-30.1613	0.0000000E+000	0.0000000E+000	0.0000000E+000	30.1613	1.72085	59.8387	-1.91645e-06	-4.74931e-06	16235.8
100.032	6.4724	3.85604	7.53399	-30.7851	10.8417	0.277655	-0.0161371	412.61	108.087	1	10	0.00474859	0.000630289	0	0.000155024	0.114029	0.0679347	0.132732	30.7851	108087	181425	211182	-59.2149	0.0000000E+000	0.0000000E+000	0.0000000E+000	59.2149	0.0000000E+000	0.0000000E+000	0.0000000E+000	-59.2149	0.0000000E+000	0.0000000E+000	0.0000000E+000	-30.7851	0.0000000E+000	0.0000000E+000	0.0000000E+000	30.7851	1.67851	59.2149	-1.71942e-06	-4.48055e-06	17206
46.4415	8.90493	4.57488	10.0114	-27.1917	11.7755	0.277658	-0.0182335	749.089	156.425	1	10	0.00475199	0.00047466	0	0.000151764	0.0888473	0.045645	0.0998865	27.1917	156425	304479	342311	-62.8083	0.0000000E+000	0.0000000E+000	0.0000000E+000	62.8083	0.0000000E+000	0.0000000E+000	0.0000000E+000	-62.8083	0.0000000E+000	0.0000000E+000	0.0000000E+000	-27.1917	0.0000000E+000	0.0000000E+000	0.0000000E+000	27.1917	1.94648	62.8083	-1.80326e-06	-5.06267e-06	15227.9
[...]
0.464091	18.6024	1.55901	18.6676	-4.7906	28.8	0.277697	-0.00202546	219973	1534.23	1	12	0.00473618	0.000253712	0	0.000111221	0.0533817	0.00447376	0.0535688	4.7906	1.53423e+06	1.83067e+07	1.83709e+07	-85.2094	0.0000000E+000	0.0000000E+000	0.0000000E+000	85.2094	0.0000000E+000	0.0000000E+000	0.0000000E+000	-85.2094	0.0000000E+000	0.0000000E+000	0.0000000E+000	-4.7906	0.0000000E+000	0.0000000E+000	0.0000000E+000	4.7906	11.9322	85.2094	-1.74015e-05	-5.62463e-07	137103
0.215268	19.156	1.73631	19.2345	-5.17916	45.28	0.277702	-0.00400999	425808	3469.8	1	12	0.00473931	0.000246395	0	0.000100636	0.0517775	0.00469313	0.0519898	5.17916	3.4698e+06	3.82809e+07	3.84378e+07	-84.8208	0.0000000E+000	0.0000000E+000	0.0000000E+000	84.8208	0.0000000E+000	0.0000000E+000	0.0000000E+000	-84.8208	0.0000000E+000	0.0000000E+000	0.0000000E+000	-5.17916	0.0000000E+000	0.0000000E+000	0.0000000E+000	5.17916	11.0326	84.8208	2.17429e-06	-1.11358e-06	69252.6
0.0999041	19.7908	2.38183	19.9337	-6.86255	80.6866	0.277732	-0.00239897	668845	9549.36	1	12	0.00473861	0.000237719	0	0.000178356	0.049807	0.00599428	0.0501664	6.86255	9.54936e+06	7.93464e+07	7.9919e+07	-83.1374	0.0000000E+000	0.0000000E+000	0.0000000E+000	83.1374	0.0000000E+000	0.0000000E+000	0.0000000E+000	-83.1374	0.0000000E+000	0.0000000E+000	0.0000000E+000	-6.86255	0.0000000E+000	0.0000000E+000	0.0000000E+000	6.86255	8.30908	83.1374	5.06784e-05	-6.66271e-07	115771
0.0464052	20.9783	3.85234	21.3291	-10.4055	156.923	0.277738	0.000638362	890286	29042.4	1	12	0.00474385	0.000222412	0	0.000257327	0.0461133	0.00846798	0.0468843	10.4055	2.90424e+07	1.58154e+08	1.60798e+08	-79.5945	0.0000000E+000	0.0000000E+000	0.0000000E+000	79.5945	0.0000000E+000	0.0000000E+000	0.0000000E+000	-79.5945	0.0000000E+000	0.0000000E+000	0.0000000E+000	-10.4055	0.0000000E+000	0.0000000E+000	0.0000000E+000	10.4055	5.44561	79.5945	2.27071e-05	1.77297e-07	435079
0.0215268	22.4517	6.46639	23.3643	-16.0671	321.152	0.27772	0.000433877	1.14335e+06	87578.2	1	12	0.00474558	0.000203112	0	-7.2489e-05	0.0411284	0.0118455	0.0428003	16.0671	8.75782e+07	3.04077e+08	3.16437e+08	-73.9329	0.0000000E+000	0.0000000E+000	0.0000000E+000	73.9329	0.0000000E+000	0.0000000E+000	0.0000000E+000	-73.9329	0.0000000E+000	0.0000000E+000	0.0000000E+000	-16.0671	0.0000000E+000	0.0000000E+000	0.0000000E+000	16.0671	3.47206	73.9329	-0.000244466	1.20496e-07	640089
0.0146812	23.5765	8.38419	25.0229	-19.5763	464.347	0.277711	-0.000471424	1.293e+06	145160	1	12	0.00474672	0.000189695	0	-0.00043839	0.0376534	0.0133902	0.0399634	19.5763	1.4516e+08	4.08191e+08	4.33233e+08	-70.4238	0.0000000E+000	0.0000000E+000	0.0000000E+000	70.4238	0.0000000E+000	0.0000000E+000	0.0000000E+000	-70.4238	0.0000000E+000	0.0000000E+000	0.0000000E+000	-19.5763	0.0000000E+000	0.0000000E+000	0.0000000E+000	19.5763	2.81201	70.4238	-0.000365901	-1.3092e-07	589089

0.0100092	25.0056	11.1587	27.3824	-24.0487	674.368	0.277723	-0.00096359	1.42498e+06	236642	1	12	0.00474502	0.000173287	0	-0.000727851	0.0333498	0.0148823	0.0365198	24.0487	2.36642e+08	5.30293e+08	5.80698e+08	-65.9513	0.0000000E+000	0.0000000E+000	0.0000000E+000	65.9513	0.0000000E+000	0.0000000E+000	0.0000000E+000	-65.9513	0.0000000E+000	0.0000000E+000	0.0000000E+000	-24.0487	0.0000000E+000	0.0000000E+000	0.0000000E+000	24.0487	2.2409	65.9513	-0.000289461	-2.67611e-07	288217