Folder: EIS/txt (part 57)

File: 17701_R287_UA661_SOC00_C08.mpt
EC-Lab ASCII FILE

Nb header lines : 63

Potentio Electrochemical Impedance Spectroscopy

Run on channel : 8 (SN 65398)
User :
CE vs. WE compliance from -10 V to 10 V
Electrode connection : standard
Potential control : Ewe
Ewe ctrl range : min = -10.00 V, max = 10.00 V
Safety Limits :
	Do not start on E overload
Acquisition started on : 09/22/2025 09:04:51.253
Loaded Setting File :  C:\Users\Celltest\OneDrive - store-dot.com\Documents\EC-Lab\Data\Charmaine\17688_R288_UA670_SOC00_C03.mpr
Saved on :
	File : 17701_R287_UA661_SOC00_C08.mpr
	Directory : C:\Users\Celltest\OneDrive - store-dot.com\Documents\EC-Lab\Data\Charmaine\
	Host : 169.254.61.224
Device : VMP-3e (SN .003165)
Address : USB
EC-LAB for windows v11.62 (software)
Internet server v27.00 (firmware)
Command interpretor v12.03 (firmware)
Electrode material :
Initial state :
Electrolyte :
Comments :
Electrode surface area : 0.001 cm²
Characteristic mass : 0.001 g
Equivalent Weight : 0.000 g/eq.
Density : 0.000 g/cm3
Volume (V) : 0.001 cm³
Cycle Definition : Charge/Discharge alternance
Mode                Single sine
E (V)               0.0000
vs.                 Eoc
tE (h:m:s)          0:00:0.0000
record              0
dI                  0.000
unit dI             mA
dt (s)              0.000
fi                  100.000
unit fi             kHz
ff                  10.000
unit ff             mHz
Nd                  6
Points              per decade
spacing             Logarithmic
Va (mV)             5.0
pw                  0.10
Na                  2
corr                0
E range min (V)     -10.000
E range max (V)     10.000
I Range             Auto
Bandwidth           5
nc cycles           0
goto Ns'            0
nr cycles           0
inc. cycle          0

freq/Hz	Re(Z)/Ohm	-Im(Z)/Ohm	|Z|/Ohm	Phase(Z)/deg	time/s	<Ewe>/V	<I>/mA	Cs/µF	Cp/µF	cycle number	I Range	|Ewe|/V	|I|/A	Ns	(Q-Qo)/mA.h	Re(Y)/Ohm-1	Im(Y)/Ohm-1	|Y|/Ohm-1	Phase(Y)/deg	Re(C)/nF	Im(C)/nF	|C|/nF	Phase(C)/deg	Re(M)	Im(M)	|M|	Phase(M)/deg	Re(Permittivity)	Im(Permittivity)	|Permittivity|	Phase(Permittivity)/deg	Re(Resistivity)/Ohm.cm	Im(Resistivity)/Ohm.cm	|Resistivity|/Ohm.cm	Phase(Resistivity)/deg	Re(Conductivity)/mS/cm	Im(Conductivity)/mS/cm	|Conductivity|/mS/cm	Phase(Conductivity)/deg	Tan(Delta)	Loss Angle(Delta)/deg	dq/mA.h	Pwe/W	Rwe/Ohm
100004	1.14977	0.217032	1.17008	-10.6894	2.06649	0.276642	0.0515275	7.33298	0.252289	1	9	0.00472376	0.00403714	0	1.09002e-05	0.839813	0.158524	0.854644	10.6894	252.289	1336.55	1360.16	-79.3106	0.0000000E+000	0.0000000E+000	0.0000000E+000	79.3106	0.0000000E+000	0.0000000E+000	0.0000000E+000	-79.3106	0.0000000E+000	0.0000000E+000	0.0000000E+000	-10.6894	0.0000000E+000	0.0000000E+000	0.0000000E+000	10.6894	5.29772	79.3106	1.09002e-05	1.42547e-05	5368.82
46420.4	1.25594	0.260279	1.28262	-11.7082	3.08149	0.276642	0.0467284	13.1726	0.542441	1	9	0.00503755	0.00392753	0	2.56649e-05	0.76343	0.158213	0.779651	11.7082	542.441	2617.46	2673.08	-78.2918	0.0000000E+000	0.0000000E+000	0.0000000E+000	78.2918	0.0000000E+000	0.0000000E+000	0.0000000E+000	-78.2918	0.0000000E+000	0.0000000E+000	0.0000000E+000	-11.7082	0.0000000E+000	0.0000000E+000	0.0000000E+000	11.7082	4.82534	78.2918	8.74162e-07	1.2927e-05	5920.2
21544.7	1.38333	0.338619	1.42417	-13.7547	4.0965	0.276639	0.0484211	21.8157	1.23329	1	9	0.00534091	0.00375018	0	3.68383e-05	0.682025	0.166949	0.702161	13.7547	1233.29	5038.26	5187	-76.2453	0.0000000E+000	0.0000000E+000	0.0000000E+000	76.2453	0.0000000E+000	0.0000000E+000	0.0000000E+000	-76.2453	0.0000000E+000	0.0000000E+000	0.0000000E+000	-13.7547	0.0000000E+000	0.0000000E+000	0.0000000E+000	13.7547	4.08522	76.2453	-1.65887e-06	1.33952e-05	5713.18
10002.2	1.52971	0.444201	1.5929	-16.1924	4.82948	0.276642	0.0510997	35.8215	2.78565	1	9	0.00482236	0.00302741	0	4.45431e-05	0.602882	0.175067	0.627786	16.1924	2785.65	9593.04	9989.31	-73.8076	0.0000000E+000	0.0000000E+000	0.0000000E+000	73.8076	0.0000000E+000	0.0000000E+000	0.0000000E+000	-73.8076	0.0000000E+000	0.0000000E+000	0.0000000E+000	-16.1924	0.0000000E+000	0.0000000E+000	0.0000000E+000	16.1924	3.44373	73.8076	6.00227e-06	1.41363e-05	5413.78
4641.49	1.71955	0.623105	1.82897	-19.9187	5.90167	0.276609	0.0745185	55.0303	6.38722	1	9	0.00492443	0.00269246	0	4.06114e-05	0.514047	0.186272	0.546756	19.9187	6387.22	17626.5	18748.1	-70.0813	0.0000000E+000	0.0000000E+000	0.0000000E+000	70.0813	0.0000000E+000	0.0000000E+000	0.0000000E+000	-70.0813	0.0000000E+000	0.0000000E+000	0.0000000E+000	-19.9187	0.0000000E+000	0.0000000E+000	0.0000000E+000	19.9187	2.75965	70.0813	1.00146e-05	2.06125e-05	3711.96
2155.69	1.97014	0.928066	2.17778	-25.2236	6.83567	0.276614	0.0734768	79.5527	14.4472	1	9	0.00480161	0.00220481	0	5.83824e-05	0.4154	0.195681	0.459182	25.2236	14447.2	30669.1	33901.5	-64.7764	0.0000000E+000	0.0000000E+000	0.0000000E+000	64.7764	0.0000000E+000	0.0000000E+000	0.0000000E+000	-64.7764	0.0000000E+000	0.0000000E+000	0.0000000E+000	-25.2236	0.0000000E+000	0.0000000E+000	0.0000000E+000	25.2236	2.12284	64.7764	7.32364e-06	2.03247e-05	3764.64
1000.32	2.35578	1.45699	2.76993	-31.7357	7.77171	0.276607	0.0759693	109.201	30.2133	1	9	0.00476448	0.00172007	0	7.57901e-05	0.307041	0.189897	0.361019	31.7357	30213.3	48851.5	57439.6	-58.2643	0.0000000E+000	0.0000000E+000	0.0000000E+000	58.2643	0.0000000E+000	0.0000000E+000	0.0000000E+000	-58.2643	0.0000000E+000	0.0000000E+000	0.0000000E+000	-31.7357	0.0000000E+000	0.0000000E+000	0.0000000E+000	31.7357	1.61688	58.2643	9.90717e-06	2.10137e-05	3641.04
463.961	2.98776	2.30402	3.77296	-37.6377	8.96018	0.276582	-0.0125732	148.886	55.5214	1	10	0.00480846	0.00127445	0	7.63744e-05	0.209885	0.161853	0.265044	37.6377	55521.4	71998.1	90919.5	-52.3623	0.0000000E+000	0.0000000E+000	0.0000000E+000	52.3623	0.0000000E+000	0.0000000E+000	0.0000000E+000	-52.3623	0.0000000E+000	0.0000000E+000	0.0000000E+000	-37.6377	0.0000000E+000	0.0000000E+000	0.0000000E+000	37.6377	1.29676	52.3623	-1.82691e-06	-3.47752e-06	21997.7
215.345	4.10099	3.60764	5.46198	-41.338	9.89445	0.276583	-0.0127592	204.863	89.3736	1	10	0.00476137	0.00087173	0	7.45313e-05	0.137464	0.120927	0.183084	41.338	89373.6	101596	135312	-48.662	0.0000000E+000	0.0000000E+000	0.0000000E+000	48.662	0.0000000E+000	0.0000000E+000	0.0000000E+000	-48.662	0.0000000E+000	0.0000000E+000	0.0000000E+000	-41.338	0.0000000E+000	0.0000000E+000	0.0000000E+000	41.338	1.13675	48.662	-6.72763e-07	-3.52898e-06	21677.1
100.032	6.05354	5.43373	8.13454	-41.9115	10.8257	0.276587	-0.012616	292.808	130.651	1	10	0.0047412	0.000582848	0	7.07912e-05	0.0914837	0.0821167	0.122933	41.9115	130651	145554	195591	-48.0885	0.0000000E+000	0.0000000E+000	0.0000000E+000	48.0885	0.0000000E+000	0.0000000E+000	0.0000000E+000	-48.0885	0.0000000E+000	0.0000000E+000	0.0000000E+000	-41.9115	0.0000000E+000	0.0000000E+000	0.0000000E+000	41.9115	1.11407	48.0885	-1.89641e-06	-3.48942e-06	21923.5
46.4415	9.43384	7.46828	12.0321	-38.3668	11.7595	0.276571	-0.0160105	458.873	176.786	1	10	0.00473573	0.00039359	0	6.7344e-05	0.0651632	0.0515863	0.0831107	38.3668	176786	223314	284820	-51.6332	0.0000000E+000	0.0000000E+000	0.0000000E+000	51.6332	0.0000000E+000	0.0000000E+000	0.0000000E+000	-51.6332	0.0000000E+000	0.0000000E+000	0.0000000E+000	-38.3668	0.0000000E+000	0.0000000E+000	0.0000000E+000	38.3668	1.26319	51.6332	-1.87479e-06	-4.42804e-06	17274.4
[...]
0.464091	31.7702	4.60546	32.1023	-8.24824	28.7669	0.276631	-0.00414757	74463.6	1532.57	1	12	0.0047406	0.000147672	0	3.47346e-05	0.0308282	0.00446891	0.0311504	8.24824	1.53257e+06	1.05722e+07	1.06827e+07	-81.7518	0.0000000E+000	0.0000000E+000	0.0000000E+000	81.7518	0.0000000E+000	0.0000000E+000	0.0000000E+000	-81.7518	0.0000000E+000	0.0000000E+000	0.0000000E+000	-8.24824	0.0000000E+000	0.0000000E+000	0.0000000E+000	8.24824	6.89837	81.7518	-4.07961e-06	-1.14735e-06	66697
0.215268	33.5238	4.10345	33.774	-6.97854	45.247	0.27662	-0.00398749	180174	2659.66	1	12	0.0047426	0.000140422	0	4.52986e-05	0.0293892	0.00359737	0.0296086	6.97854	2.65966e+06	2.17285e+07	2.18907e+07	-83.0215	0.0000000E+000	0.0000000E+000	0.0000000E+000	83.0215	0.0000000E+000	0.0000000E+000	0.0000000E+000	-83.0215	0.0000000E+000	0.0000000E+000	0.0000000E+000	-6.97854	0.0000000E+000	0.0000000E+000	0.0000000E+000	6.97854	8.16965	83.0215	8.39024e-06	-1.10302e-06	69372
0.0999041	35.0099	4.36999	35.2816	-7.11495	80.6536	0.276607	-0.00221999	364550	5592.69	1	12	0.00473334	0.000134159	0	4.89687e-05	0.0281251	0.00351062	0.0283434	7.11495	5.59269e+06	4.48055e+07	4.51532e+07	-82.8851	0.0000000E+000	0.0000000E+000	0.0000000E+000	82.8851	0.0000000E+000	0.0000000E+000	0.0000000E+000	-82.8851	0.0000000E+000	0.0000000E+000	0.0000000E+000	-7.11495	0.0000000E+000	0.0000000E+000	0.0000000E+000	7.11495	8.01144	82.8851	-4.28103e-06	-6.14066e-07	124598
0.0464052	36.5672	5.68039	37.0058	-8.82982	156.889	0.276616	-0.000918637	603775	14226.3	1	12	0.00474075	0.000128108	0	-5.84946e-05	0.0267025	0.004148	0.0270228	8.82982	1.42263e+07	9.15812e+07	9.26795e+07	-81.1702	0.0000000E+000	0.0000000E+000	0.0000000E+000	81.1702	0.0000000E+000	0.0000000E+000	0.0000000E+000	-81.1702	0.0000000E+000	0.0000000E+000	0.0000000E+000	-8.82982	0.0000000E+000	0.0000000E+000	0.0000000E+000	8.82982	6.43745	81.1702	-7.89674e-05	-2.5411e-07	301116
0.0215268	39.0025	8.29193	39.8742	-12.0024	321.118	0.276613	-0.00149457	891631	38557.9	1	12	0.00474171	0.000118917	0	-0.000338807	0.0245306	0.00521522	0.0250789	12.0024	3.85579e+07	1.81364e+08	1.85417e+08	-77.9976	0.0000000E+000	0.0000000E+000	0.0000000E+000	77.9976	0.0000000E+000	0.0000000E+000	0.0000000E+000	-77.9976	0.0000000E+000	0.0000000E+000	0.0000000E+000	-12.0024	0.0000000E+000	0.0000000E+000	0.0000000E+000	12.0024	4.70366	77.9976	-0.000150539	-4.13418e-07	185079
0.0146812	40.5908	10.4851	41.9232	-14.4836	464.314	0.276611	-0.00190653	1.03392e+06	64673.1	1	12	0.00473809	0.000113018	0	-0.000435926	0.0230951	0.00596574	0.0238531	14.4836	6.46731e+07	2.50368e+08	2.58586e+08	-75.5164	0.0000000E+000	0.0000000E+000	0.0000000E+000	75.5164	0.0000000E+000	0.0000000E+000	0.0000000E+000	-75.5164	0.0000000E+000	0.0000000E+000	0.0000000E+000	-14.4836	0.0000000E+000	0.0000000E+000	0.0000000E+000	14.4836	3.87128	75.5164	-9.71186e-05	-5.27367e-07	145086

0.0100092	42.2663	13.1333	44.2597	-17.2614	674.335	0.276621	-0.00167547	1.21074e+06	106605	1	12	0.00473977	0.00010709	0	-0.000372515	0.0215763	0.00670432	0.0225939	17.2614	1.06605e+08	3.43083e+08	3.59264e+08	-72.7386	0.0000000E+000	0.0000000E+000	0.0000000E+000	72.7386	0.0000000E+000	0.0000000E+000	0.0000000E+000	-72.7386	0.0000000E+000	0.0000000E+000	0.0000000E+000	-17.2614	0.0000000E+000	0.0000000E+000	0.0000000E+000	17.2614	3.21827	72.7386	6.34112e-05	-4.63471e-07	165100

File: 17702_R287_UA661_SOC00_C01.mpt
EC-Lab ASCII FILE

Nb header lines : 63

Potentio Electrochemical Impedance Spectroscopy

Run on channel : 1 (SN 66354)
User :
CE vs. WE compliance from -10 V to 10 V
Electrode connection : standard
Potential control : Ewe
Ewe ctrl range : min = -10.00 V, max = 10.00 V
Safety Limits :
	Do not start on E overload
Acquisition started on : 09/22/2025 10:02:39.571
Loaded Setting File :  C:\Users\Celltest\OneDrive - store-dot.com\Documents\EC-Lab\Data\txt_done\14380_R229_UA592_SOC00_C01.mpr
Saved on :
	File : 17702_R287_UA661_SOC00_C01.mpr
	Directory : C:\Users\Celltest\OneDrive - store-dot.com\Documents\EC-Lab\Data\Charmaine\
	Host : 169.254.61.224
Device : VMP-3e (SN .003165)
Address : USB
EC-LAB for windows v11.62 (software)
Internet server v27.00 (firmware)
Command interpretor v12.03 (firmware)
Electrode material :
Initial state :
Electrolyte :
Comments :
Electrode surface area : 0.001 cm²
Characteristic mass : 0.001 g
Equivalent Weight : 0.000 g/eq.
Density : 0.000 g/cm3
Volume (V) : 0.001 cm³
Cycle Definition : Charge/Discharge alternance
Mode                Single sine
E (V)               0.0000
vs.                 Eoc
tE (h:m:s)          0:00:0.0000
record              0
dI                  0.000
unit dI             mA
dt (s)              0.000
fi                  100.000
unit fi             kHz
ff                  10.000
unit ff             mHz
Nd                  6
Points              per decade
spacing             Logarithmic
Va (mV)             5.0
pw                  0.10
Na                  2
corr                0
E range min (V)     -10.000
E range max (V)     10.000
I Range             Auto
Bandwidth           5
nc cycles           0
goto Ns'            0
nr cycles           0
inc. cycle          0

freq/Hz	Re(Z)/Ohm	-Im(Z)/Ohm	|Z|/Ohm	Phase(Z)/deg	time/s	<Ewe>/V	<I>/mA	Cs/µF	Cp/µF	cycle number	I Range	|Ewe|/V	|I|/A	Ns	(Q-Qo)/mA.h	Re(Y)/Ohm-1	Im(Y)/Ohm-1	|Y|/Ohm-1	Phase(Y)/deg	Re(C)/nF	Im(C)/nF	|C|/nF	Phase(C)/deg	Re(M)	Im(M)	|M|	Phase(M)/deg	Re(Permittivity)	Im(Permittivity)	|Permittivity|	Phase(Permittivity)/deg	Re(Resistivity)/Ohm.cm	Im(Resistivity)/Ohm.cm	|Resistivity|/Ohm.cm	Phase(Resistivity)/deg	Re(Conductivity)/mS/cm	Im(Conductivity)/mS/cm	|Conductivity|/mS/cm	Phase(Conductivity)/deg	Tan(Delta)	Loss Angle(Delta)/deg	dq/mA.h	Pwe/W	Rwe/Ohm
100004	1.23634	0.231494	1.25783	-10.6053	2.06849	0.273288	0.0768139	6.87486	0.232863	1	9	0.00474689	0.00377388	0	1.65764e-05	0.781441	0.146318	0.795021	10.6053	232.863	1243.66	1265.27	-79.3947	0.0000000E+000	0.0000000E+000	0.0000000E+000	79.3947	0.0000000E+000	0.0000000E+000	0.0000000E+000	-79.3947	0.0000000E+000	0.0000000E+000	0.0000000E+000	-10.6053	0.0000000E+000	0.0000000E+000	0.0000000E+000	10.6053	5.34071	79.3947	1.65764e-05	2.09923e-05	3557.79
46420.4	1.35093	0.27488	1.37862	-11.5012	3.22448	0.273298	0.0782482	12.4729	0.495871	1	9	0.00500791	0.00363256	0	5.21115e-05	0.7108	0.144629	0.725365	11.5012	495.871	2437.02	2486.96	-78.4988	0.0000000E+000	0.0000000E+000	0.0000000E+000	78.4988	0.0000000E+000	0.0000000E+000	0.0000000E+000	-78.4988	0.0000000E+000	0.0000000E+000	0.0000000E+000	-11.5012	0.0000000E+000	0.0000000E+000	0.0000000E+000	11.5012	4.91463	78.4988	2.26582e-05	2.13851e-05	3492.71
21544.7	1.48329	0.350254	1.52409	-13.286	4.23948	0.273286	0.0819177	21.091	1.11389	1	9	0.00531278	0.00348588	0	6.13453e-05	0.63857	0.150787	0.656131	13.286	1113.89	4717.24	4846.97	-76.714	0.0000000E+000	0.0000000E+000	0.0000000E+000	76.714	0.0000000E+000	0.0000000E+000	0.0000000E+000	-76.714	0.0000000E+000	0.0000000E+000	0.0000000E+000	-13.286	0.0000000E+000	0.0000000E+000	0.0000000E+000	13.286	4.23491	76.714	8.68202e-06	2.23869e-05	3336.1
10002.2	1.63179	0.449024	1.69244	-15.3854	4.9725	0.273287	0.0769629	35.4368	2.49438	1	9	0.00487902	0.00288283	0	7.65159e-05	0.569686	0.156762	0.590861	15.3854	2494.38	9064.82	9401.75	-74.6146	0.0000000E+000	0.0000000E+000	0.0000000E+000	74.6146	0.0000000E+000	0.0000000E+000	0.0000000E+000	-74.6146	0.0000000E+000	0.0000000E+000	0.0000000E+000	-15.3854	0.0000000E+000	0.0000000E+000	0.0000000E+000	15.3854	3.63409	74.6146	6.76723e-06	2.10329e-05	3550.89
4641.49	1.82173	0.632216	1.92831	-19.1389	6.04669	0.273274	0.1055	54.2373	5.83008	1	9	0.00499586	0.0025908	0	9.16524e-05	0.489924	0.170024	0.518589	19.1389	5830.08	16799.3	17782.2	-70.8611	0.0000000E+000	0.0000000E+000	0.0000000E+000	70.8611	0.0000000E+000	0.0000000E+000	0.0000000E+000	-70.8611	0.0000000E+000	0.0000000E+000	0.0000000E+000	-19.1389	0.0000000E+000	0.0000000E+000	0.0000000E+000	19.1389	2.88149	70.8611	1.72374e-05	2.88304e-05	2590.29
2155.69	2.08394	0.936732	2.28479	-24.204	6.98068	0.273284	0.100154	78.8167	13.2482	1	9	0.00488381	0.00213753	0	0.000117286	0.399202	0.179442	0.437677	24.204	13248.2	29473.1	32313.8	-65.796	0.0000000E+000	0.0000000E+000	0.0000000E+000	65.796	0.0000000E+000	0.0000000E+000	0.0000000E+000	-65.796	0.0000000E+000	0.0000000E+000	0.0000000E+000	-24.204	0.0000000E+000	0.0000000E+000	0.0000000E+000	24.204	2.22469	65.796	1.07224e-05	2.73704e-05	2728.65
1000.32	2.46033	1.46039	2.86111	-30.6922	7.91671	0.273274	0.101905	108.946	28.3844	1	9	0.00484083	0.00169194	0	0.00014359	0.300555	0.178401	0.349514	30.6922	28384.4	47819.5	55609.1	-59.3078	0.0000000E+000	0.0000000E+000	0.0000000E+000	59.3078	0.0000000E+000	0.0000000E+000	0.0000000E+000	-59.3078	0.0000000E+000	0.0000000E+000	0.0000000E+000	-30.6922	0.0000000E+000	0.0000000E+000	0.0000000E+000	30.6922	1.68471	59.3078	1.29359e-05	2.78479e-05	2681.66
463.961	3.11014	2.33422	3.88865	-36.8889	9.10519	0.273259	-0.0103371	146.959	52.9521	1	10	0.00487381	0.00125334	0	0.00014749	0.205676	0.154363	0.257159	36.8889	52952.1	70554.2	88214.6	-53.1111	0.0000000E+000	0.0000000E+000	0.0000000E+000	53.1111	0.0000000E+000	0.0000000E+000	0.0000000E+000	-53.1111	0.0000000E+000	0.0000000E+000	0.0000000E+000	-36.8889	0.0000000E+000	0.0000000E+000	0.0000000E+000	36.8889	1.33241	53.1111	-1.7385e-06	-2.8247e-06	26434.8
215.345	4.23485	3.66864	5.60293	-40.9023	10.0385	0.27326	-0.0115335	201.457	86.3695	1	10	0.00483758	0.000863402	0	0.000145259	0.134899	0.116862	0.178478	40.9023	86369.5	99699.6	131908	-49.0977	0.0000000E+000	0.0000000E+000	0.0000000E+000	49.0977	0.0000000E+000	0.0000000E+000	0.0000000E+000	-49.0977	0.0000000E+000	0.0000000E+000	0.0000000E+000	-40.9023	0.0000000E+000	0.0000000E+000	0.0000000E+000	40.9023	1.15434	49.0977	-7.0732e-07	-3.15163e-06	23692.8
100.032	6.18344	5.53782	8.30075	-41.8472	10.9697	0.273247	-0.010762	287.304	127.875	1	10	0.0048164	0.000580236	0	0.000142545	0.0897421	0.0803719	0.120471	41.8472	127875	142783	191674	-48.1528	0.0000000E+000	0.0000000E+000	0.0000000E+000	48.1528	0.0000000E+000	0.0000000E+000	0.0000000E+000	-48.1528	0.0000000E+000	0.0000000E+000	0.0000000E+000	-41.8472	0.0000000E+000	0.0000000E+000	0.0000000E+000	41.8472	1.11658	48.1528	-1.37749e-06	-2.94068e-06	25390
46.4415	9.58858	7.66989	12.2788	-38.6563	11.9036	0.273245	-0.0143473	446.811	174.338	1	10	0.00481003	0.000391735	0	0.000140199	0.0635982	0.0508721	0.0814414	38.6563	174338	217951	279099	-51.3437	0.0000000E+000	0.0000000E+000	0.0000000E+000	51.3437	0.0000000E+000	0.0000000E+000	0.0000000E+000	-51.3437	0.0000000E+000	0.0000000E+000	0.0000000E+000	-38.6563	0.0000000E+000	0.0000000E+000	0.0000000E+000	38.6563	1.25016	51.3437	-1.38653e-06	-3.92033e-06	19045
[...]
0.464091	32.7188	4.72425	33.0581	-8.21613	28.9106	0.273309	-0.00199723	72591.2	1482.5	1	12	0.00481339	0.000145604	0	0.00013022	0.0299393	0.00432292	0.0302498	8.21613	1.4825e+06	1.02674e+07	1.03738e+07	-81.7839	0.0000000E+000	0.0000000E+000	0.0000000E+000	81.7839	0.0000000E+000	0.0000000E+000	0.0000000E+000	-81.7839	0.0000000E+000	0.0000000E+000	0.0000000E+000	-8.21613	0.0000000E+000	0.0000000E+000	0.0000000E+000	8.21613	6.92571	81.7839	5.28704e-06	-5.4586e-07	136844
0.215268	34.5494	4.18897	34.8025	-6.91312	45.3886	0.273306	-0.00130099	176496	2556.98	1	12	0.00481671	0.000138401	0	0.000149334	0.0285247	0.00345849	0.0287336	6.91312	2.55698e+06	2.10893e+07	2.12437e+07	-83.0869	0.0000000E+000	0.0000000E+000	0.0000000E+000	83.0869	0.0000000E+000	0.0000000E+000	0.0000000E+000	-83.0869	0.0000000E+000	0.0000000E+000	0.0000000E+000	-6.91312	0.0000000E+000	0.0000000E+000	0.0000000E+000	6.91312	8.24772	83.0869	9.28227e-06	-3.55568e-07	210076
0.0999041	36.0224	4.47781	36.2996	-7.08589	80.7952	0.273301	-0.000149084	355771	5413.76	1	12	0.004814	0.000132619	0	0.000127397	0.0273381	0.0033983	0.0275485	7.08589	5.41375e+06	4.35517e+07	4.38869e+07	-82.9141	0.0000000E+000	0.0000000E+000	0.0000000E+000	82.9141	0.0000000E+000	0.0000000E+000	0.0000000E+000	-82.9141	0.0000000E+000	0.0000000E+000	0.0000000E+000	-7.08589	0.0000000E+000	0.0000000E+000	0.0000000E+000	7.08589	8.04463	82.9141	-2.14376e-05	-4.07448e-08	1.8332e+06
0.0464052	37.5003	5.63755	37.9217	-8.54944	157.032	0.273306	-0.000346271	608364	13445.2	1	12	0.00481273	0.000126912	0	1.26708e-06	0.0260771	0.00392026	0.0263701	8.54944	1.34452e+07	8.94361e+07	9.04411e+07	-81.4506	0.0000000E+000	0.0000000E+000	0.0000000E+000	81.4506	0.0000000E+000	0.0000000E+000	0.0000000E+000	-81.4506	0.0000000E+000	0.0000000E+000	0.0000000E+000	-8.54944	0.0000000E+000	0.0000000E+000	0.0000000E+000	8.54944	6.65189	81.4506	-7.9486e-05	-9.46381e-08	789284
0.0215268	39.7164	8.54174	40.6246	-12.1376	321.261	0.273301	-0.00163475	865555	38265.7	1	12	0.00481737	0.000118583	0	-0.000122149	0.0240654	0.00517569	0.0246156	12.1376	3.82657e+07	1.77924e+08	1.81992e+08	-77.8624	0.0000000E+000	0.0000000E+000	0.0000000E+000	77.8624	0.0000000E+000	0.0000000E+000	0.0000000E+000	-77.8624	0.0000000E+000	0.0000000E+000	0.0000000E+000	-12.1376	0.0000000E+000	0.0000000E+000	0.0000000E+000	12.1376	4.64969	77.8624	-3.84525e-05	-4.4678e-07	167182
0.0146812	40.9438	10.7029	42.3196	-14.6495	464.457	0.273302	-0.00149064	1.01288e+06	64785.3	1	12	0.00481472	0.00011377	0	-4.23304e-05	0.0228615	0.00597609	0.0236297	14.6495	6.47854e+07	2.47836e+08	2.56164e+08	-75.3505	0.0000000E+000	0.0000000E+000	0.0000000E+000	75.3505	0.0000000E+000	0.0000000E+000	0.0000000E+000	-75.3505	0.0000000E+000	0.0000000E+000	0.0000000E+000	-14.6495	0.0000000E+000	0.0000000E+000	0.0000000E+000	14.6495	3.8255	75.3505	7.98186e-05	-4.07396e-07	183345

0.0100092	42.5252	13.2073	44.529	-17.2536	674.478	0.273306	-0.000908576	1.20395e+06	105914	1	12	0.00481405	0.00010811	0	0.000199519	0.0214468	0.00666086	0.0224573	17.2536	1.05914e+08	3.41023e+08	3.57092e+08	-72.7464	0.0000000E+000	0.0000000E+000	0.0000000E+000	72.7464	0.0000000E+000	0.0000000E+000	0.0000000E+000	-72.7464	0.0000000E+000	0.0000000E+000	0.0000000E+000	-17.2536	0.0000000E+000	0.0000000E+000	0.0000000E+000	17.2536	3.21982	72.7464	0.00024185	-2.48319e-07	300807