Folder: EIS/txt (part 84)

File: 18397_R277_UA690_SOC00_C06.mpt
EC-Lab ASCII FILE
Nb header lines : 65

Potentio Electrochemical Impedance Spectroscopy

Run on channel : 6 (SN 65795)
User :
CE vs. WE compliance from -10 V to 10 V
Electrode connection : standard
Potential control : Ewe
Ewe ctrl range : min = -10.00 V, max = 10.00 V
Safety Limits :
	Do not start on E overload
Acquisition started on : 10/13/2025 14:56:27.328
Technique started on : 10/13/2025 14:56:28.922
Loaded Setting File :  C:\Users\Celltest\OneDrive - store-dot.com\Documents\EC-Lab\Data\@Biologic Test Protocols\anode half cell EIS SOC00.mps
Saved on :
	File : 18397_R277_UA690_SOC00_C06.mpr
	Directory : C:\Users\Celltest\OneDrive - store-dot.com\Documents\EC-Lab\Data\Gyutae\
	Host : 169.254.61.224
Device : VMP-3e (SN .003165)
Address : USB
EC-LAB for windows v11.62 (software)
Internet server v27.00 (firmware)
Command interpretor v12.03 (firmware)
Electrode material :
Initial state :
Electrolyte :
Comments :
Electrode surface area : 0.001 cm²
Characteristic mass : 0.001 g
Equivalent Weight : 0.000 g/eq.
Density : 0.000 g/cm3
Volume (V) : 0.001 cm³
Record Ece
Cycle Definition : Charge/Discharge alternance
Mode                Single sine
E (V)               0.0000
vs.                 Eoc
tE (h:m:s)          0:00:0.0000
record              0
dI                  0.000
unit dI             mA
dt (s)              0.000
fi                  100.000
unit fi             kHz
ff                  10.000
unit ff             mHz
Nd                  6
Points              per decade
spacing             Logarithmic
Va (mV)             5.0
pw                  0.10
Na                  2
corr                0
E range min (V)     -10.000
E range max (V)     10.000
I Range             Auto
Bandwidth           5
nc cycles           0
goto Ns'            0
nr cycles           0
inc. cycle          0

freq/Hz	Re(Z)/Ohm	-Im(Z)/Ohm	|Z|/Ohm	Phase(Z)/deg	time/s	<Ewe>/V	<I>/mA	Cs/µF	Cp/µF	cycle number	I Range	|Ewe|/V	|I|/A	Ns	(Q-Qo)/mA.h	<Ece>/V	|Ece|/V	Phase(Zce)/deg	|Zce|/Ohm	Re(Zce)/Ohm	-Im(Zce)/Ohm	Phase(Zwe-ce)/deg	|Zwe-ce|/Ohm	Re(Zwe-ce)/Ohm	-Im(Zwe-ce)/Ohm	Re(Y)/Ohm-1	Im(Y)/Ohm-1	|Y|/Ohm-1	Phase(Y)/deg	Re(C)/nF	Im(C)/nF	|C|/nF	Phase(C)/deg	Re(M)	Im(M)	|M|	Phase(M)/deg	Re(Permittivity)	Im(Permittivity)	|Permittivity|	Phase(Permittivity)/deg	Re(Resistivity)/Ohm.cm	Im(Resistivity)/Ohm.cm	|Resistivity|/Ohm.cm	Phase(Resistivity)/deg	Re(Conductivity)/mS/cm	Im(Conductivity)/mS/cm	|Conductivity|/mS/cm	Phase(Conductivity)/deg	Tan(Delta)	Loss Angle(Delta)/deg	dq/mA.h	Pwe/W	Pce/W	Pwe-ce/W	<Ewe-Ece>/V	Rwe/Ohm	Rce/Ohm	Rwe-ce/Ohm		Ewe-Ece/V
100004	1.12669	0.39101	1.19261	-19.139	1.59355	0.235381	0.0429052	4.07021	0.437519	1	9	0.0046543	0.00390263	0	-3.6203e-06	1.98852e-05	4.52867e-05	62.0169	0.0116042	0.00544479	-0.0102475	-18.589	1.19445	1.13213	0.380762	0.792152	0.274911	0.838499	19.139	437.519	1260.7	1334.46	-70.861	0.0000000E+000	0.0000000E+000	0.0000000E+000	70.861	0.0000000E+000	0.0000000E+000	0.0000000E+000	-70.861	0.0000000E+000	0.0000000E+000	0.0000000E+000	-19.139	0.0000000E+000	0.0000000E+000	0.0000000E+000	19.139	2.88148	70.861	-3.6203e-06	1.0099e-05	8.53178e-10	1.00982e-05	0.235361	5486.07	0.463469	5485.6
31621.1	1.50196	0.628548	1.62818	-22.7085	2.86855	0.235318	0.0390684	8.00764	1.19337	1	9	0.00537185	0.0032993	0	2.14202e-06	0.000249062	1.51987e-05	23.2839	0.00460666	0.00423148	-0.00182095	-22.5921	1.63138	1.5062	0.626727	0.566572	0.237101	0.614183	22.7085	1193.37	2851.66	3091.29	-67.2915	0.0000000E+000	0.0000000E+000	0.0000000E+000	67.2915	0.0000000E+000	0.0000000E+000	0.0000000E+000	-67.2915	0.0000000E+000	0.0000000E+000	0.0000000E+000	-22.7085	0.0000000E+000	0.0000000E+000	0.0000000E+000	22.7085	2.38958	67.2915	-5.68833e-06	9.1935e-06	9.73044e-09	9.18377e-06	0.235069	6023.24	6.37502	6016.86
10002.2	2.00622	0.873597	2.18817	-23.5305	4.01955	0.235324	0.0286756	18.2143	2.90317	1	9	0.00544794	0.00248973	0	1.5326e-05	0.000344552	7.33811e-06	-13.581	0.00294736	0.00286494	0.000692099	-23.5171	2.19107	2.00908	0.874289	0.419002	0.182452	0.457003	23.5305	2903.17	6667.15	7271.81	-66.4695	0.0000000E+000	0.0000000E+000	0.0000000E+000	66.4695	0.0000000E+000	0.0000000E+000	0.0000000E+000	-66.4695	0.0000000E+000	0.0000000E+000	0.0000000E+000	-23.5305	0.0000000E+000	0.0000000E+000	0.0000000E+000	23.5305	2.2965	66.4695	-8.66256e-07	6.74807e-06	9.88024e-09	6.73819e-06	0.23498	8206.42	12.0155	8194.4
3163.08	2.67462	1.26097	2.95696	-25.2418	5.34665	0.235299	0.0194004	39.9031	7.2564	1	9	0.0051945	0.0017567	0	2.44223e-05	0.000287258	6.61242e-06	-55.3661	0.00376411	0.00213926	0.00309711	-25.2784	2.96022	2.67676	1.26406	0.305894	0.144215	0.338185	25.2418	7256.4	15391.5	17016.3	-64.7582	0.0000000E+000	0.0000000E+000	0.0000000E+000	64.7582	0.0000000E+000	0.0000000E+000	0.0000000E+000	-64.7582	0.0000000E+000	0.0000000E+000	0.0000000E+000	-25.2418	0.0000000E+000	0.0000000E+000	0.0000000E+000	25.2418	2.12109	64.7582	4.84591e-07	4.56489e-06	5.57291e-09	4.55932e-06	0.235012	12128.6	14.8068	12113.8
1000.32	3.61394	1.97301	4.11744	-28.6321	7.15976	0.235296	-0.0156932	80.6404	18.5163	1	10	0.0049768	0.00120871	0	2.85999e-05	5.80813e-05	1.13386e-05	114.563	0.0093807	-0.00389954	-0.00853177	-28.5537	4.10993	3.61004	1.96447	0.21317	0.116379	0.242869	28.6321	18516.3	33916.2	38641.5	-61.3679	0.0000000E+000	0.0000000E+000	0.0000000E+000	61.3679	0.0000000E+000	0.0000000E+000	0.0000000E+000	-61.3679	0.0000000E+000	0.0000000E+000	0.0000000E+000	-28.6321	0.0000000E+000	0.0000000E+000	0.0000000E+000	28.6321	1.83169	61.3679	-2.66808e-06	-3.69254e-06	-9.11481e-10	-3.69163e-06	0.235238	14993.5	3.70105	14989.8
316.316	5.14733	3.51628	6.23372	-34.338	8.50903	0.235301	-0.015246	143.092	45.529	1	10	0.00467817	0.000750462	0	2.36323e-05	0.00036365	6.17919e-06	-19.8341	0.00823385	0.00774541	0.00279373	-34.3191	6.24169	5.15508	3.51907	0.132461	0.0904876	0.160418	34.338	45529	66648	80714.6	-55.662	0.0000000E+000	0.0000000E+000	0.0000000E+000	55.662	0.0000000E+000	0.0000000E+000	0.0000000E+000	-55.662	0.0000000E+000	0.0000000E+000	0.0000000E+000	-34.338	0.0000000E+000	0.0000000E+000	0.0000000E+000	34.338	1.46386	55.662	-2.4055e-06	-3.58741e-06	-5.54421e-09	-3.58186e-06	0.234938	15433.6	23.8521	15409.8
100.032	9.00939	5.52403	10.5681	-31.5142	9.85686	0.2353	-0.0148398	288.021	78.6949	1	10	0.0045874	0.000434081	0	1.78469e-05	5.80813e-05	1.14087e-05	16.9367	0.0262823	0.0251424	-0.00765644	-31.4077	10.5855	9.03453	5.51638	0.0806686	0.0494613	0.0946247	31.5142	78694.9	128347	150552	-58.4858	0.0000000E+000	0.0000000E+000	0.0000000E+000	58.4858	0.0000000E+000	0.0000000E+000	0.0000000E+000	-58.4858	0.0000000E+000	0.0000000E+000	0.0000000E+000	-31.5142	0.0000000E+000	0.0000000E+000	0.0000000E+000	31.5142	1.63094	58.4858	-1.91322e-06	-3.49181e-06	-8.61916e-10	-3.49094e-06	0.235241	15855.9	3.91388	15852
[...]
1.00006	19.2349	1.48038	19.2918	-4.40097	19.9059	0.235302	-0.0132937	107503	633.021	1	12	0.0045674	0.000236753	0	-2.88865e-05	-9.4703e-05	3.04543e-06	75.6814	0.0128633	0.00318128	-0.0124637	-4.36335	19.2941	19.2381	1.46791	0.0516826	0.00397764	0.0518354	4.40097	633021	8.22501e+06	8.24933e+06	-85.599	0.0000000E+000	0.0000000E+000	0.0000000E+000	85.599	0.0000000E+000	0.0000000E+000	0.0000000E+000	-85.599	0.0000000E+000	0.0000000E+000	0.0000000E+000	-4.40097	0.0000000E+000	0.0000000E+000	0.0000000E+000	4.40097	12.9933	85.599	-1.95408e-05	-3.12803e-06	1.25895e-09	-3.12929e-06	0.235397	17700.2	7.1239	17707.4
0.316193	19.9869	1.61462	20.052	-4.61854	34.248	0.235303	-0.0132344	311744	2021.25	1	12	0.00456888	0.000227851	0	-8.11301e-05	0.00036365	5.50748e-07	-160.606	0.00241714	-0.00227999	0.000802625	-4.62135	20.0498	19.9846	1.61542	0.0497084	0.00401563	0.0498703	4.61854	2.02126e+06	2.50206e+07	2.51021e+07	-85.3815	0.0000000E+000	0.0000000E+000	0.0000000E+000	85.3815	0.0000000E+000	0.0000000E+000	0.0000000E+000	-85.3815	0.0000000E+000	0.0000000E+000	0.0000000E+000	-4.61854	0.0000000E+000	0.0000000E+000	0.0000000E+000	4.61854	12.3787	85.3815	-1.37263e-05	-3.1141e-06	-4.8127e-09	-3.10928e-06	0.234939	17779.6	27.4776	17752.1
0.0999041	20.8304	2.7651	21.0132	-7.56141	79.4561	0.235299	-0.00861439	576138	9976.17	1	12	0.00455985	0.000217	0	-0.000113491	0.00017267	1.09407e-06	-29.7565	0.00504181	0.00437701	0.00250232	-7.5666	21.0178	20.8348	2.7676	0.0471754	0.0062622	0.0475892	7.56141	9.97616e+06	7.5154e+07	7.58133e+07	-82.4386	0.0000000E+000	0.0000000E+000	0.0000000E+000	82.4386	0.0000000E+000	0.0000000E+000	0.0000000E+000	-82.4386	0.0000000E+000	0.0000000E+000	0.0000000E+000	-7.56141	0.0000000E+000	0.0000000E+000	0.0000000E+000	7.56141	7.53336	82.4386	-2.17395e-05	-2.02696e-06	-1.48744e-09	-2.02547e-06	0.235127	27314.7	20.0443	27294.6
0.0315922	22.5348	6.0801	23.3407	-15.0994	222.339	0.235289	-0.00806432	828570	56224.4	1	12	0.00456911	0.000195758	0	-0.000696819	0.00017267	2.35033e-06	37.9091	0.0120063	0.00947283	-0.0073768	-15.0758	23.3479	22.5443	6.07272	0.0413645	0.0111605	0.0428437	15.0994	5.62244e+07	2.08386e+08	2.15838e+08	-74.9006	0.0000000E+000	0.0000000E+000	0.0000000E+000	74.9006	0.0000000E+000	0.0000000E+000	0.0000000E+000	-74.9006	0.0000000E+000	0.0000000E+000	0.0000000E+000	-15.0994	0.0000000E+000	0.0000000E+000	0.0000000E+000	15.0994	3.70633	74.9006	-0.000327532	-1.89745e-06	-1.39246e-09	-1.89605e-06	0.235116	29176.6	21.4115	29155.2
0.0100092	27.1201	13.7456	30.4047	-26.8777	673.561	0.235288	-0.0103717	1.1568e+06	236431	1	12	0.00457049	0.000150322	0	-0.00198919	0.00017267	1.50561e-06	27.1789	0.0100159	0.00891	-0.00457496	-26.8624	30.4105	27.1291	13.741	0.0293367	0.014869	0.0328897	26.8777	2.36431e+08	4.66481e+08	5.22976e+08	-63.1223	0.0000000E+000	0.0000000E+000	0.0000000E+000	63.1223	0.0000000E+000	0.0000000E+000	0.0000000E+000	-63.1223	0.0000000E+000	0.0000000E+000	0.0000000E+000	-26.8777	0.0000000E+000	0.0000000E+000	0.0000000E+000	26.8777	1.97301	63.1223	-0.000380057	-2.44033e-06	-1.79088e-09	-2.43854e-06	0.235115	22685.6	16.6481	22668.9

File: 18398_R277_UA690_SOC00_C07.mpt
EC-Lab ASCII FILE
Nb header lines : 65

Potentio Electrochemical Impedance Spectroscopy

Run on channel : 7 (SN 66126)
User :
CE vs. WE compliance from -10 V to 10 V
Electrode connection : standard
Potential control : Ewe
Ewe ctrl range : min = -10.00 V, max = 10.00 V
Safety Limits :
	Do not start on E overload
Acquisition started on : 10/13/2025 14:56:44.937
Technique started on : 10/13/2025 14:56:46.592
Loaded Setting File :  C:\Users\Celltest\OneDrive - store-dot.com\Documents\EC-Lab\Data\@Biologic Test Protocols\anode half cell EIS SOC00.mps
Saved on :
	File : 18398_R277_UA690_SOC00_C07.mpr
	Directory : C:\Users\Celltest\OneDrive - store-dot.com\Documents\EC-Lab\Data\Gyutae\
	Host : 169.254.61.224
Device : VMP-3e (SN .003165)
Address : USB
EC-LAB for windows v11.62 (software)
Internet server v27.00 (firmware)
Command interpretor v12.03 (firmware)
Electrode material :
Initial state :
Electrolyte :
Comments :
Electrode surface area : 0.001 cm²
Characteristic mass : 0.001 g
Equivalent Weight : 0.000 g/eq.
Density : 0.000 g/cm3
Volume (V) : 0.001 cm³
Record Ece
Cycle Definition : Charge/Discharge alternance
Mode                Single sine
E (V)               0.0000
vs.                 Eoc
tE (h:m:s)          0:00:0.0000
record              0
dI                  0.000
unit dI             mA
dt (s)              0.000
fi                  100.000
unit fi             kHz
ff                  10.000
unit ff             mHz
Nd                  6
Points              per decade
spacing             Logarithmic
Va (mV)             5.0
pw                  0.10
Na                  2
corr                0
E range min (V)     -10.000
E range max (V)     10.000
I Range             Auto
Bandwidth           5
nc cycles           0
goto Ns'            0
nr cycles           0
inc. cycle          0

freq/Hz	Re(Z)/Ohm	-Im(Z)/Ohm	|Z|/Ohm	Phase(Z)/deg	time/s	<Ewe>/V	<I>/mA	Cs/µF	Cp/µF	cycle number	I Range	|Ewe|/V	|I|/A	Ns	(Q-Qo)/mA.h	<Ece>/V	|Ece|/V	Phase(Zce)/deg	|Zce|/Ohm	Re(Zce)/Ohm	-Im(Zce)/Ohm	Phase(Zwe-ce)/deg	|Zwe-ce|/Ohm	Re(Zwe-ce)/Ohm	-Im(Zwe-ce)/Ohm	Re(Y)/Ohm-1	Im(Y)/Ohm-1	|Y|/Ohm-1	Phase(Y)/deg	Re(C)/nF	Im(C)/nF	|C|/nF	Phase(C)/deg	Re(M)	Im(M)	|M|	Phase(M)/deg	Re(Permittivity)	Im(Permittivity)	|Permittivity|	Phase(Permittivity)/deg	Re(Resistivity)/Ohm.cm	Im(Resistivity)/Ohm.cm	|Resistivity|/Ohm.cm	Phase(Resistivity)/deg	Re(Conductivity)/mS/cm	Im(Conductivity)/mS/cm	|Conductivity|/mS/cm	Phase(Conductivity)/deg	Tan(Delta)	Loss Angle(Delta)/deg	dq/mA.h	Pwe/W	Pce/W	Pwe-ce/W	<Ewe-Ece>/V	Rwe/Ohm	Rce/Ohm	Rwe-ce/Ohm		Ewe-Ece/V
100004	-0.156333	-0.0255795	0.158412	170.708	1.6546	0.24096	0.0771232	-62.2174	-1.62225	1	9	3.83994e-05	0.000242402	0	9.34872e-06	1.67614e-05	3.16028e-05	162.679	0.130374	-0.124462	-0.0388158	167.084	0.288084	-0.280795	-0.0643953	-6.2298	-1.01933	6.31265	-170.708	-1622.25	-9914.67	10046.5	99.2925	0.0000000E+000	0.0000000E+000	0.0000000E+000	-99.2925	0.0000000E+000	0.0000000E+000	0.0000000E+000	99.2925	0.0000000E+000	0.0000000E+000	0.0000000E+000	170.708	0.0000000E+000	0.0000000E+000	0.0000000E+000	-170.708	6.11166	80.7075	9.34872e-06	1.85836e-05	1.29269e-09	1.85823e-05	0.240943	3124.35	0.217332	3124.13
31621.1	1.71223	0.704258	1.85141	-22.3579	3.40956	0.241071	0.0696388	7.14679	1.03412	1	9	0.00502241	0.00271275	0	5.67546e-05	-0.000555501	1.47373e-05	11.6803	0.00543261	0.00532011	-0.00109984	-22.264	1.85591	1.71755	0.703158	0.499526	0.205461	0.54013	22.3579	1034.12	2514.21	2718.57	-67.6421	0.0000000E+000	0.0000000E+000	0.0000000E+000	67.6421	0.0000000E+000	0.0000000E+000	0.0000000E+000	-67.6421	0.0000000E+000	0.0000000E+000	0.0000000E+000	-22.3579	0.0000000E+000	0.0000000E+000	0.0000000E+000	22.3579	2.43125	67.6421	1.27851e-05	1.67879e-05	-3.86844e-08	1.68266e-05	0.241626	3461.73	7.9769	3469.71
10002.2	2.27959	0.982991	2.48249	-23.3264	4.43655	0.241085	0.0579839	16.1873	2.53803	1	9	0.00491509	0.0019799	0	7.89104e-05	-0.000326596	6.46526e-06	-46.2934	0.00326545	0.00225631	0.00236056	-23.3558	2.4855	2.28184	0.985352	0.369896	0.159504	0.402821	23.3264	2538.03	5885.76	6409.66	-66.6736	0.0000000E+000	0.0000000E+000	0.0000000E+000	66.6736	0.0000000E+000	0.0000000E+000	0.0000000E+000	-66.6736	0.0000000E+000	0.0000000E+000	0.0000000E+000	-23.3264	0.0000000E+000	0.0000000E+000	0.0000000E+000	23.3264	2.31903	66.6736	5.71269e-06	1.3979e-05	-1.89373e-08	1.3998e-05	0.241412	4157.8	5.63254	4163.43
3163.08	3.0303	1.41476	3.34429	-25.0264	5.51063	0.240895	-0.00308332	35.5655	6.36478	1	9	0.00497899	0.0014888	0	8.86915e-05	1.67614e-05	7.34174e-06	-38.4612	0.0049313	0.00386136	0.00306719	-25.046	3.34909	3.03417	1.41782	0.270943	0.126495	0.299017	25.0264	6364.78	13632.9	15045.5	-64.9736	0.0000000E+000	0.0000000E+000	0.0000000E+000	64.9736	0.0000000E+000	0.0000000E+000	0.0000000E+000	-64.9736	0.0000000E+000	0.0000000E+000	0.0000000E+000	-25.0264	0.0000000E+000	0.0000000E+000	0.0000000E+000	25.0264	2.14193	64.9736	1.252e-06	-7.42757e-07	-5.16806e-11	-7.42705e-07	0.240879	78128.7	5.43615	78123.2
1000.32	4.11553	2.17593	4.65534	-27.8659	7.10882	0.240998	-0.00741126	73.1201	15.9743	1	10	0.00497404	0.00106846	0	9.08549e-05	-0.000383823	1.31107e-05	-27.3011	0.0122707	0.0109039	0.00562816	-27.8644	4.66761	4.12643	2.18155	0.189899	0.100402	0.214807	27.8659	15974.3	30213.7	34176.7	-62.1341	0.0000000E+000	0.0000000E+000	0.0000000E+000	62.1341	0.0000000E+000	0.0000000E+000	0.0000000E+000	-62.1341	0.0000000E+000	0.0000000E+000	0.0000000E+000	-27.8659	0.0000000E+000	0.0000000E+000	0.0000000E+000	27.8659	1.89139	62.1341	-4.47092e-07	-1.7861e-06	2.84461e-09	-1.78894e-06	0.241382	32517.8	51.7891	32569.6
316.316	5.76711	3.80546	6.90949	-33.4191	8.45903	0.240991	-0.00816326	132.218	40.1064	1	10	0.00489095	0.00070786	0	8.88214e-05	-0.000364747	1.33671e-05	45.7152	0.0188838	0.0131852	-0.0135185	-33.2654	6.91308	5.78029	3.79194	0.1208	0.0797104	0.144728	33.4191	40106.4	60780.6	72820.4	-56.5809	0.0000000E+000	0.0000000E+000	0.0000000E+000	56.5809	0.0000000E+000	0.0000000E+000	0.0000000E+000	-56.5809	0.0000000E+000	0.0000000E+000	0.0000000E+000	-33.4191	0.0000000E+000	0.0000000E+000	0.0000000E+000	33.4191	1.51548	56.5809	-5.07847e-07	-1.96727e-06	2.97753e-09	-1.97025e-06	0.241356	29521.4	44.6815	29566.1
100.032	9.78863	6.19774	11.5857	-32.3402	9.80585	0.240998	-0.00798086	256.713	73.4628	1	10	0.00485755	0.00041927	0	8.68672e-05	-7.86157e-05	6.35874e-06	-12.873	0.0151662	0.014785	0.00337888	-32.3153	11.6	9.80341	6.20112	0.0729247	0.0461728	0.0863131	32.3402	73462.8	116026	137328	-57.6598	0.0000000E+000	0.0000000E+000	0.0000000E+000	57.6598	0.0000000E+000	0.0000000E+000	0.0000000E+000	-57.6598	0.0000000E+000	0.0000000E+000	0.0000000E+000	-32.3402	0.0000000E+000	0.0000000E+000	0.0000000E+000	32.3402	1.57939	57.6598	-1.53177e-06	-1.92337e-06	6.27421e-10	-1.924e-06	0.241077	30197.1	9.85054	30206.9
[...]
1.00006	22.3154	1.73574	22.3828	-4.44762	19.8538	0.241048	0.000974189	91687.2	551.375	1	12	0.00485671	0.000216984	0	7.61499e-05	-0.000326596	3.51349e-06	20.7881	0.0161924	0.0151382	-0.00574689	-4.42996	22.3974	22.3305	1.72999	0.0445426	0.00346461	0.0446772	4.44762	551375	7.08873e+06	7.11014e+06	-85.5524	0.0000000E+000	0.0000000E+000	0.0000000E+000	85.5524	0.0000000E+000	0.0000000E+000	0.0000000E+000	-85.5524	0.0000000E+000	0.0000000E+000	0.0000000E+000	-4.44762	0.0000000E+000	0.0000000E+000	0.0000000E+000	4.44762	12.8564	85.5524	-2.39293e-06	2.34827e-07	-3.18166e-10	2.35145e-07	0.241375	247435	335.249	247770
0.316193	23.2082	1.75723	23.2747	-4.32993	34.1971	0.241049	-0.000272206	286444	1632.78	1	12	0.00485629	0.000208651	0	0.000109931	-0.000116767	1.01777e-06	-0.918663	0.00487784	0.00487721	7.82064e-05	-4.32922	23.2795	23.2131	1.75731	0.0428425	0.00324385	0.0429652	4.32993	1.63279e+06	2.15647e+07	2.16264e+07	-85.6701	0.0000000E+000	0.0000000E+000	0.0000000E+000	85.6701	0.0000000E+000	0.0000000E+000	0.0000000E+000	-85.6701	0.0000000E+000	0.0000000E+000	0.0000000E+000	-4.32993	0.0000000E+000	0.0000000E+000	0.0000000E+000	4.32993	13.2073	85.6701	1.72169e-05	-6.5615e-08	3.17846e-11	-6.56468e-08	0.241166	885538	428.964	885967
0.0999041	24.1659	3.03661	24.3559	-7.16206	79.4061	0.241058	-0.000445385	524624	8154.86	1	12	0.00485512	0.000199341	0	7.77309e-05	-0.000421973	2.34643e-06	28.4649	0.011771	0.010348	-0.00561028	-7.14594	24.3655	24.1762	3.031	0.0407374	0.00511893	0.0410578	7.16206	8.15486e+06	6.48979e+07	6.54082e+07	-82.8379	0.0000000E+000	0.0000000E+000	0.0000000E+000	82.8379	0.0000000E+000	0.0000000E+000	0.0000000E+000	-82.8379	0.0000000E+000	0.0000000E+000	0.0000000E+000	-7.16206	0.0000000E+000	0.0000000E+000	0.0000000E+000	7.16206	7.95819	82.8379	-4.52754e-05	-1.07364e-07	1.87941e-10	-1.07552e-07	0.24148	541235	947.434	542182
0.0315922	26.1605	6.5135	26.9592	-13.9813	222.29	0.241058	-0.00526724	773439	45148.3	1	12	0.00485686	0.000180156	0	-0.000282733	-0.000116767	2.50336e-06	14.4942	0.0138955	0.0134533	-0.0034778	-13.9673	26.9714	26.1739	6.51002	0.0359942	0.00896192	0.0370931	13.9813	4.51483e+07	1.81331e+08	1.86867e+08	-76.0187	0.0000000E+000	0.0000000E+000	0.0000000E+000	76.0187	0.0000000E+000	0.0000000E+000	0.0000000E+000	-76.0187	0.0000000E+000	0.0000000E+000	0.0000000E+000	-13.9813	0.0000000E+000	0.0000000E+000	0.0000000E+000	13.9813	4.01635	76.0187	-0.000139851	-1.26971e-06	6.15038e-10	-1.27033e-06	0.241175	45765.6	22.1685	45787.8
0.0100092	30.8928	14.7682	34.2413	-25.55	673.513	0.24106	-0.00705186	1.0767e+06	200286	1	12	0.00485621	0.000141823	0	-0.000332908	-0.000250295	3.44763e-06	-11.8176	0.0243094	0.0237941	0.0049785	-25.5403	34.2649	30.9166	14.7732	0.0263486	0.0125959	0.0292045	25.55	2.00286e+08	4.18967e+08	4.64378e+08	-64.45	0.0000000E+000	0.0000000E+000	0.0000000E+000	64.45	0.0000000E+000	0.0000000E+000	0.0000000E+000	-64.45	0.0000000E+000	0.0000000E+000	0.0000000E+000	-25.55	0.0000000E+000	0.0000000E+000	0.0000000E+000	25.55	2.09184	64.45	-1.80724e-06	-1.69992e-06	1.76504e-09	-1.70169e-06	0.24131	34183.9	35.4934	34219.3