Folder: EIS/txt (part 109)

File: 18697_R307_UC91_25_SOC50_C04.mpt
EC-Lab ASCII FILE
Nb header lines : 65

Potentio Electrochemical Impedance Spectroscopy

Run on channel : 4 (SN 66756)
User :
CE vs. WE compliance from -10 V to 10 V
Electrode connection : standard
Potential control : Ewe
Ewe ctrl range : min = -10.00 V, max = 10.00 V
Safety Limits :
	Do not start on E overload
Acquisition started on : 10/29/2025 14:38:24.614
Technique started on : 10/29/2025 14:38:26.848
Loaded Setting File :  C:\Users\Celltest\OneDrive - store-dot.com\Documents\EC-Lab\Data\@Biologic Test Protocols\cathode half cell EIS SOC50.mps
Saved on :
	File : 18697_R307_UC91_25_SOC50_C04.mpr
	Directory : C:\Users\Celltest\OneDrive - store-dot.com\Documents\EC-Lab\Data\Anna\
	Host : 169.254.61.224
Device : VMP-3e (SN .003165)
Address : USB
EC-LAB for windows v11.62 (software)
Internet server v27.00 (firmware)
Command interpretor v12.03 (firmware)
Electrode material :
Initial state :
Electrolyte :
Comments :
Electrode surface area : 0.001 cm²
Characteristic mass : 0.001 g
Equivalent Weight : 0.000 g/eq.
Density : 0.000 g/cm3
Volume (V) : 0.001 cm³
Record Ece
Cycle Definition : Charge/Discharge alternance
Mode                Multi sine
E (V)               0.0000
vs.                 Eoc
tE (h:m:s)          0:00:0.0000
record              0
dI                  0.000
unit dI             mA
dt (s)              0.000
fi                  1.000
unit fi             MHz
ff                  0.100
unit ff             mHz
Nd                  10
Points              per decade
spacing             Logarithmic
Va (mV)             5.0
pw                  0.10
Na                  2
corr                0
E range min (V)     -10.000
E range max (V)     10.000
I Range             Auto
Bandwidth           5
nc cycles           0
goto Ns'            0
nr cycles           0
inc. cycle          0

freq/Hz	Re(Z)/Ohm	-Im(Z)/Ohm	|Z|/Ohm	Phase(Z)/deg	time/s	<Ewe>/V	<I>/mA	Cs/µF	Cp/µF	cycle number	I Range	|Ewe|/V	|I|/A	Ns	(Q-Qo)/mA.h	<Ece>/V	|Ece|/V	Phase(Zce)/deg	|Zce|/Ohm	Re(Zce)/Ohm	-Im(Zce)/Ohm	Phase(Zwe-ce)/deg	|Zwe-ce|/Ohm	Re(Zwe-ce)/Ohm	-Im(Zwe-ce)/Ohm	Re(Y)/Ohm-1	Im(Y)/Ohm-1	|Y|/Ohm-1	Phase(Y)/deg	Re(C)/nF	Im(C)/nF	|C|/nF	Phase(C)/deg	Re(M)	Im(M)	|M|	Phase(M)/deg	Re(Permittivity)	Im(Permittivity)	|Permittivity|	Phase(Permittivity)/deg	Re(Resistivity)/Ohm.cm	Im(Resistivity)/Ohm.cm	|Resistivity|/Ohm.cm	Phase(Resistivity)/deg	Re(Conductivity)/mS/cm	Im(Conductivity)/mS/cm	|Conductivity|/mS/cm	Phase(Conductivity)/deg	Tan(Delta)	Loss Angle(Delta)/deg	dq/mA.h	Pwe/W	Pce/W	Pwe-ce/W	<Ewe-Ece>/V	Rwe/Ohm	Rce/Ohm	Rwe-ce/Ohm		Ewe-Ece/V
1.00002e+06	2.86667	2.72049	3.95207	-43.5013	2.23352	3.97115	0.0335096	0.0585012	0.0277211	1	10	0.000199233	5.04123e-05	0	1.94323e-06	-0.000206601	0.000187267	-70.2613	3.7147	1.25457	3.49643	-56.4594	7.45887	4.12123	6.21693	0.183539	0.17418	0.253032	43.5013	27.7211	29.2106	40.2706	-46.4987	0.0000000E+000	0.0000000E+000	0.0000000E+000	46.4987	0.0000000E+000	0.0000000E+000	0.0000000E+000	-46.4987	0.0000000E+000	0.0000000E+000	0.0000000E+000	-43.5013	0.0000000E+000	0.0000000E+000	0.0000000E+000	43.5013	1.05373	46.4987	1.94323e-06	0.000133072	-6.92313e-09	0.000133079	3.97136	118508	6.16543	118514
251206	1.35357	0.413945	1.41546	-17.0045	4.93952	3.96975	-0.0345226	1.53055	0.1309	1	9	0.00260297	0.00183896	0	-1.92905e-05	-0.000206601	5.76925e-05	77.563	0.0313724	0.00675655	-0.0306362	-15.7366	1.4133	1.36033	0.383309	0.6756	0.20661	0.706487	17.0045	130.9	428.035	447.604	-72.9955	0.0000000E+000	0.0000000E+000	0.0000000E+000	72.9955	0.0000000E+000	0.0000000E+000	0.0000000E+000	-72.9955	0.0000000E+000	0.0000000E+000	0.0000000E+000	-17.0045	0.0000000E+000	0.0000000E+000	0.0000000E+000	17.0045	3.26994	72.9955	-5.42607e-06	-0.000137046	7.13242e-09	-0.000137053	3.96995	114990	5.98452	114996
63093.8	1.95017	1.25992	2.32176	-32.8647	7.23952	3.96962	-0.0439215	2.00213	0.589578	1	9	0.0053047	0.00228478	0	-3.31988e-05	4.18282e-05	2.10322e-05	22.0971	0.00920535	0.00852919	-0.00346285	-32.6791	2.32706	1.9587	1.25645	0.361775	0.233726	0.430708	32.8647	589.578	912.583	1086.47	-57.1353	0.0000000E+000	0.0000000E+000	0.0000000E+000	57.1353	0.0000000E+000	0.0000000E+000	0.0000000E+000	-57.1353	0.0000000E+000	0.0000000E+000	0.0000000E+000	-32.8647	0.0000000E+000	0.0000000E+000	0.0000000E+000	32.8647	1.54786	57.1353	-2.03164e-06	-0.000174352	-1.83716e-09	-0.00017435	3.96958	90379.9	0.952339	90378.9
15847.7	3.45579	2.20806	4.10097	-32.5763	9.54152	3.96963	-0.0428772	4.54825	1.31853	1	9	0.00523559	0.00127667	0	-5.88214e-05	-0.000263931	8.60494e-06	-62.8046	0.00674014	0.00308042	0.00599504	-32.6237	4.1068	3.45887	2.21405	0.205482	0.131291	0.243845	32.5763	1318.53	2063.61	2448.88	-57.4237	0.0000000E+000	0.0000000E+000	0.0000000E+000	57.4237	0.0000000E+000	0.0000000E+000	0.0000000E+000	-57.4237	0.0000000E+000	0.0000000E+000	0.0000000E+000	-32.5763	0.0000000E+000	0.0000000E+000	0.0000000E+000	32.5763	1.56508	57.4237	-4.83899e-06	-0.000170207	1.13166e-08	-0.000170218	3.96989	92581.2	6.15551	92587.4
3983.6	5.65106	3.23688	6.51244	-29.8037	12.0411	3.96961	-0.0210143	12.3429	3.04918	1	10	0.00516054	0.000792412	0	-7.38944e-05	-0.000206601	7.73507e-06	-24.4521	0.00976142	0.00888589	0.00404057	-29.7957	6.52216	5.65994	3.24092	0.133242	0.0763202	0.153552	29.8037	3049.19	5323.37	6134.8	-60.1963	0.0000000E+000	0.0000000E+000	0.0000000E+000	60.1963	0.0000000E+000	0.0000000E+000	0.0000000E+000	-60.1963	0.0000000E+000	0.0000000E+000	0.0000000E+000	-29.8037	0.0000000E+000	0.0000000E+000	0.0000000E+000	29.8037	1.74583	60.1963	-1.42703e-06	-8.34186e-05	4.34159e-09	-8.34229e-05	3.96981	188900	9.83144	188910
1000.32	9.06883	5.13667	10.4225	-29.5276	14.6708	3.96958	-0.024047	30.9741	7.52345	1	10	0.00478282	0.000458892	0	-9.06474e-05	-0.000111051	1.00469e-05	-8.46613	0.0218939	0.0216553	0.00322333	-29.4845	10.443	9.09049	5.1399	0.0834844	0.0472863	0.095946	29.5276	7523.45	13282.7	15265.4	-60.4724	0.0000000E+000	0.0000000E+000	0.0000000E+000	60.4724	0.0000000E+000	0.0000000E+000	0.0000000E+000	-60.4724	0.0000000E+000	0.0000000E+000	0.0000000E+000	-29.5276	0.0000000E+000	0.0000000E+000	0.0000000E+000	29.5276	1.76551	60.4724	-3.15747e-06	-9.54564e-05	2.67045e-09	-9.54591e-05	3.96969	165076	4.61811	165081
251.044	15.2742	6.06918	16.4358	-21.6703	17.3721	3.96957	-0.0256845	104.458	14.2435	1	10	0.00463698	0.000282126	0	-0.000107748	-0.00055058	1.40973e-05	48.1888	0.0499679	0.0333125	-0.0372434	-21.5069	16.4531	15.3075	6.03194	0.0565426	0.0224671	0.0608427	21.6703	14243.5	35846.4	38572.5	-68.3297	0.0000000E+000	0.0000000E+000	0.0000000E+000	68.3297	0.0000000E+000	0.0000000E+000	0.0000000E+000	-68.3297	0.0000000E+000	0.0000000E+000	0.0000000E+000	-21.6703	0.0000000E+000	0.0000000E+000	0.0000000E+000	21.6703	2.51668	68.3297	-3.12361e-06	-0.000101957	1.41414e-08	-0.000101971	3.97012	154551	21.4363	154573
[...]
0.0602816	26.5139	3.40358	26.7315	-7.31503	240.737	3.96958	-0.0126129	775710	12575.5	1	11	0.00508404	0.000190189	0	-0.00179618	-7.28316e-05	5.60583e-07	24.7588	0.0029475	0.00267656	-0.00123441	-7.31168	26.734	26.5166	3.40234	0.0371046	0.00476311	0.0374091	7.31503	1.25755e+07	9.79633e+07	9.87671e+07	-82.685	0.0000000E+000	0.0000000E+000	0.0000000E+000	82.685	0.0000000E+000	0.0000000E+000	0.0000000E+000	-82.685	0.0000000E+000	0.0000000E+000	0.0000000E+000	-7.31503	0.0000000E+000	0.0000000E+000	0.0000000E+000	7.31503	7.79	82.685	0.000000000000000E+000	-5.0068e-05	9.1862e-10	-5.0069e-05	3.96965	314723	5.77435	314728
0.00796479	36.9787	7.13528	37.6608	-10.9214	20329.6	3.96958	-0.000543578	2.8005e+06	100526	1	11	0.00507624	0.000134789	0	-0.00951465	-9.19415e-05	3.89664e-07	14.1908	0.00289093	0.00280271	-0.000708714	-10.9195	37.6634	36.9815	7.13457	0.0260719	0.00503075	0.0265528	10.9214	1.00526e+08	5.20977e+08	5.30587e+08	-79.0786	0.0000000E+000	0.0000000E+000	0.0000000E+000	79.0786	0.0000000E+000	0.0000000E+000	0.0000000E+000	-79.0786	0.0000000E+000	0.0000000E+000	0.0000000E+000	-10.9214	0.0000000E+000	0.0000000E+000	0.0000000E+000	10.9214	5.18251	79.0786	-0.00771847	-2.15778e-06	4.99774e-11	-2.15783e-06	3.96968	7.30269e+06	169.141	7.30286e+06
0.0019912	43.9664	10.5552	45.2157	-13.4997	20329.6	3.96958	-0.000543578	7.57251e+06	412662	1	11	0.00508908	0.000112551	0	-0.00951465	-9.19415e-05	2.46714e-07	-47.0161	0.00219202	0.0014945	0.00160356	-13.5013	45.2175	43.9679	10.5568	0.0215052	0.00516283	0.0221162	13.4997	4.12662e+08	1.71889e+09	1.76773e+09	-76.5003	0.0000000E+000	0.0000000E+000	0.0000000E+000	76.5003	0.0000000E+000	0.0000000E+000	0.0000000E+000	-76.5003	0.0000000E+000	0.0000000E+000	0.0000000E+000	-13.4997	0.0000000E+000	0.0000000E+000	0.0000000E+000	13.4997	4.16538	76.5003	0.000000000000000E+000	-2.15778e-06	4.99774e-11	-2.15783e-06	3.96968	7.30269e+06	169.141	7.30286e+06
0.000497799	47.9206	19.1329	51.599	-21.765	20329.6	3.96958	-0.000543578	1.67103e+07	2.29755e+06	1	11	0.00509159	9.86763e-05	0	-0.00951465	-9.19415e-05	7.08734e-07	-29.6108	0.00718242	0.0062444	0.00354888	-21.7661	51.6061	47.9268	19.1365	0.0179987	0.00718621	0.0193802	21.765	2.29755e+09	5.75448e+09	6.1962e+09	-68.235	0.0000000E+000	0.0000000E+000	0.0000000E+000	68.235	0.0000000E+000	0.0000000E+000	0.0000000E+000	-68.235	0.0000000E+000	0.0000000E+000	0.0000000E+000	-21.765	0.0000000E+000	0.0000000E+000	0.0000000E+000	21.765	2.50461	68.235	0.000000000000000E+000	-2.15778e-06	4.99774e-11	-2.15783e-06	3.96968	7.30269e+06	169.141	7.30286e+06
9.95598e-05	54.7364	88.4994	104.059	-58.2635	20329.6	3.96958	-0.000543578	1.80632e+07	1.30653e+07	1	11	0.00508716	4.88874e-05	0	-0.00951465	-9.19415e-05	4.38715e-06	-2.51389	0.0897399	0.0896535	0.00393613	-58.2226	104.109	54.826	88.5033	0.00505498	0.00817304	0.00960996	58.2635	1.30653e+10	8.08081e+09	1.53623e+10	-31.7365	0.0000000E+000	0.0000000E+000	0.0000000E+000	31.7365	0.0000000E+000	0.0000000E+000	0.0000000E+000	-31.7365	0.0000000E+000	0.0000000E+000	0.0000000E+000	-58.2635	0.0000000E+000	0.0000000E+000	0.0000000E+000	58.2635	0.618494	31.7365	0.000000000000000E+000	-2.15778e-06	4.99774e-11	-2.15783e-06	3.96968	7.30269e+06	169.141	7.30286e+06

File: 18698_R307_UC91_25_SOC50_C05.mpt
EC-Lab ASCII FILE
Nb header lines : 65

Potentio Electrochemical Impedance Spectroscopy

Run on channel : 5 (SN 65912)
User :
CE vs. WE compliance from -10 V to 10 V
Electrode connection : standard
Potential control : Ewe
Ewe ctrl range : min = -10.00 V, max = 10.00 V
Safety Limits :
	Do not start on E overload
Acquisition started on : 10/29/2025 14:38:31.353
Technique started on : 10/29/2025 14:38:34.048
Loaded Setting File :  C:\Users\Celltest\OneDrive - store-dot.com\Documents\EC-Lab\Data\@Biologic Test Protocols\cathode half cell EIS SOC50.mps
Saved on :
	File : 18698_R307_UC91_25_SOC50_C05.mpr
	Directory : C:\Users\Celltest\OneDrive - store-dot.com\Documents\EC-Lab\Data\Anna\
	Host : 169.254.61.224
Device : VMP-3e (SN .003165)
Address : USB
EC-LAB for windows v11.62 (software)
Internet server v27.00 (firmware)
Command interpretor v12.03 (firmware)
Electrode material :
Initial state :
Electrolyte :
Comments :
Electrode surface area : 0.001 cm²
Characteristic mass : 0.001 g
Equivalent Weight : 0.000 g/eq.
Density : 0.000 g/cm3
Volume (V) : 0.001 cm³
Record Ece
Cycle Definition : Charge/Discharge alternance
Mode                Multi sine
E (V)               0.0000
vs.                 Eoc
tE (h:m:s)          0:00:0.0000
record              0
dI                  0.000
unit dI             mA
dt (s)              0.000
fi                  1.000
unit fi             MHz
ff                  0.100
unit ff             mHz
Nd                  10
Points              per decade
spacing             Logarithmic
Va (mV)             5.0
pw                  0.10
Na                  2
corr                0
E range min (V)     -10.000
E range max (V)     10.000
I Range             Auto
Bandwidth           5
nc cycles           0
goto Ns'            0
nr cycles           0
inc. cycle          0

freq/Hz	Re(Z)/Ohm	-Im(Z)/Ohm	|Z|/Ohm	Phase(Z)/deg	time/s	<Ewe>/V	<I>/mA	Cs/µF	Cp/µF	cycle number	I Range	|Ewe|/V	|I|/A	Ns	(Q-Qo)/mA.h	<Ece>/V	|Ece|/V	Phase(Zce)/deg	|Zce|/Ohm	Re(Zce)/Ohm	-Im(Zce)/Ohm	Phase(Zwe-ce)/deg	|Zwe-ce|/Ohm	Re(Zwe-ce)/Ohm	-Im(Zwe-ce)/Ohm	Re(Y)/Ohm-1	Im(Y)/Ohm-1	|Y|/Ohm-1	Phase(Y)/deg	Re(C)/nF	Im(C)/nF	|C|/nF	Phase(C)/deg	Re(M)	Im(M)	|M|	Phase(M)/deg	Re(Permittivity)	Im(Permittivity)	|Permittivity|	Phase(Permittivity)/deg	Re(Resistivity)/Ohm.cm	Im(Resistivity)/Ohm.cm	|Resistivity|/Ohm.cm	Phase(Resistivity)/deg	Re(Conductivity)/mS/cm	Im(Conductivity)/mS/cm	|Conductivity|/mS/cm	Phase(Conductivity)/deg	Tan(Delta)	Loss Angle(Delta)/deg	dq/mA.h	Pwe/W	Pce/W	Pwe-ce/W	<Ewe-Ece>/V	Rwe/Ohm	Rce/Ohm	Rwe-ce/Ohm		Ewe-Ece/V
1.00002e+06	0.957098	-0.403546	1.03869	22.862	2.69453	3.97394	0.0409422	-0.394384	-0.0595291	1	9	0.000223525	0.000215198	0	1.16547e-05	-0.000117823	0.000189999	3.82775	0.8829	0.88093	-0.0589399	14.1236	1.89532	1.83803	-0.462486	0.887117	-0.374039	0.962747	-22.862	-59.5291	141.186	153.223	-112.862	0.0000000E+000	0.0000000E+000	0.0000000E+000	112.862	0.0000000E+000	0.0000000E+000	0.0000000E+000	-112.862	0.0000000E+000	0.0000000E+000	0.0000000E+000	22.862	0.0000000E+000	0.0000000E+000	0.0000000E+000	-22.862	2.37172	67.138	1.16547e-05	0.000162702	-4.82392e-09	0.000162706	3.97405	97062.1	2.87778	97065
251206	1.27762	0.425876	1.34673	-18.4351	4.99656	3.97231	-0.0321967	1.48767	0.148769	1	9	0.00345107	0.00256256	0	1.26688e-06	-0.000366009	5.12979e-05	92.4753	0.0200182	-0.000864556	-0.0199996	-17.6353	1.33971	1.27675	0.405877	0.704435	0.234814	0.74254	18.4351	148.769	446.304	470.446	-71.5649	0.0000000E+000	0.0000000E+000	0.0000000E+000	71.5649	0.0000000E+000	0.0000000E+000	0.0000000E+000	-71.5649	0.0000000E+000	0.0000000E+000	0.0000000E+000	-18.4351	0.0000000E+000	0.0000000E+000	0.0000000E+000	18.4351	2.99997	71.5649	-2.57689e-06	-0.000127895	1.17843e-08	-0.000127907	3.97268	123376	11.3679	123388
63093.8	1.87211	1.24401	2.24775	-33.6038	7.29555	3.97203	-0.0291058	2.02773	0.6211	1	9	0.0053362	0.00237402	0	-2.07626e-05	0.000130363	1.32612e-05	40.7545	0.00558595	0.00423143	-0.00364662	-33.4668	2.24926	1.87635	1.24036	0.370542	0.246223	0.44489	33.6038	621.1	934.697	1122.24	-56.3962	0.0000000E+000	0.0000000E+000	0.0000000E+000	56.3962	0.0000000E+000	0.0000000E+000	0.0000000E+000	-56.3962	0.0000000E+000	0.0000000E+000	0.0000000E+000	-33.6038	0.0000000E+000	0.0000000E+000	0.0000000E+000	33.6038	1.5049	56.3962	-2.42456e-06	-0.000115609	-3.79432e-09	-0.000115605	3.9719	136468	4.47894	136464
15847.7	3.45771	2.30494	4.15554	-33.6878	9.59352	3.972	-0.0286217	4.35707	1.34048	1	9	0.00509427	0.0012259	0	-3.77073e-05	-4.14579e-05	8.23255e-06	-99.4609	0.00671553	-0.00110387	0.00662419	-33.7722	4.1583	3.45661	2.31157	0.200232	0.133476	0.240642	33.6878	1340.47	2010.89	2416.72	-56.3122	0.0000000E+000	0.0000000E+000	0.0000000E+000	56.3122	0.0000000E+000	0.0000000E+000	0.0000000E+000	-56.3122	0.0000000E+000	0.0000000E+000	0.0000000E+000	-33.6878	0.0000000E+000	0.0000000E+000	0.0000000E+000	33.6878	1.50013	56.3122	-3.17482e-06	-0.000113686	1.1866e-09	-0.000113687	3.97204	138776	1.44848	138777
3983.6	5.73213	3.28126	6.60485	-29.7882	11.5961	3.97196	-0.0249527	12.176	3.0051	1	10	0.00513603	0.000777615	0	-4.85484e-05	-7.96403e-05	9.6083e-06	-30.3979	0.0123561	0.0106575	0.00625223	-29.7894	6.6172	5.74279	3.28751	0.131399	0.0752168	0.151404	29.7882	3005.1	5249.71	6048.97	-60.2118	0.0000000E+000	0.0000000E+000	0.0000000E+000	60.2118	0.0000000E+000	0.0000000E+000	0.0000000E+000	-60.2118	0.0000000E+000	0.0000000E+000	0.0000000E+000	-29.7882	0.0000000E+000	0.0000000E+000	0.0000000E+000	29.7882	1.74693	60.2118	-1.38484e-06	-9.91111e-05	1.98724e-09	-9.91131e-05	3.97204	159179	3.19165	159183
1000.32	9.15881	4.98107	10.4257	-28.5398	14.2248	3.97195	-0.0108708	31.9417	7.29112	1	10	0.00482351	0.000462656	0	-5.77461e-05	3.4907e-05	3.35677e-06	-4.82931	0.00725543	0.00722967	0.000610817	-28.5238	10.4323	9.16604	4.98168	0.0842616	0.0458262	0.095917	28.5398	7291.12	13406.4	15260.8	-61.4602	0.0000000E+000	0.0000000E+000	0.0000000E+000	61.4602	0.0000000E+000	0.0000000E+000	0.0000000E+000	-61.4602	0.0000000E+000	0.0000000E+000	0.0000000E+000	-28.5398	0.0000000E+000	0.0000000E+000	0.0000000E+000	28.5398	1.83872	61.4602	-1.42877e-06	-4.31782e-05	-3.79466e-10	-4.31778e-05	3.97192	365378	3.21108	365375
251.044	15.1412	5.84041	16.2285	-21.0932	16.925	3.97195	-0.0113102	108.549	14.059	1	10	0.0047521	0.000292824	0	-6.55535e-05	-0.000117823	1.12443e-05	51.161	0.0383994	0.0240816	-0.0299097	-20.9641	16.2403	15.1652	5.8105	0.0574911	0.0221761	0.0616199	21.0932	14059	36447.7	39065.2	-68.9068	0.0000000E+000	0.0000000E+000	0.0000000E+000	68.9068	0.0000000E+000	0.0000000E+000	0.0000000E+000	-68.9068	0.0000000E+000	0.0000000E+000	0.0000000E+000	-21.0932	0.0000000E+000	0.0000000E+000	0.0000000E+000	21.0932	2.59248	68.9068	-1.49245e-06	-4.49234e-05	1.33259e-09	-4.49247e-05	3.97207	351185	10.4174	351195
[...]
0.0602816	25.5984	3.37348	25.8197	-7.50744	240.283	3.97196	-0.00772046	782632	13360.1	1	11	0.00509534	0.000197343	0	-0.0014176	1.58158e-05	6.41298e-07	28.1375	0.00324967	0.00286562	-0.00153251	-7.50324	25.8224	25.6013	3.37194	0.0383981	0.00506027	0.0387301	7.50744	1.33601e+07	1.01378e+08	1.02255e+08	-82.4926	0.0000000E+000	0.0000000E+000	0.0000000E+000	82.4926	0.0000000E+000	0.0000000E+000	0.0000000E+000	-82.4926	0.0000000E+000	0.0000000E+000	0.0000000E+000	-7.50744	0.0000000E+000	0.0000000E+000	0.0000000E+000	7.50744	7.58814	82.4926	0.000000000000000E+000	-3.06654e-05	-1.22105e-10	-3.06652e-05	3.97194	514472	2.04855	514470
0.00796479	35.6562	7.49787	36.436	-11.8753	20329.2	3.97196	-0.000811602	2.66507e+06	112856	1	11	0.00508918	0.000139675	0	-0.0099523	-4.14579e-05	2.18623e-07	-129.962	0.00156523	-0.00100532	0.0011997	-11.8775	36.4352	35.6552	7.49907	0.026858	0.00564777	0.0274454	11.8753	1.12855e+08	5.36685e+08	5.48423e+08	-78.1247	0.0000000E+000	0.0000000E+000	0.0000000E+000	78.1247	0.0000000E+000	0.0000000E+000	0.0000000E+000	-78.1247	0.0000000E+000	0.0000000E+000	0.0000000E+000	-11.8753	0.0000000E+000	0.0000000E+000	0.0000000E+000	11.8753	4.75551	78.1247	-0.0085347	-3.22365e-06	3.36473e-11	-3.22369e-06	3.972	4.89398e+06	51.0815	4.89403e+06
0.0019912	42.9031	10.584	44.1894	-13.8579	20329.2	3.97196	-0.000811602	7.5519e+06	433232	1	11	0.00510062	0.000115426	0	-0.0099523	-4.14579e-05	3.12074e-07	-96.046	0.00270366	-0.000284768	0.00268862	-13.8614	44.1897	42.9029	10.5867	0.0219712	0.00542018	0.0226299	13.8579	4.33231e+08	1.75614e+09	1.80879e+09	-76.1421	0.0000000E+000	0.0000000E+000	0.0000000E+000	76.1421	0.0000000E+000	0.0000000E+000	0.0000000E+000	-76.1421	0.0000000E+000	0.0000000E+000	0.0000000E+000	-13.8579	0.0000000E+000	0.0000000E+000	0.0000000E+000	13.8579	4.05359	76.1421	0.000000000000000E+000	-3.22365e-06	3.36473e-11	-3.22369e-06	3.972	4.89398e+06	51.0815	4.89403e+06
0.000497799	47.1612	18.4258	50.6329	-21.3404	20329.2	3.97196	-0.000811602	1.73516e+07	2.29787e+06	1	11	0.00510189	0.000100762	0	-0.0099523	-4.14579e-05	5.31846e-07	-27.1121	0.00527821	0.00469823	0.00240546	-21.341	50.6382	47.1659	18.4282	0.0183958	0.0071872	0.01975	21.3404	2.29787e+09	5.88147e+09	6.31442e+09	-68.6596	0.0000000E+000	0.0000000E+000	0.0000000E+000	68.6596	0.0000000E+000	0.0000000E+000	0.0000000E+000	-68.6596	0.0000000E+000	0.0000000E+000	0.0000000E+000	-21.3404	0.0000000E+000	0.0000000E+000	0.0000000E+000	21.3404	2.55953	68.6596	0.000000000000000E+000	-3.22365e-06	3.36473e-11	-3.22369e-06	3.972	4.89398e+06	51.0815	4.89403e+06
9.95598e-05	54.6239	85.3683	101.348	-57.3864	20329.2	3.97196	-0.000811602	1.87258e+07	1.32861e+07	1	11	0.00509947	5.03162e-05	0	-0.0099523	-4.14579e-05	3.04279e-06	-85.3108	0.0604734	0.00494375	0.060271	-57.4024	101.402	54.6288	85.4286	0.005318	0.00831117	0.00986695	57.3864	1.32861e+10	8.50128e+09	1.57732e+10	-32.6136	0.0000000E+000	0.0000000E+000	0.0000000E+000	32.6136	0.0000000E+000	0.0000000E+000	0.0000000E+000	-32.6136	0.0000000E+000	0.0000000E+000	0.0000000E+000	-57.3864	0.0000000E+000	0.0000000E+000	0.0000000E+000	57.3864	0.639862	32.6136	0.000000000000000E+000	-3.22365e-06	3.36473e-11	-3.22369e-06	3.972	4.89398e+06	51.0815	4.89403e+06