Folder: EIS/txt (part 96)

File: 18504_R303_UC88_11mm_SOC50_C03.mpt
EC-Lab ASCII FILE
Nb header lines : 65

Potentio Electrochemical Impedance Spectroscopy

Run on channel : 3 (SN 65921)
User :
CE vs. WE compliance from -10 V to 10 V
Electrode connection : standard
Potential control : Ewe
Ewe ctrl range : min = -10.00 V, max = 10.00 V
Safety Limits :
	Do not start on E overload
Acquisition started on : 10/20/2025 14:15:05.382
Technique started on : 10/20/2025 14:15:08.076
Loaded Setting File :  C:\Users\Celltest\OneDrive - store-dot.com\Documents\EC-Lab\Data\txt_done\UC80_17231_EIS_50SOC.mps
Saved on :
	File : 18504_R303_UC88_11mm_SOC50_C03.mpr
	Directory : C:\Users\Celltest\OneDrive - store-dot.com\Documents\EC-Lab\Data\Michael\
	Host : 169.254.61.224
Device : VMP-3e (SN .003165)
Address : USB
EC-LAB for windows v11.62 (software)
Internet server v27.00 (firmware)
Command interpretor v12.03 (firmware)
Electrode material :
Initial state :
Electrolyte :
Comments :
Electrode surface area : 0.001 cm²
Characteristic mass : 0.001 g
Equivalent Weight : 0.000 g/eq.
Density : 0.000 g/cm3
Volume (V) : 0.001 cm³
Record Ece
Cycle Definition : Charge/Discharge alternance
Mode                Multi sine
E (V)               0.0000
vs.                 Eoc
tE (h:m:s)          0:00:0.0000
record              0
dI                  0.000
unit dI             mA
dt (s)              0.000
fi                  1.000
unit fi             MHz
ff                  0.100
unit ff             mHz
Nd                  10
Points              per decade
spacing             Logarithmic
Va (mV)             5.0
pw                  0.10
Na                  2
corr                0
E range min (V)     -10.000
E range max (V)     10.000
I Range             Auto
Bandwidth           5
nc cycles           0
goto Ns'            0
nr cycles           0
inc. cycle          0

freq/Hz	Re(Z)/Ohm	-Im(Z)/Ohm	|Z|/Ohm	Phase(Z)/deg	time/s	<Ewe>/V	<I>/mA	Cs/µF	Cp/µF	cycle number	I Range	|Ewe|/V	|I|/A	Ns	(Q-Qo)/mA.h	<Ece>/V	|Ece|/V	Phase(Zce)/deg	|Zce|/Ohm	Re(Zce)/Ohm	-Im(Zce)/Ohm	Phase(Zwe-ce)/deg	|Zwe-ce|/Ohm	Re(Zwe-ce)/Ohm	-Im(Zwe-ce)/Ohm	Re(Y)/Ohm-1	Im(Y)/Ohm-1	|Y|/Ohm-1	Phase(Y)/deg	Re(C)/nF	Im(C)/nF	|C|/nF	Phase(C)/deg	Re(M)	Im(M)	|M|	Phase(M)/deg	Re(Permittivity)	Im(Permittivity)	|Permittivity|	Phase(Permittivity)/deg	Re(Resistivity)/Ohm.cm	Im(Resistivity)/Ohm.cm	|Resistivity|/Ohm.cm	Phase(Resistivity)/deg	Re(Conductivity)/mS/cm	Im(Conductivity)/mS/cm	|Conductivity|/mS/cm	Phase(Conductivity)/deg	Tan(Delta)	Loss Angle(Delta)/deg	dq/mA.h	Pwe/W	Pce/W	Pwe-ce/W	<Ewe-Ece>/V	Rwe/Ohm	Rce/Ohm	Rwe-ce/Ohm		Ewe-Ece/V
1.00002e+06	0.902889	-0.322193	0.958653	19.6388	2.69356	3.82611	0.036765	-0.493965	-0.0557962	1	9	0.000214526	0.000223779	0	-5.5804e-06	0.000415931	0.00018767	13.3359	0.838642	0.816028	-0.19344	16.698	1.79459	1.71892	-0.515633	0.982451	-0.350585	1.04313	-19.6388	-55.7962	156.359	166.016	-109.639	0.0000000E+000	0.0000000E+000	0.0000000E+000	109.639	0.0000000E+000	0.0000000E+000	0.0000000E+000	-109.639	0.0000000E+000	0.0000000E+000	0.0000000E+000	19.6388	0.0000000E+000	0.0000000E+000	0.0000000E+000	-19.6388	2.80232	70.3612	-5.5804e-06	0.000140667	1.52917e-08	0.000140652	3.8257	104070	11.3132	104058
251206	0.803842	0.377395	0.888025	-25.1495	4.99155	3.82569	0.0175216	1.67878	0.303204	1	9	0.00206748	0.00232818	0	5.88195e-06	-4.23269e-05	5.13108e-05	90.0313	0.022039	-1.20522e-05	-0.022039	-23.8492	0.878875	0.80383	0.355356	1.01934	0.47857	1.12609	25.1495	303.204	645.817	713.451	-64.8505	0.0000000E+000	0.0000000E+000	0.0000000E+000	64.8505	0.0000000E+000	0.0000000E+000	0.0000000E+000	-64.8505	0.0000000E+000	0.0000000E+000	0.0000000E+000	-25.1495	0.0000000E+000	0.0000000E+000	0.0000000E+000	25.1495	2.12998	64.8505	2.99954e-06	6.7032e-05	-7.41634e-10	6.70328e-05	3.82573	218342	2.41571	218344
63093.8	1.34423	1.12	1.74967	-39.8008	7.29153	3.82559	0.0177454	2.25224	0.922865	1	9	0.00534879	0.00305702	0	-3.50518e-06	0.00012952	2.33227e-05	46.416	0.00762922	0.00525971	-0.00552633	-39.5516	1.75019	1.34949	1.11448	0.439096	0.365851	0.571535	39.8008	922.865	1107.62	1441.7	-50.1992	0.0000000E+000	0.0000000E+000	0.0000000E+000	50.1992	0.0000000E+000	0.0000000E+000	0.0000000E+000	-50.1992	0.0000000E+000	0.0000000E+000	0.0000000E+000	-39.8008	0.0000000E+000	0.0000000E+000	0.0000000E+000	39.8008	1.2002	50.1992	1.20586e-07	6.78864e-05	2.29837e-09	6.78841e-05	3.82546	215583	7.29879	215575
15847.7	2.73668	1.8665	3.31258	-34.2952	9.59152	3.82558	0.0261363	5.38056	1.70824	1	9	0.00519459	0.00156814	0	6.14354e-06	-0.00029055	1.35887e-05	-116.373	0.0086655	-0.00384934	0.00776361	-34.4436	3.31379	2.73283	1.87426	0.249396	0.170096	0.301879	34.2952	1708.24	2504.63	3031.71	-55.7048	0.0000000E+000	0.0000000E+000	0.0000000E+000	55.7048	0.0000000E+000	0.0000000E+000	0.0000000E+000	-55.7048	0.0000000E+000	0.0000000E+000	0.0000000E+000	-34.2952	0.0000000E+000	0.0000000E+000	0.0000000E+000	34.2952	1.46621	55.7048	2.214e-06	9.99866e-05	-7.59391e-09	9.99942e-05	3.82587	146370	11.1167	146381
3983.6	4.54218	2.67465	5.27116	-30.4916	11.594	3.82554	-0.0262781	14.9375	3.8459	1	10	0.00527029	0.000999835	0	3.1653e-06	-0.000118703	7.47291e-06	-124.197	0.00747414	-0.00420073	0.00618195	-30.5727	5.27068	4.53798	2.68083	0.163475	0.0962618	0.189712	30.4916	3845.9	6531.25	7579.46	-59.5084	0.0000000E+000	0.0000000E+000	0.0000000E+000	59.5084	0.0000000E+000	0.0000000E+000	0.0000000E+000	-59.5084	0.0000000E+000	0.0000000E+000	0.0000000E+000	-30.4916	0.0000000E+000	0.0000000E+000	0.0000000E+000	30.4916	1.69823	59.5084	-1.96616e-06	-0.000100528	3.11929e-09	-0.000100531	3.82566	145579	4.5172	145584
1000.32	7.44927	3.85961	8.38977	-27.3895	14.2228	3.82549	-0.0250997	41.2228	8.72417	1	10	0.00483332	0.000576097	0	-1.39874e-05	-6.1421e-05	1.0485e-05	-108.295	0.0182	-0.00571304	0.0172801	-27.5122	8.39267	7.44356	3.87689	0.105831	0.0548331	0.119193	27.3895	8724.17	16838.2	18964	-62.6105	0.0000000E+000	0.0000000E+000	0.0000000E+000	62.6105	0.0000000E+000	0.0000000E+000	0.0000000E+000	-62.6105	0.0000000E+000	0.0000000E+000	0.0000000E+000	-27.3895	0.0000000E+000	0.0000000E+000	0.0000000E+000	27.3895	1.93006	62.6105	-3.07485e-06	-9.60189e-05	1.54165e-09	-9.60204e-05	3.82555	152412	2.44708	152414
251.044	11.8486	4.1013	12.5383	-19.0929	16.923	3.8255	-0.0248797	154.578	16.539	1	10	0.00474118	0.000378135	0	-3.2374e-05	-0.000214174	7.96644e-06	-41.8665	0.0210677	0.0156892	0.0140606	-19.1301	12.5578	11.8643	4.11536	0.075368	0.026088	0.0797553	19.0929	16539	47781.1	50562.6	-70.9071	0.0000000E+000	0.0000000E+000	0.0000000E+000	70.9071	0.0000000E+000	0.0000000E+000	0.0000000E+000	-70.9071	0.0000000E+000	0.0000000E+000	0.0000000E+000	-19.0929	0.0000000E+000	0.0000000E+000	0.0000000E+000	19.0929	2.88899	70.9071	-2.68814e-06	-9.51774e-05	5.32858e-09	-9.51827e-05	3.82571	153759	8.60835	153768
63.0823	14.9886	2.23341	15.1541	-8.47513	19.6429	3.82551	-0.0233062	1129.65	24.537	1	10	0.00474027	0.000312805	0	-4.89548e-05	-0.000137797	9.04417e-06	-107.036	0.0289132	-0.00847091	0.0276444	-8.58326	15.1498	14.9802	2.26106	0.0652681	0.00972543	0.0659887	8.47513	24537	164670	166488	-81.5249	0.0000000E+000	0.0000000E+000	0.0000000E+000	81.5249	0.0000000E+000	0.0000000E+000	0.0000000E+000	-81.5249	0.0000000E+000	0.0000000E+000	0.0000000E+000	-8.47513	0.0000000E+000	0.0000000E+000	0.0000000E+000	8.47513	6.71108	81.5249	-3.09488e-06	-8.91579e-05	3.21152e-09	-8.91611e-05	3.82565	164142	5.91248	164147
[...]
0.0602816	19.1304	2.63214	19.3106	-7.83413	240.277	3.82553	-0.011206	1.00306e+06	18636.1	1	11	0.00505782	0.00026192	0	-0.00208307	0.00012952	6.47443e-07	5.70064	0.00247192	0.00245969	-0.000245538	-7.83242	19.313	19.1328	2.6319	0.0513018	0.00705861	0.0517851	7.83413	1.86361e+07	1.35446e+08	1.36722e+08	-82.1659	0.0000000E+000	0.0000000E+000	0.0000000E+000	82.1659	0.0000000E+000	0.0000000E+000	0.0000000E+000	-82.1659	0.0000000E+000	0.0000000E+000	0.0000000E+000	-7.83413	0.0000000E+000	0.0000000E+000	0.0000000E+000	7.83413	7.26797	82.1659	0.000000000000000E+000	-4.28688e-05	-1.45139e-09	-4.28673e-05	3.8254	341383	11.5581	341371
0.00796479	26.6948	4.54497	27.079	-9.66233	20329.1	3.82554	-3.55671e-05	4.39658e+06	123855	1	11	0.00505411	0.000186643	0	-0.0121495	0.00022499	6.61348e-07	168.204	0.00354338	-0.00346855	-0.000724373	-9.66205	27.0754	26.6913	4.54424	0.0364052	0.00619822	0.036929	9.66233	1.23855e+08	7.2746e+08	7.37928e+08	-80.3377	0.0000000E+000	0.0000000E+000	0.0000000E+000	80.3377	0.0000000E+000	0.0000000E+000	0.0000000E+000	-80.3377	0.0000000E+000	0.0000000E+000	0.0000000E+000	-9.66233	0.0000000E+000	0.0000000E+000	0.0000000E+000	9.66233	5.87349	80.3377	-0.0100664	-1.36063e-07	-8.00223e-12	-1.36055e-07	3.82531	1.07558e+08	6325.8	1.07552e+08
0.0019912	29.8133	7.14934	30.6586	-13.4851	20329.1	3.82554	-3.55671e-05	1.118e+07	607950	1	11	0.00506581	0.000165233	0	-0.0121495	0.00022499	2.20712e-07	-1.23744	0.00133576	0.00133545	2.88467e-05	-13.4846	30.6599	29.8147	7.14936	0.0317181	0.0076061	0.0326173	13.4851	6.07951e+08	2.5352e+09	2.60708e+09	-76.5149	0.0000000E+000	0.0000000E+000	0.0000000E+000	76.5149	0.0000000E+000	0.0000000E+000	0.0000000E+000	-76.5149	0.0000000E+000	0.0000000E+000	0.0000000E+000	-13.4851	0.0000000E+000	0.0000000E+000	0.0000000E+000	13.4851	4.17008	76.5149	0.000000000000000E+000	-1.36063e-07	-8.00223e-12	-1.36055e-07	3.82531	1.07558e+08	6325.8	1.07552e+08
0.000497799	31.394	19.1051	36.7504	-31.323	20329.1	3.82554	-3.55671e-05	1.67346e+07	4.52264e+06	1	11	0.00506583	0.000137844	0	-0.0121495	0.00022499	3.97419e-07	153.843	0.0028831	-0.00258785	-0.00127095	-31.3234	36.7475	31.3915	19.1039	0.0232446	0.0141457	0.0272106	31.323	4.52264e+09	7.43171e+09	8.69969e+09	-58.677	0.0000000E+000	0.0000000E+000	0.0000000E+000	58.677	0.0000000E+000	0.0000000E+000	0.0000000E+000	-58.677	0.0000000E+000	0.0000000E+000	0.0000000E+000	-31.323	0.0000000E+000	0.0000000E+000	0.0000000E+000	31.323	1.64323	58.677	0.000000000000000E+000	-1.36063e-07	-8.00223e-12	-1.36055e-07	3.82531	1.07558e+08	6325.8	1.07552e+08
9.95598e-05	41.43	91.8232	100.737	-65.7155	20329.1	3.82554	-3.55671e-05	1.74094e+07	1.44647e+07	1	11	0.00506097	5.02394e-05	0	-0.0121495	0.00022499	3.76957e-06	-92.0396	0.0750322	-0.0026704	0.0749846	-65.7344	100.804	41.4273	91.8982	0.0040826	0.00904845	0.00992684	65.7155	1.44647e+10	6.52638e+09	1.58689e+10	-24.2845	0.0000000E+000	0.0000000E+000	0.0000000E+000	24.2845	0.0000000E+000	0.0000000E+000	0.0000000E+000	-24.2845	0.0000000E+000	0.0000000E+000	0.0000000E+000	-65.7155	0.0000000E+000	0.0000000E+000	0.0000000E+000	65.7155	0.451193	24.2845	0.000000000000000E+000	-1.36063e-07	-8.00223e-12	-1.36055e-07	3.82531	1.07558e+08	6325.8	1.07552e+08

File: 18505_R303_UC88_11mm_SOC50_C04.mpt
EC-Lab ASCII FILE
Nb header lines : 65

Potentio Electrochemical Impedance Spectroscopy

Run on channel : 4 (SN 66756)
User :
CE vs. WE compliance from -10 V to 10 V
Electrode connection : standard
Potential control : Ewe
Ewe ctrl range : min = -10.00 V, max = 10.00 V
Safety Limits :
	Do not start on E overload
Acquisition started on : 10/20/2025 14:15:27.182
Technique started on : 10/20/2025 14:15:29.417
Loaded Setting File :  C:\Users\Celltest\OneDrive - store-dot.com\Documents\EC-Lab\Data\txt_done\UC80_17231_EIS_50SOC.mps
Saved on :
	File : 18505_R303_UC88_11mm_SOC50_C04.mpr
	Directory : C:\Users\Celltest\OneDrive - store-dot.com\Documents\EC-Lab\Data\Michael\
	Host : 169.254.61.224
Device : VMP-3e (SN .003165)
Address : USB
EC-LAB for windows v11.62 (software)
Internet server v27.00 (firmware)
Command interpretor v12.03 (firmware)
Electrode material :
Initial state :
Electrolyte :
Comments :
Electrode surface area : 0.001 cm²
Characteristic mass : 0.001 g
Equivalent Weight : 0.000 g/eq.
Density : 0.000 g/cm3
Volume (V) : 0.001 cm³
Record Ece
Cycle Definition : Charge/Discharge alternance
Mode                Multi sine
E (V)               0.0000
vs.                 Eoc
tE (h:m:s)          0:00:0.0000
record              0
dI                  0.000
unit dI             mA
dt (s)              0.000
fi                  1.000
unit fi             MHz
ff                  0.100
unit ff             mHz
Nd                  10
Points              per decade
spacing             Logarithmic
Va (mV)             5.0
pw                  0.10
Na                  2
corr                0
E range min (V)     -10.000
E range max (V)     10.000
I Range             Auto
Bandwidth           5
nc cycles           0
goto Ns'            0
nr cycles           0
inc. cycle          0

freq/Hz	Re(Z)/Ohm	-Im(Z)/Ohm	|Z|/Ohm	Phase(Z)/deg	time/s	<Ewe>/V	<I>/mA	Cs/µF	Cp/µF	cycle number	I Range	|Ewe|/V	|I|/A	Ns	(Q-Qo)/mA.h	<Ece>/V	|Ece|/V	Phase(Zce)/deg	|Zce|/Ohm	Re(Zce)/Ohm	-Im(Zce)/Ohm	Phase(Zwe-ce)/deg	|Zwe-ce|/Ohm	Re(Zwe-ce)/Ohm	-Im(Zwe-ce)/Ohm	Re(Y)/Ohm-1	Im(Y)/Ohm-1	|Y|/Ohm-1	Phase(Y)/deg	Re(C)/nF	Im(C)/nF	|C|/nF	Phase(C)/deg	Re(M)	Im(M)	|M|	Phase(M)/deg	Re(Permittivity)	Im(Permittivity)	|Permittivity|	Phase(Permittivity)/deg	Re(Resistivity)/Ohm.cm	Im(Resistivity)/Ohm.cm	|Resistivity|/Ohm.cm	Phase(Resistivity)/deg	Re(Conductivity)/mS/cm	Im(Conductivity)/mS/cm	|Conductivity|/mS/cm	Phase(Conductivity)/deg	Tan(Delta)	Loss Angle(Delta)/deg	dq/mA.h	Pwe/W	Pce/W	Pwe-ce/W	<Ewe-Ece>/V	Rwe/Ohm	Rce/Ohm	Rwe-ce/Ohm		Ewe-Ece/V
1.00002e+06	3.97935	1.72335	4.33649	-23.4161	2.23453	3.82603	0.0749705	0.0923506	0.0145851	1	10	0.000193961	4.47276e-05	0	1.26863e-05	-0.000168381	0.000191788	-66.9627	4.2879	1.67799	3.94595	-45.0605	8.00914	5.65733	5.66929	0.21161	0.0916423	0.230601	23.4161	14.5851	33.6781	36.7007	-66.5839	0.0000000E+000	0.0000000E+000	0.0000000E+000	66.5839	0.0000000E+000	0.0000000E+000	0.0000000E+000	-66.5839	0.0000000E+000	0.0000000E+000	0.0000000E+000	-23.4161	0.0000000E+000	0.0000000E+000	0.0000000E+000	23.4161	2.30908	66.5839	1.26863e-05	0.00028684	-1.26236e-08	0.000286852	3.8262	51033.8	2.24597	51036.1
251206	0.859183	0.234609	0.890638	-15.2729	4.94651	3.82466	-0.019268	2.70051	0.187384	1	9	0.00134052	0.00150512	0	2.5845e-06	-0.000225711	6.13339e-05	80.4213	0.0407502	0.00678094	-0.040182	-12.6542	0.887522	0.865964	0.194427	1.08314	0.295762	1.12279	15.2729	187.384	686.235	711.359	-74.7271	0.0000000E+000	0.0000000E+000	0.0000000E+000	74.7271	0.0000000E+000	0.0000000E+000	0.0000000E+000	-74.7271	0.0000000E+000	0.0000000E+000	0.0000000E+000	-15.2729	0.0000000E+000	0.0000000E+000	0.0000000E+000	15.2729	3.66219	74.7271	-2.91374e-06	-7.36937e-05	4.34901e-09	-7.3698e-05	3.82488	198497	11.7143	198509
63093.8	1.2884	0.948869	1.6001	-36.3705	7.24652	3.82456	-0.0295993	2.65844	0.934851	1	9	0.0050898	0.00318092	0	-9.31911e-06	-0.000206601	2.1748e-05	46.2818	0.00683702	0.00472515	-0.00494144	-36.1278	1.60099	1.29313	0.943927	0.503217	0.370603	0.624959	36.3705	934.851	1269.37	1576.47	-53.6295	0.0000000E+000	0.0000000E+000	0.0000000E+000	53.6295	0.0000000E+000	0.0000000E+000	0.0000000E+000	-53.6295	0.0000000E+000	0.0000000E+000	0.0000000E+000	-36.3705	0.0000000E+000	0.0000000E+000	0.0000000E+000	36.3705	1.35783	53.6295	-1.04365e-05	-0.000113205	6.11526e-09	-0.000113211	3.82477	129211	6.97993	129218
15847.7	2.44934	1.55447	2.90097	-32.4012	9.54652	3.82454	-0.026168	6.46058	1.85502	1	9	0.00531798	0.00183317	0	-1.98921e-05	-9.19415e-05	1.33608e-05	-74.4283	0.00728836	0.00195652	0.00702084	-32.4974	2.90639	2.4513	1.56149	0.291046	0.184712	0.344712	32.4012	1855.02	2922.91	3461.87	-57.5988	0.0000000E+000	0.0000000E+000	0.0000000E+000	57.5988	0.0000000E+000	0.0000000E+000	0.0000000E+000	-57.5988	0.0000000E+000	0.0000000E+000	0.0000000E+000	-32.4012	0.0000000E+000	0.0000000E+000	0.0000000E+000	32.4012	1.57567	57.5988	-8.90923e-07	-0.000100081	2.40593e-09	-0.000100083	3.82463	146153	3.51351	146157
3983.6	3.97241	2.22231	4.55178	-29.2242	11.9201	3.82456	-0.0227451	17.9779	4.28535	1	10	0.00547225	0.00120222	0	-3.86086e-05	-0.000149271	1.24199e-05	-60.231	0.0103308	0.0051293	0.00896751	-29.2911	4.56064	3.97754	2.23128	0.191731	0.107261	0.219694	29.2242	4285.35	7660.12	8777.34	-60.7758	0.0000000E+000	0.0000000E+000	0.0000000E+000	60.7758	0.0000000E+000	0.0000000E+000	0.0000000E+000	-60.7758	0.0000000E+000	0.0000000E+000	0.0000000E+000	-29.2242	0.0000000E+000	0.0000000E+000	0.0000000E+000	29.2242	1.78752	60.7758	-1.39844e-06	-8.69901e-05	3.39519e-09	-8.69935e-05	3.82471	168149	6.56279	168155
1000.32	6.3494	3.29635	7.15408	-27.4365	14.7258	3.82452	-0.0157884	48.2668	10.2472	1	10	0.00502746	0.00070274	0	-5.12517e-05	-9.19415e-05	4.29585e-06	-14.5355	0.006113	0.00591734	0.00153424	-27.4256	7.16004	6.35532	3.29788	0.124058	0.0644059	0.13978	27.4365	10247.2	19738.2	22239.6	-62.5635	0.0000000E+000	0.0000000E+000	0.0000000E+000	62.5635	0.0000000E+000	0.0000000E+000	0.0000000E+000	-62.5635	0.0000000E+000	0.0000000E+000	0.0000000E+000	-27.4365	0.0000000E+000	0.0000000E+000	0.0000000E+000	27.4365	1.92619	62.5635	-2.31215e-06	-6.03829e-05	1.45161e-09	-6.03843e-05	3.82461	242237	5.82338	242243
251.044	10.1573	3.65136	10.7936	-19.7726	17.4261	3.82453	-0.0196304	173.626	19.8696	1	10	0.00477265	0.000442172	0	-6.41643e-05	8.00481e-05	9.50687e-06	-35.7158	0.0215004	0.0174566	0.0125512	-19.8039	10.8143	10.1747	3.66391	0.0871849	0.0313414	0.0926471	19.7726	19869.6	55272.7	58735.6	-70.2274	0.0000000E+000	0.0000000E+000	0.0000000E+000	70.2274	0.0000000E+000	0.0000000E+000	0.0000000E+000	-70.2274	0.0000000E+000	0.0000000E+000	0.0000000E+000	-19.7726	0.0000000E+000	0.0000000E+000	0.0000000E+000	19.7726	2.78178	70.2274	-2.44101e-06	-7.50772e-05	-1.57138e-09	-7.50757e-05	3.82445	194827	4.07775	194822
[...]
0.0602816	16.9338	2.372	17.0991	-7.97384	240.773	3.82451	-0.00740237	1.11306e+06	21419.3	1	11	0.00508114	0.000297159	0	-0.00190228	-9.19415e-05	4.52746e-07	-41.6327	0.00152358	0.00113875	0.00101219	-7.97667	17.1003	16.9349	2.37301	0.0579172	0.00811277	0.0584827	7.97384	2.14193e+07	1.52913e+08	1.54405e+08	-82.0262	0.0000000E+000	0.0000000E+000	0.0000000E+000	82.0262	0.0000000E+000	0.0000000E+000	0.0000000E+000	-82.0262	0.0000000E+000	0.0000000E+000	0.0000000E+000	-7.97384	0.0000000E+000	0.0000000E+000	0.0000000E+000	7.97384	7.13902	82.0262	0.000000000000000E+000	-2.83104e-05	6.80585e-10	-2.83111e-05	3.8246	516660	12.4206	516673
0.00796479	23.4668	4.07456	23.8179	-9.8501	20329.7	3.82449	0.000143019	4.90417e+06	143522	1	11	0.00507183	0.000212942	0	-0.0147008	-9.19415e-05	3.35245e-07	6.80821	0.00157435	0.00156325	-0.000186633	-9.84902	23.8194	23.4684	4.07437	0.0413663	0.00718246	0.0419852	9.8501	1.43522e+08	8.26595e+08	8.38962e+08	-80.1499	0.0000000E+000	0.0000000E+000	0.0000000E+000	80.1499	0.0000000E+000	0.0000000E+000	0.0000000E+000	-80.1499	0.0000000E+000	0.0000000E+000	0.0000000E+000	-9.8501	0.0000000E+000	0.0000000E+000	0.0000000E+000	9.8501	5.75935	80.1499	-0.0127986	5.46975e-07	-1.31494e-11	5.46988e-07	3.82458	2.67411e+07	642.862	2.67418e+07
0.0019912	26.3295	6.61865	27.1487	-14.1105	20329.7	3.82449	0.000143019	1.20764e+07	717759	1	11	0.00508542	0.000187317	0	-0.0147008	-9.19415e-05	4.05025e-07	41.1904	0.00216224	0.00162714	-0.00142397	-14.1068	27.1499	26.3311	6.61723	0.0357228	0.00897992	0.0368342	14.1105	7.17759e+08	2.8553e+09	2.94413e+09	-75.8895	0.0000000E+000	0.0000000E+000	0.0000000E+000	75.8895	0.0000000E+000	0.0000000E+000	0.0000000E+000	-75.8895	0.0000000E+000	0.0000000E+000	0.0000000E+000	-14.1105	0.0000000E+000	0.0000000E+000	0.0000000E+000	14.1105	3.97808	75.8895	0.000000000000000E+000	5.46975e-07	-1.31494e-11	5.46988e-07	3.82458	2.67411e+07	642.862	2.67418e+07
0.000497799	27.5571	18.0437	32.9389	-33.2158	20329.7	3.82449	0.000143019	1.7719e+07	5.31709e+06	1	11	0.00508655	0.000154424	0	-0.0147008	-9.19415e-05	6.59565e-07	-46.695	0.00427114	0.00292949	0.00310816	-33.2175	32.9431	27.5601	18.0468	0.0253989	0.0166306	0.0303592	33.2158	5.31709e+09	8.12048e+09	9.70636e+09	-56.7842	0.0000000E+000	0.0000000E+000	0.0000000E+000	56.7842	0.0000000E+000	0.0000000E+000	0.0000000E+000	-56.7842	0.0000000E+000	0.0000000E+000	0.0000000E+000	-33.2158	0.0000000E+000	0.0000000E+000	0.0000000E+000	33.2158	1.52724	56.7842	0.000000000000000E+000	5.46975e-07	-1.31494e-11	5.46988e-07	3.82458	2.67411e+07	642.862	2.67418e+07
9.95598e-05	35.214	90.1861	96.8171	-68.6713	20329.7	3.82449	0.000143019	1.77254e+07	1.53805e+07	1	11	0.00508738	5.25462e-05	0	-0.0147008	-9.19415e-05	2.52045e-06	-10.3494	0.0479663	0.0471859	0.00861717	-68.6472	96.8423	35.2612	90.1947	0.00375674	0.00962133	0.0103287	68.6713	1.53805e+10	6.00548e+09	1.65114e+10	-21.3287	0.0000000E+000	0.0000000E+000	0.0000000E+000	21.3287	0.0000000E+000	0.0000000E+000	0.0000000E+000	-21.3287	0.0000000E+000	0.0000000E+000	0.0000000E+000	-68.6713	0.0000000E+000	0.0000000E+000	0.0000000E+000	68.6713	0.39046	21.3286	0.000000000000000E+000	5.46975e-07	-1.31494e-11	5.46988e-07	3.82458	2.67411e+07	642.862	2.67418e+07