Folder: EIS/txt (part 71)

File: 18218_R279_UA654_SOC00_C05.mpt
EC-Lab ASCII FILE
Nb header lines : 65

Potentio Electrochemical Impedance Spectroscopy

Run on channel : 5 (SN 65912)
User :
CE vs. WE compliance from -10 V to 10 V
Electrode connection : standard
Potential control : Ewe
Ewe ctrl range : min = -10.00 V, max = 10.00 V
Safety Limits :
	Do not start on E overload
Acquisition started on : 10/08/2025 08:32:37.272
Technique started on : 10/08/2025 08:32:38.999
Loaded Setting File :  C:\Users\Celltest\OneDrive - store-dot.com\Documents\EC-Lab\Data\@Biologic Test Protocols\anode half cell EIS SOC00.mps
Saved on :
	File : 18218_R279_UA654_SOC00_C05.mpr
	Directory : C:\Users\Celltest\OneDrive - store-dot.com\Documents\EC-Lab\Data\Charmaine\
	Host : 169.254.61.224
Device : VMP-3e (SN .003165)
Address : USB
EC-LAB for windows v11.62 (software)
Internet server v27.00 (firmware)
Command interpretor v12.03 (firmware)
Electrode material :
Initial state :
Electrolyte :
Comments :
Electrode surface area : 0.001 cm²
Characteristic mass : 0.001 g
Equivalent Weight : 0.000 g/eq.
Density : 0.000 g/cm3
Volume (V) : 0.001 cm³
Record Ece
Cycle Definition : Charge/Discharge alternance
Mode                Single sine
E (V)               0.0000
vs.                 Eoc
tE (h:m:s)          0:00:0.0000
record              0
dI                  0.000
unit dI             mA
dt (s)              0.000
fi                  100.000
unit fi             kHz
ff                  10.000
unit ff             mHz
Nd                  6
Points              per decade
spacing             Logarithmic
Va (mV)             5.0
pw                  0.10
Na                  2
corr                0
E range min (V)     -10.000
E range max (V)     10.000
I Range             Auto
Bandwidth           5
nc cycles           0
goto Ns'            0
nr cycles           0
inc. cycle          0

freq/Hz	Re(Z)/Ohm	-Im(Z)/Ohm	|Z|/Ohm	Phase(Z)/deg	time/s	<Ewe>/V	<I>/mA	Cs/µF	Cp/µF	cycle number	I Range	|Ewe|/V	|I|/A	Ns	(Q-Qo)/mA.h	<Ece>/V	|Ece|/V	Phase(Zce)/deg	|Zce|/Ohm	Re(Zce)/Ohm	-Im(Zce)/Ohm	Phase(Zwe-ce)/deg	|Zwe-ce|/Ohm	Re(Zwe-ce)/Ohm	-Im(Zwe-ce)/Ohm	Re(Y)/Ohm-1	Im(Y)/Ohm-1	|Y|/Ohm-1	Phase(Y)/deg	Re(C)/nF	Im(C)/nF	|C|/nF	Phase(C)/deg	Re(M)	Im(M)	|M|	Phase(M)/deg	Re(Permittivity)	Im(Permittivity)	|Permittivity|	Phase(Permittivity)/deg	Re(Resistivity)/Ohm.cm	Im(Resistivity)/Ohm.cm	|Resistivity|/Ohm.cm	Phase(Resistivity)/deg	Re(Conductivity)/mS/cm	Im(Conductivity)/mS/cm	|Conductivity|/mS/cm	Phase(Conductivity)/deg	Tan(Delta)	Loss Angle(Delta)/deg	dq/mA.h	Pwe/W	Pce/W	Pwe-ce/W	<Ewe-Ece>/V	Rwe/Ohm	Rce/Ohm	Rwe-ce/Ohm		Ewe-Ece/V
100004	1.09461	0.236372	1.11984	-12.1854	1.72654	0.279046	0.000946748	6.73299	0.299975	1	9	0.00471494	0.00421036	0	-1.0777e-05	0.000111272	4.43636e-05	83.8976	0.0105368	0.00112011	-0.0104771	-11.6488	1.11878	1.09573	0.225895	0.872863	0.188487	0.892982	12.1854	299.975	1389.15	1421.17	-77.8146	0.0000000E+000	0.0000000E+000	0.0000000E+000	77.8146	0.0000000E+000	0.0000000E+000	0.0000000E+000	-77.8146	0.0000000E+000	0.0000000E+000	0.0000000E+000	-12.1854	0.0000000E+000	0.0000000E+000	0.0000000E+000	12.1854	4.63089	77.8146	-1.0777e-05	2.64186e-07	1.05346e-10	2.64081e-07	0.278935	294741	117.531	294624
31621.1	1.28439	0.340528	1.32876	-14.8491	3.24953	0.279032	-0.0106348	14.7805	0.970738	1	9	0.0050597	0.00380783	0	1.22377e-05	-0.000156005	1.51815e-05	12.7113	0.00398693	0.00388921	-0.000877276	-14.7698	1.3323	1.28827	0.33965	0.727448	0.192868	0.752581	14.8491	970.738	3661.38	3787.88	-75.1509	0.0000000E+000	0.0000000E+000	0.0000000E+000	75.1509	0.0000000E+000	0.0000000E+000	0.0000000E+000	-75.1509	0.0000000E+000	0.0000000E+000	0.0000000E+000	-14.8491	0.0000000E+000	0.0000000E+000	0.0000000E+000	14.8491	3.77175	75.1509	1.44431e-05	-2.96746e-06	1.65909e-09	-2.96912e-06	0.279188	26237.5	14.6693	26252.2
10002.2	1.55457	0.500222	1.63307	-17.8369	4.15254	0.279022	-0.00568197	31.8098	2.98455	1	9	0.00467535	0.00286293	0	1.37324e-05	-0.000194188	3.78605e-06	-38.0019	0.00132244	0.00104207	0.000814209	-17.8529	1.63431	1.55561	0.501036	0.582911	0.187566	0.612345	17.8369	2984.55	9275.25	9743.61	-72.1631	0.0000000E+000	0.0000000E+000	0.0000000E+000	72.1631	0.0000000E+000	0.0000000E+000	0.0000000E+000	-72.1631	0.0000000E+000	0.0000000E+000	0.0000000E+000	-17.8369	0.0000000E+000	0.0000000E+000	0.0000000E+000	17.8369	3.10776	72.1631	2.12759e-06	-1.58539e-06	1.10337e-09	-1.5865e-06	0.279216	49106.5	34.1761	49140.7
3163.08	1.93187	0.763576	2.0773	-21.5665	5.17566	0.27881	-0.133191	65.8958	8.90354	1	9	0.00476042	0.00229164	0	-5.99216e-07	7.30894e-05	1.24087e-05	68.8504	0.00541476	0.00195366	-0.00505003	-21.4171	2.07727	1.93383	0.758526	0.447692	0.176951	0.481394	21.5665	8903.54	22526.3	24222	-68.4335	0.0000000E+000	0.0000000E+000	0.0000000E+000	68.4335	0.0000000E+000	0.0000000E+000	0.0000000E+000	-68.4335	0.0000000E+000	0.0000000E+000	0.0000000E+000	-21.5665	0.0000000E+000	0.0000000E+000	0.0000000E+000	21.5665	2.53003	68.4335	-1.1363e-05	-3.71351e-05	-9.73486e-09	-3.71253e-05	0.278737	2093.31	0.548756	2092.76
1000.32	2.4517	1.28654	2.76876	-27.6884	6.52983	0.278954	-0.00728331	123.668	26.7014	1	9	0.00466047	0.00168323	0	-2.72197e-06	-7.96403e-05	1.11297e-05	-27.4735	0.00661208	0.0058664	0.0030504	-27.6879	2.77537	2.45757	1.28959	0.319814	0.167823	0.361172	27.6884	26701.4	50883.6	57464	-62.3116	0.0000000E+000	0.0000000E+000	0.0000000E+000	62.3116	0.0000000E+000	0.0000000E+000	0.0000000E+000	-62.3116	0.0000000E+000	0.0000000E+000	0.0000000E+000	-27.6884	0.0000000E+000	0.0000000E+000	0.0000000E+000	27.6884	1.90566	62.3116	-1.38233e-06	-2.03171e-06	5.80045e-10	-2.03229e-06	0.279034	38300.5	10.9346	38311.4
316.316	3.34984	2.52371	4.19411	-36.9937	8.12504	0.278978	-0.0232027	199.37	72.187	1	10	0.00468583	0.00111724	0	-1.06216e-05	-0.000136914	2.56606e-05	-45.681	0.0229679	0.0160466	0.0164326	-37.0408	4.21682	3.36589	2.54014	0.190434	0.143469	0.23843	36.9937	72187	95817.3	119966	-53.0063	0.0000000E+000	0.0000000E+000	0.0000000E+000	53.0063	0.0000000E+000	0.0000000E+000	0.0000000E+000	-53.0063	0.0000000E+000	0.0000000E+000	0.0000000E+000	-36.9937	0.0000000E+000	0.0000000E+000	0.0000000E+000	36.9937	1.32735	53.0063	-2.06122e-06	-6.47305e-06	3.17677e-09	-6.47623e-06	0.279115	12023.5	5.90078	12029.4
100.032	5.63142	4.91341	7.47359	-41.1047	9.47179	0.278973	-0.0232995	323.816	139.961	1	10	0.00465258	0.000622537	0	-1.75853e-05	0.000225819	6.63382e-05	80.4582	0.106561	0.0176644	-0.105087	-40.4034	7.41837	5.64909	4.80832	0.100823	0.087968	0.133805	41.1047	139961	160413	212888	-48.8953	0.0000000E+000	0.0000000E+000	0.0000000E+000	48.8953	0.0000000E+000	0.0000000E+000	0.0000000E+000	-48.8953	0.0000000E+000	0.0000000E+000	0.0000000E+000	-41.1047	0.0000000E+000	0.0000000E+000	0.0000000E+000	41.1047	1.14613	48.8953	-3.52707e-06	-6.49994e-06	-5.26148e-09	-6.49468e-06	0.278747	11973.3	9.69201	11963.6
[...]
1.00006	21.3593	2.33307	21.4864	-6.23367	19.539	0.278991	-0.00753619	68212.7	804.254	1	12	0.0046326	0.000215607	0	-5.27692e-05	-4.14579e-05	3.77942e-06	47.8985	0.0175292	0.0117524	-0.013006	-6.19581	21.4967	21.3711	2.32006	0.0462659	0.0050536	0.0465411	6.23367	804254	7.36298e+06	7.40678e+06	-83.7663	0.0000000E+000	0.0000000E+000	0.0000000E+000	83.7663	0.0000000E+000	0.0000000E+000	0.0000000E+000	-83.7663	0.0000000E+000	0.0000000E+000	0.0000000E+000	-6.23367	0.0000000E+000	0.0000000E+000	0.0000000E+000	6.23367	9.15505	83.7663	-1.24061e-05	-2.10253e-06	3.12434e-10	-2.10284e-06	0.279033	37020.2	5.50117	37025.7
0.316193	22.8572	2.30712	22.9733	-5.76371	33.8827	0.278995	-0.00750811	218171	2200.35	1	12	0.00463183	0.000201618	0	-9.57244e-05	-0.000117823	2.34504e-06	-8.63547	0.0116311	0.0114993	0.00174639	-5.76517	22.9849	22.8687	2.30887	0.0433087	0.00437143	0.0435288	5.76371	2.20035e+06	2.17993e+07	2.19101e+07	-84.2363	0.0000000E+000	0.0000000E+000	0.0000000E+000	84.2363	0.0000000E+000	0.0000000E+000	0.0000000E+000	-84.2363	0.0000000E+000	0.0000000E+000	0.0000000E+000	-5.76371	0.0000000E+000	0.0000000E+000	0.0000000E+000	5.76371	9.90722	84.2363	-1.07887e-05	-2.09473e-06	8.84626e-10	-2.09561e-06	0.279113	37159.2	15.6927	37174.9
0.0999041	24.2482	2.57887	24.3849	-6.07078	79.0906	0.278997	-0.00468758	617741	6909.15	1	12	0.00463408	0.000190039	0	-7.15579e-05	3.4907e-05	1.07636e-06	-22.0784	0.00566391	0.00524857	0.00212892	-6.07445	24.3904	24.2534	2.581	0.040779	0.00433698	0.0410089	6.07078	6.90914e+06	6.49641e+07	6.53304e+07	-83.9292	0.0000000E+000	0.0000000E+000	0.0000000E+000	83.9292	0.0000000E+000	0.0000000E+000	0.0000000E+000	-83.9292	0.0000000E+000	0.0000000E+000	0.0000000E+000	-6.07078	0.0000000E+000	0.0000000E+000	0.0000000E+000	6.07078	9.40262	83.9292	1.24705e-05	-1.30782e-06	-1.63629e-10	-1.30765e-06	0.278962	59518.3	7.4467	59510.9
0.0315922	25.5675	4.30686	25.9277	-9.56176	221.975	0.278999	-0.000536233	1.16971e+06	32275.6	1	12	0.0046366	0.000178828	0	-0.00027716	0.000187637	1.40526e-06	-7.11927	0.00785817	0.00779758	0.000973904	-9.56102	25.9355	25.5752	4.30783	0.038033	0.00640669	0.0385689	9.56176	3.22756e+07	1.91602e+08	1.94302e+08	-80.4382	0.0000000E+000	0.0000000E+000	0.0000000E+000	80.4382	0.0000000E+000	0.0000000E+000	0.0000000E+000	-80.4382	0.0000000E+000	0.0000000E+000	0.0000000E+000	-9.56176	0.0000000E+000	0.0000000E+000	0.0000000E+000	9.56176	5.93645	80.4382	-0.000147712	-1.49609e-07	-1.00617e-10	-1.49508e-07	0.278812	520294	349.916	519944
0.0100092	28.218	9.60565	29.8081	-18.799	673.198	0.279	-0.00207493	1.65537e+06	171902	1	12	0.00463206	0.000155396	0	-0.000979221	-7.96403e-05	1.95348e-06	42.5765	0.012571	0.00925697	-0.0085052	-18.7778	29.8141	28.2272	9.59715	0.0317583	0.0108108	0.0335479	18.799	1.71902e+08	5.04986e+08	5.33443e+08	-71.201	0.0000000E+000	0.0000000E+000	0.0000000E+000	71.201	0.0000000E+000	0.0000000E+000	0.0000000E+000	-71.201	0.0000000E+000	0.0000000E+000	0.0000000E+000	-18.799	0.0000000E+000	0.0000000E+000	0.0000000E+000	18.799	2.93764	71.201	-0.000151237	-5.78904e-07	1.65248e-10	-5.79069e-07	0.279079	134463	38.3823	134501

File: 18219_R279_UA654_SOC00_C05_C06.mpt
EC-Lab ASCII FILE
Nb header lines : 65

Potentio Electrochemical Impedance Spectroscopy

Run on channel : 6 (SN 65795)
User :
CE vs. WE compliance from -10 V to 10 V
Electrode connection : standard
Potential control : Ewe
Ewe ctrl range : min = -10.00 V, max = 10.00 V
Safety Limits :
	Do not start on E overload
Acquisition started on : 10/08/2025 08:31:30.007
Technique started on : 10/08/2025 08:31:31.733
Loaded Setting File :  C:\Users\Celltest\OneDrive - store-dot.com\Documents\EC-Lab\Data\@Biologic Test Protocols\anode half cell EIS SOC00.mps
Saved on :
	File : 18219_R279_UA654_SOC00_C05_C06.mpr
	Directory : C:\Users\Celltest\OneDrive - store-dot.com\Documents\EC-Lab\Data\Charmaine\
	Host : 169.254.61.224
Device : VMP-3e (SN .003165)
Address : USB
EC-LAB for windows v11.62 (software)
Internet server v27.00 (firmware)
Command interpretor v12.03 (firmware)
Electrode material :
Initial state :
Electrolyte :
Comments :
Electrode surface area : 0.001 cm²
Characteristic mass : 0.001 g
Equivalent Weight : 0.000 g/eq.
Density : 0.000 g/cm3
Volume (V) : 0.001 cm³
Record Ece
Cycle Definition : Charge/Discharge alternance
Mode                Single sine
E (V)               0.0000
vs.                 Eoc
tE (h:m:s)          0:00:0.0000
record              0
dI                  0.000
unit dI             mA
dt (s)              0.000
fi                  100.000
unit fi             kHz
ff                  10.000
unit ff             mHz
Nd                  6
Points              per decade
spacing             Logarithmic
Va (mV)             5.0
pw                  0.10
Na                  2
corr                0
E range min (V)     -10.000
E range max (V)     10.000
I Range             Auto
Bandwidth           5
nc cycles           0
goto Ns'            0
nr cycles           0
inc. cycle          0

freq/Hz	Re(Z)/Ohm	-Im(Z)/Ohm	|Z|/Ohm	Phase(Z)/deg	time/s	<Ewe>/V	<I>/mA	Cs/µF	Cp/µF	cycle number	I Range	|Ewe|/V	|I|/A	Ns	(Q-Qo)/mA.h	<Ece>/V	|Ece|/V	Phase(Zce)/deg	|Zce|/Ohm	Re(Zce)/Ohm	-Im(Zce)/Ohm	Phase(Zwe-ce)/deg	|Zwe-ce|/Ohm	Re(Zwe-ce)/Ohm	-Im(Zwe-ce)/Ohm	Re(Y)/Ohm-1	Im(Y)/Ohm-1	|Y|/Ohm-1	Phase(Y)/deg	Re(C)/nF	Im(C)/nF	|C|/nF	Phase(C)/deg	Re(M)	Im(M)	|M|	Phase(M)/deg	Re(Permittivity)	Im(Permittivity)	|Permittivity|	Phase(Permittivity)/deg	Re(Resistivity)/Ohm.cm	Im(Resistivity)/Ohm.cm	|Resistivity|/Ohm.cm	Phase(Resistivity)/deg	Re(Conductivity)/mS/cm	Im(Conductivity)/mS/cm	|Conductivity|/mS/cm	Phase(Conductivity)/deg	Tan(Delta)	Loss Angle(Delta)/deg	dq/mA.h	Pwe/W	Pce/W	Pwe-ce/W	<Ewe-Ece>/V	Rwe/Ohm	Rce/Ohm	Rwe-ce/Ohm		Ewe-Ece/V
100004	1.0046	0.212526	1.02684	-11.9449	1.72554	0.290325	0.0326242	7.48846	0.320783	1	9	0.00469491	0.0045722	0	5.61104e-06	0.000249062	5.26626e-05	83.7928	0.011518	0.00124537	-0.0114505	-11.3047	1.02575	1.00585	0.201075	0.952776	0.201561	0.973863	11.9449	320.783	1516.33	1549.89	-78.0551	0.0000000E+000	0.0000000E+000	0.0000000E+000	78.0551	0.0000000E+000	0.0000000E+000	0.0000000E+000	-78.0551	0.0000000E+000	0.0000000E+000	0.0000000E+000	-11.9449	0.0000000E+000	0.0000000E+000	0.0000000E+000	11.9449	4.72698	78.0551	5.61104e-06	9.47164e-06	8.12544e-09	9.46352e-06	0.290076	8899.07	7.63425	8891.44
31621.1	1.17224	0.3169	1.21432	-15.1276	3.12252	0.290301	0.0417877	15.8825	1.08168	1	9	0.00502685	0.00413965	0	2.37317e-05	0.000115375	9.40265e-06	27.1132	0.00227136	0.00202176	-0.00103517	-15.0557	1.216	1.17426	0.315865	0.79497	0.214911	0.823507	15.1276	1081.68	4001.23	4144.86	-74.8724	0.0000000E+000	0.0000000E+000	0.0000000E+000	74.8724	0.0000000E+000	0.0000000E+000	0.0000000E+000	-74.8724	0.0000000E+000	0.0000000E+000	0.0000000E+000	-15.1276	0.0000000E+000	0.0000000E+000	0.0000000E+000	15.1276	3.69908	74.8724	7.63624e-06	1.2131e-05	4.82127e-09	1.21262e-05	0.290186	6947.05	2.76099	6944.29
10002.2	1.42183	0.475295	1.49917	-18.4839	4.02557	0.290289	0.0325869	33.478	3.36499	1	9	0.00457614	0.00305244	0	3.3511e-05	0.000229964	4.70546e-06	-57.2956	0.00154154	0.0008329	0.00129716	-18.5208	1.50037	1.42267	0.476592	0.632624	0.211476	0.667035	18.4839	3364.99	10066.3	10613.8	-71.5161	0.0000000E+000	0.0000000E+000	0.0000000E+000	71.5161	0.0000000E+000	0.0000000E+000	0.0000000E+000	-71.5161	0.0000000E+000	0.0000000E+000	0.0000000E+000	-18.4839	0.0000000E+000	0.0000000E+000	0.0000000E+000	18.4839	2.99148	71.5161	1.41347e-06	9.45962e-06	7.4938e-09	9.45213e-06	0.290059	8908.15	7.05693	8901.1
3163.08	1.78547	0.740094	1.93278	-22.5145	5.04664	0.290031	-0.129376	67.9866	9.96856	1	9	0.00483667	0.00250244	0	2.11385e-05	-0.000132899	6.46295e-06	28.6214	0.00258266	0.00226707	-0.00123715	-22.4549	1.9344	1.78773	0.738857	0.477956	0.198117	0.51739	22.5145	9968.57	24049	26033.2	-67.4855	0.0000000E+000	0.0000000E+000	0.0000000E+000	67.4855	0.0000000E+000	0.0000000E+000	0.0000000E+000	-67.4855	0.0000000E+000	0.0000000E+000	0.0000000E+000	-22.5145	0.0000000E+000	0.0000000E+000	0.0000000E+000	22.5145	2.41249	67.4855	-1.44441e-05	-3.7523e-05	1.71939e-08	-3.75402e-05	0.290163	2241.77	1.02723	2242.79
1000.32	2.27346	1.29505	2.61645	-29.6674	6.39977	0.290204	0.0166439	122.856	30.0984	1	9	0.00472323	0.00180521	0	2.86063e-05	-1.83109e-05	1.19685e-05	-35.4798	0.00662998	0.00539892	0.00384814	-29.6821	2.62304	2.27886	1.2989	0.332097	0.189174	0.382198	29.6674	30098.4	52837.9	60809.2	-60.3326	0.0000000E+000	0.0000000E+000	0.0000000E+000	60.3326	0.0000000E+000	0.0000000E+000	0.0000000E+000	-60.3326	0.0000000E+000	0.0000000E+000	0.0000000E+000	-29.6674	0.0000000E+000	0.0000000E+000	0.0000000E+000	29.6674	1.7555	60.3325	2.8406e-06	4.83012e-06	-3.04764e-10	4.83042e-06	0.290222	17436.1	1.10016	17437.2
316.316	3.21465	2.57353	4.11789	-38.6795	7.99707	0.290237	-0.0273163	195.51	76.3622	1	10	0.00473396	0.00114961	0	2.61702e-05	9.62774e-05	6.00716e-06	-1.992	0.0052254	0.00522224	0.000181634	-38.6361	4.12208	3.21987	2.57371	0.189576	0.151768	0.242843	38.6795	76362.2	95385.6	122187	-51.3205	0.0000000E+000	0.0000000E+000	0.0000000E+000	51.3205	0.0000000E+000	0.0000000E+000	0.0000000E+000	-51.3205	0.0000000E+000	0.0000000E+000	0.0000000E+000	-38.6795	0.0000000E+000	0.0000000E+000	0.0000000E+000	38.6795	1.24912	51.3205	-2.31357e-06	-7.92821e-06	-2.62994e-09	-7.92558e-06	0.290141	10625	3.52454	10621.5
100.032	5.54439	4.95431	7.43542	-41.783	9.3448	0.290246	-0.0264965	321.143	142.578	1	10	0.00466217	0.000627022	0	1.61716e-05	-7.5605e-05	4.18023e-05	-39.9098	0.0666679	0.051138	0.0427729	-41.7664	7.50205	5.59553	4.99708	0.100287	0.0896132	0.134491	41.783	142578	159560	213981	-48.217	0.0000000E+000	0.0000000E+000	0.0000000E+000	48.217	0.0000000E+000	0.0000000E+000	0.0000000E+000	-48.217	0.0000000E+000	0.0000000E+000	0.0000000E+000	-41.783	0.0000000E+000	0.0000000E+000	0.0000000E+000	41.783	1.11911	48.217	-2.42257e-06	-7.69051e-06	2.00327e-09	-7.69251e-06	0.290322	10954.1	2.85339	10957
[...]
1.00006	21.1015	2.3375	21.2306	-6.32111	19.4098	0.29024	-0.0112881	68083.4	825.317	1	12	0.00469085	0.000220948	0	-2.93304e-05	0.000401846	2.82247e-06	34.9156	0.0127743	0.0104749	-0.00731164	-6.2984	21.2402	21.112	2.33019	0.0468156	0.00518595	0.0471019	6.32111	825316	7.45045e+06	7.49602e+06	-83.6789	0.0000000E+000	0.0000000E+000	0.0000000E+000	83.6789	0.0000000E+000	0.0000000E+000	0.0000000E+000	-83.6789	0.0000000E+000	0.0000000E+000	0.0000000E+000	-6.32111	0.0000000E+000	0.0000000E+000	0.0000000E+000	6.32111	9.02738	83.6789	-1.03917e-05	-3.27626e-06	-4.53608e-09	-3.27172e-06	0.289838	25712	35.5991	25676.4
0.316193	22.6268	2.25974	22.7394	-5.70323	33.7528	0.290247	-0.00862516	222745	2199.73	1	12	0.00469367	0.000206411	0	-3.42371e-05	0.000115375	1.93787e-06	9.63222	0.00938839	0.00925604	-0.0015709	-5.69697	22.7484	22.6361	2.25817	0.0437589	0.00437021	0.0439766	5.70323	2.19973e+06	2.20259e+07	2.21355e+07	-84.2968	0.0000000E+000	0.0000000E+000	0.0000000E+000	84.2968	0.0000000E+000	0.0000000E+000	0.0000000E+000	-84.2968	0.0000000E+000	0.0000000E+000	0.0000000E+000	-5.70323	0.0000000E+000	0.0000000E+000	0.0000000E+000	5.70323	10.013	84.2968	-3.39221e-06	-2.50343e-06	-9.95132e-10	-2.50244e-06	0.290132	33651.2	13.3766	33637.9
0.0999041	24.025	2.44273	24.1489	-5.80555	78.9609	0.290243	-0.00412193	652172	6672.94	1	12	0.0046916	0.000194278	0	-0.000172035	0.000611924	2.2305e-06	0.944742	0.011481	0.0114794	-0.0001893	-5.80235	24.1603	24.0365	2.44254	0.0411974	0.00418871	0.0414098	5.80555	6.67294e+06	6.56306e+07	6.5969e+07	-84.1944	0.0000000E+000	0.0000000E+000	0.0000000E+000	84.1944	0.0000000E+000	0.0000000E+000	0.0000000E+000	-84.1944	0.0000000E+000	0.0000000E+000	0.0000000E+000	-5.80555	0.0000000E+000	0.0000000E+000	0.0000000E+000	5.80555	9.83533	84.1944	-7.7621e-05	-1.19636e-06	-2.52231e-09	-1.19384e-06	0.289631	70414.2	148.456	70265.8
0.0315922	25.3372	4.0709	25.6621	-9.12764	221.844	0.290243	-0.00374643	1.23751e+06	31141.9	1	12	0.004692	0.000182838	0	-0.000444275	7.87179e-07	1.89407e-06	61.8297	0.0103593	0.00489056	-0.0091322	-9.10577	25.6655	25.3421	4.06176	0.0384745	0.00618165	0.0389679	9.12764	3.11419e+07	1.93826e+08	1.96312e+08	-80.8724	0.0000000E+000	0.0000000E+000	0.0000000E+000	80.8724	0.0000000E+000	0.0000000E+000	0.0000000E+000	-80.8724	0.0000000E+000	0.0000000E+000	0.0000000E+000	-9.12764	0.0000000E+000	0.0000000E+000	0.0000000E+000	9.12764	6.22398	80.8724	-5.92108e-05	-1.08738e-06	-2.94911e-12	-1.08737e-06	0.290242	77471.8	0.210114	77471.6
0.0100092	27.5816	8.91321	28.986	-17.9086	673.067	0.290234	-0.000510826	1.78397e+06	168686	1	12	0.0046912	0.000161843	0	0.00025115	0.00036365	3.74759e-06	-59.3859	0.0231556	0.0117921	0.0199281	-17.9389	29.0034	27.5934	8.93314	0.0328278	0.0106086	0.0344994	17.9086	1.68686e+08	5.21992e+08	5.48571e+08	-72.0914	0.0000000E+000	0.0000000E+000	0.0000000E+000	72.0914	0.0000000E+000	0.0000000E+000	0.0000000E+000	-72.0914	0.0000000E+000	0.0000000E+000	0.0000000E+000	-17.9086	0.0000000E+000	0.0000000E+000	0.0000000E+000	17.9086	3.09447	72.0914	0.00036316	-1.48259e-07	-1.85762e-10	-1.48073e-07	0.289871	568167	711.886	567455