Folder: EIS/txt (part 123)

File: 18733_R302_UA700_SOC00_C03.mpt
EC-Lab ASCII FILE
Nb header lines : 65

Potentio Electrochemical Impedance Spectroscopy

Run on channel : 3 (SN 65921)
User :
CE vs. WE compliance from -10 V to 10 V
Electrode connection : standard
Potential control : Ewe
Ewe ctrl range : min = -10.00 V, max = 10.00 V
Safety Limits :
	Do not start on E overload
Acquisition started on : 10/31/2025 11:54:21.647
Technique started on : 10/31/2025 11:54:23.558
Loaded Setting File :  C:\Users\Celltest\OneDrive - store-dot.com\Documents\EC-Lab\Data\@Biologic Test Protocols\anode half cell EIS SOC00.mps
Saved on :
	File : 18733_R302_UA700_SOC00_C03.mpr
	Directory : C:\Users\Celltest\OneDrive - store-dot.com\Documents\EC-Lab\Data\Charmaine\
	Host : 169.254.61.224
Device : VMP-3e (SN .003165)
Address : USB
EC-LAB for windows v11.62 (software)
Internet server v27.00 (firmware)
Command interpretor v12.03 (firmware)
Electrode material :
Initial state :
Electrolyte :
Comments :
Electrode surface area : 0.001 cm²
Characteristic mass : 0.001 g
Equivalent Weight : 0.000 g/eq.
Density : 0.000 g/cm3
Volume (V) : 0.001 cm³
Record Ece
Cycle Definition : Charge/Discharge alternance
Mode                Single sine
E (V)               0.0000
vs.                 Eoc
tE (h:m:s)          0:00:0.0000
record              0
dI                  0.000
unit dI             mA
dt (s)              0.000
fi                  100.000
unit fi             kHz
ff                  10.000
unit ff             mHz
Nd                  6
Points              per decade
spacing             Logarithmic
Va (mV)             5.0
pw                  0.10
Na                  2
corr                0
E range min (V)     -10.000
E range max (V)     10.000
I Range             Auto
Bandwidth           5
nc cycles           0
goto Ns'            0
nr cycles           0
inc. cycle          0

freq/Hz	Re(Z)/Ohm	-Im(Z)/Ohm	|Z|/Ohm	Phase(Z)/deg	time/s	<Ewe>/V	<I>/mA	Cs/µF	Cp/µF	cycle number	I Range	|Ewe|/V	|I|/A	Ns	(Q-Qo)/mA.h	<Ece>/V	|Ece|/V	Phase(Zce)/deg	|Zce|/Ohm	Re(Zce)/Ohm	-Im(Zce)/Ohm	Phase(Zwe-ce)/deg	|Zwe-ce|/Ohm	Re(Zwe-ce)/Ohm	-Im(Zwe-ce)/Ohm	Re(Y)/Ohm-1	Im(Y)/Ohm-1	|Y|/Ohm-1	Phase(Y)/deg	Re(C)/nF	Im(C)/nF	|C|/nF	Phase(C)/deg	Re(M)	Im(M)	|M|	Phase(M)/deg	Re(Permittivity)	Im(Permittivity)	|Permittivity|	Phase(Permittivity)/deg	Re(Resistivity)/Ohm.cm	Im(Resistivity)/Ohm.cm	|Resistivity|/Ohm.cm	Phase(Resistivity)/deg	Re(Conductivity)/mS/cm	Im(Conductivity)/mS/cm	|Conductivity|/mS/cm	Phase(Conductivity)/deg	Tan(Delta)	Loss Angle(Delta)/deg	dq/mA.h	Pwe/W	Pce/W	Pwe-ce/W	<Ewe-Ece>/V	Rwe/Ohm	Rce/Ohm	Rwe-ce/Ohm		Ewe-Ece/V
100004	1.36762	0.657701	1.51754	-25.6834	1.91052	0.262695	0.0102121	2.41978	0.454516	1	9	0.00466212	0.00307215	0	4.96619e-06	-8.05151e-05	3.14266e-05	92.7005	0.0102295	-0.000481959	-0.0102182	-25.3425	1.51271	1.36713	0.647483	0.593856	0.285592	0.658959	25.6834	454.516	945.115	1048.73	-64.3166	0.0000000E+000	0.0000000E+000	0.0000000E+000	64.3166	0.0000000E+000	0.0000000E+000	0.0000000E+000	-64.3166	0.0000000E+000	0.0000000E+000	0.0000000E+000	-25.6834	0.0000000E+000	0.0000000E+000	0.0000000E+000	25.6834	2.07939	64.3166	4.96619e-06	2.68266e-06	-8.22224e-10	2.68348e-06	0.262776	25724	7.88432	25731.9
31621.1	1.97645	0.985036	2.20832	-26.491	3.43156	0.262691	0.0107341	5.10965	1.01665	1	9	0.00514612	0.00233034	0	1.48595e-05	7.22374e-05	7.50612e-06	-24.7371	0.00322105	0.00292548	0.00134787	-26.4885	2.21154	1.97938	0.986383	0.405288	0.20199	0.452834	26.491	1016.65	2039.89	2279.19	-63.509	0.0000000E+000	0.0000000E+000	0.0000000E+000	63.509	0.0000000E+000	0.0000000E+000	0.0000000E+000	-63.509	0.0000000E+000	0.0000000E+000	0.0000000E+000	-26.491	0.0000000E+000	0.0000000E+000	0.0000000E+000	26.491	2.00648	63.509	7.64781e-06	2.81976e-06	7.75407e-10	2.81898e-06	0.262619	24472.5	6.72969	24465.7
10002.2	2.76851	1.30888	3.06232	-25.3035	4.58251	0.26268	0.0167011	12.157	2.22086	1	9	0.00505809	0.00165172	0	1.89718e-05	-6.1421e-05	7.91692e-06	-138.427	0.00479315	-0.00358582	0.00318059	-25.386	3.06044	2.76493	1.31206	0.295219	0.139572	0.32655	25.3035	2220.86	4697.52	5196.04	-64.6965	0.0000000E+000	0.0000000E+000	0.0000000E+000	64.6965	0.0000000E+000	0.0000000E+000	0.0000000E+000	-64.6965	0.0000000E+000	0.0000000E+000	0.0000000E+000	-25.3035	0.0000000E+000	0.0000000E+000	0.0000000E+000	25.3035	2.11518	64.6965	6.2297e-07	4.38704e-06	-1.0258e-09	4.38807e-06	0.262741	15728.3	3.67767	15732
3163.08	3.63597	1.88387	4.09502	-27.3896	5.69063	0.262585	-0.028355	26.7091	5.6526	1	10	0.00489353	0.00119499	0	1.8326e-05	-0.000195079	6.18642e-06	-64.9913	0.00517695	0.00218859	0.00469158	-27.4338	4.09913	3.63815	1.88856	0.216824	0.112341	0.244199	27.3896	5652.6	10909.8	12287.2	-62.6104	0.0000000E+000	0.0000000E+000	0.0000000E+000	62.6104	0.0000000E+000	0.0000000E+000	0.0000000E+000	-62.6104	0.0000000E+000	0.0000000E+000	0.0000000E+000	-27.3896	0.0000000E+000	0.0000000E+000	0.0000000E+000	27.3896	1.93005	62.6104	-2.48807e-06	-7.4456e-06	5.53149e-09	-7.45113e-06	0.26278	9260.61	6.87989	9267.49
1000.32	4.81282	3.36229	5.87096	-34.9386	7.04377	0.262628	-0.010173	47.3201	15.5202	1	10	0.00469325	0.0007994	0	1.43503e-05	-0.000233268	6.60794e-06	3.36595	0.00826613	0.00825187	-0.00048533	-34.8886	5.87745	4.82107	3.3618	0.139631	0.0975475	0.17033	34.9386	15520.2	22215.8	27100.1	-55.0614	0.0000000E+000	0.0000000E+000	0.0000000E+000	55.0614	0.0000000E+000	0.0000000E+000	0.0000000E+000	-55.0614	0.0000000E+000	0.0000000E+000	0.0000000E+000	-34.9386	0.0000000E+000	0.0000000E+000	0.0000000E+000	34.9386	1.43141	55.0614	-1.64708e-06	-2.67172e-06	2.37304e-09	-2.67409e-06	0.262861	25816.1	22.93	25839.1
316.316	7.1672	7.06752	10.0657	-44.5988	8.39304	0.262622	-0.0100723	71.1921	35.0976	1	10	0.0046178	0.000458765	0	1.07761e-05	-0.000233268	3.9217e-06	4.31806	0.00854838	0.00852411	-0.000643634	-44.5622	10.0713	7.17572	7.06688	0.0707392	0.0697554	0.0993472	44.5988	35097.6	35592.6	49986.7	-45.4012	0.0000000E+000	0.0000000E+000	0.0000000E+000	45.4012	0.0000000E+000	0.0000000E+000	0.0000000E+000	-45.4012	0.0000000E+000	0.0000000E+000	0.0000000E+000	-44.5988	0.0000000E+000	0.0000000E+000	0.0000000E+000	44.5988	1.0141	45.4012	-1.33911e-06	-2.64522e-06	2.34955e-09	-2.64757e-06	0.262856	26073.6	23.1592	26096.8
100.032	14.4721	13.9949	20.132	-44.0395	9.74084	0.262611	-0.00931166	113.687	54.9383	1	10	0.00460607	0.000228793	0	7.70241e-06	-0.000271456	5.04879e-06	12.361	0.022067	0.0215555	-0.00472391	-43.9872	20.1442	14.4937	13.9901	0.0357073	0.0345298	0.0496721	44.0395	54938.3	56811.8	79030.4	-45.9605	0.0000000E+000	0.0000000E+000	0.0000000E+000	45.9605	0.0000000E+000	0.0000000E+000	0.0000000E+000	-45.9605	0.0000000E+000	0.0000000E+000	0.0000000E+000	-44.0395	0.0000000E+000	0.0000000E+000	0.0000000E+000	44.0395	1.0341	45.9605	-1.40583e-06	-2.44534e-06	2.5277e-09	-2.44787e-06	0.262882	28202.3	29.1522	28231.5
[...]
1.00006	50.5266	4.79613	50.7538	-5.42243	19.4907	0.26267	-0.00443693	33181.9	296.31	1	12	0.00460105	9.06543e-05	0	-7.65839e-06	0.00012952	3.69816e-06	33.2696	0.0407941	0.0341079	-0.0223788	-5.39365	50.7856	50.5607	4.77375	0.0196148	0.00186189	0.019703	5.42243	296310	3.12159e+06	3.13563e+06	-84.5776	0.0000000E+000	0.0000000E+000	0.0000000E+000	84.5776	0.0000000E+000	0.0000000E+000	0.0000000E+000	-84.5776	0.0000000E+000	0.0000000E+000	0.0000000E+000	-5.42243	0.0000000E+000	0.0000000E+000	0.0000000E+000	5.42243	10.5349	84.5776	-1.57987e-06	-1.16545e-06	-5.7467e-10	-1.16488e-06	0.262541	59200.9	29.1913	59171.7
0.316193	53.5584	4.86541	53.7789	-5.19068	33.8338	0.262669	-0.00342455	103454	846.765	1	12	0.00460275	8.55865e-05	0	-1.0125e-05	-2.32329e-05	3.09797e-06	19.1081	0.036197	0.0342026	-0.0118491	-5.17482	53.8119	53.5926	4.85356	0.0185184	0.00168227	0.0185946	5.19068	846764	9.32118e+06	9.35956e+06	-84.8093	0.0000000E+000	0.0000000E+000	0.0000000E+000	84.8093	0.0000000E+000	0.0000000E+000	0.0000000E+000	-84.8093	0.0000000E+000	0.0000000E+000	0.0000000E+000	-5.19068	0.0000000E+000	0.0000000E+000	0.0000000E+000	5.19068	11.008	84.8093	-2.44039e-06	-8.99522e-07	7.95621e-11	-8.99602e-07	0.262692	76701.8	6.78422	76708.6
0.0999041	57.1388	6.19594	57.4737	-6.18878	79.0416	0.262678	-0.00178886	257116	2988.17	1	12	0.00460301	8.0089e-05	0	-7.54497e-05	0.00012952	2.08184e-06	-36.7138	0.025994	0.0208376	0.0155397	-6.20194	57.4961	57.1596	6.21148	0.0172979	0.00187572	0.0173993	6.18878	2.98817e+06	2.75568e+07	2.77184e+07	-83.8112	0.0000000E+000	0.0000000E+000	0.0000000E+000	83.8112	0.0000000E+000	0.0000000E+000	0.0000000E+000	-83.8112	0.0000000E+000	0.0000000E+000	0.0000000E+000	-6.18878	0.0000000E+000	0.0000000E+000	0.0000000E+000	6.18878	9.22197	83.8112	-3.4113e-05	-4.69895e-07	-2.31693e-10	-4.69663e-07	0.262549	146841	72.4034	146769
0.0315922	61.9969	10.5779	62.8928	-9.68259	221.926	0.262669	-0.00167761	476255	13472.2	1	12	0.00460115	7.31586e-05	0	-0.000167603	-0.000118703	8.85304e-07	22.3692	0.0121012	0.0111906	-0.00460538	-9.67674	62.9031	62.0081	10.5733	0.0156736	0.00267423	0.0159001	9.68259	1.34722e+07	7.89601e+07	8.01012e+07	-80.3174	0.0000000E+000	0.0000000E+000	0.0000000E+000	80.3174	0.0000000E+000	0.0000000E+000	0.0000000E+000	-80.3174	0.0000000E+000	0.0000000E+000	0.0000000E+000	-9.68259	0.0000000E+000	0.0000000E+000	0.0000000E+000	9.68259	5.86097	80.3174	-1.14423e-05	-4.40656e-07	1.99138e-10	-4.40855e-07	0.262788	156573	70.7573	156644
0.0100092	69.539	20.9258	72.6193	-16.7477	673.148	0.262666	-0.000247104	759870	63095.9	1	12	0.00460291	6.33841e-05	0	7.81297e-05	-6.1421e-05	2.41778e-06	-33.0926	0.0381448	0.0319573	0.0208269	-16.7562	72.6559	69.5709	20.9467	0.0131863	0.00396807	0.0137704	16.7477	6.30959e+07	2.09675e+08	2.18963e+08	-73.2523	0.0000000E+000	0.0000000E+000	0.0000000E+000	73.2523	0.0000000E+000	0.0000000E+000	0.0000000E+000	-73.2523	0.0000000E+000	0.0000000E+000	0.0000000E+000	-16.7477	0.0000000E+000	0.0000000E+000	0.0000000E+000	16.7477	3.32312	73.2523	0.000108537	-6.49058e-08	1.51774e-11	-6.49209e-08	0.262727	1.06298e+06	248.564	1.06323e+06

File: 18734_R302_UA700_SOC00_C04.mpt
EC-Lab ASCII FILE
Nb header lines : 65

Potentio Electrochemical Impedance Spectroscopy

Run on channel : 4 (SN 66756)
User :
CE vs. WE compliance from -10 V to 10 V
Electrode connection : standard
Potential control : Ewe
Ewe ctrl range : min = -10.00 V, max = 10.00 V
Safety Limits :
	Do not start on E overload
Acquisition started on : 10/31/2025 11:54:27.375
Technique started on : 10/31/2025 11:54:29.297
Loaded Setting File :  C:\Users\Celltest\OneDrive - store-dot.com\Documents\EC-Lab\Data\@Biologic Test Protocols\anode half cell EIS SOC00.mps
Saved on :
	File : 18734_R302_UA700_SOC00_C04.mpr
	Directory : C:\Users\Celltest\OneDrive - store-dot.com\Documents\EC-Lab\Data\Charmaine\
	Host : 169.254.61.224
Device : VMP-3e (SN .003165)
Address : USB
EC-LAB for windows v11.62 (software)
Internet server v27.00 (firmware)
Command interpretor v12.03 (firmware)
Electrode material :
Initial state :
Electrolyte :
Comments :
Electrode surface area : 0.001 cm²
Characteristic mass : 0.001 g
Equivalent Weight : 0.000 g/eq.
Density : 0.000 g/cm3
Volume (V) : 0.001 cm³
Record Ece
Cycle Definition : Charge/Discharge alternance
Mode                Single sine
E (V)               0.0000
vs.                 Eoc
tE (h:m:s)          0:00:0.0000
record              0
dI                  0.000
unit dI             mA
dt (s)              0.000
fi                  100.000
unit fi             kHz
ff                  10.000
unit ff             mHz
Nd                  6
Points              per decade
spacing             Logarithmic
Va (mV)             5.0
pw                  0.10
Na                  2
corr                0
E range min (V)     -10.000
E range max (V)     10.000
I Range             Auto
Bandwidth           5
nc cycles           0
goto Ns'            0
nr cycles           0
inc. cycle          0

freq/Hz	Re(Z)/Ohm	-Im(Z)/Ohm	|Z|/Ohm	Phase(Z)/deg	time/s	<Ewe>/V	<I>/mA	Cs/µF	Cp/µF	cycle number	I Range	|Ewe|/V	|I|/A	Ns	(Q-Qo)/mA.h	<Ece>/V	|Ece|/V	Phase(Zce)/deg	|Zce|/Ohm	Re(Zce)/Ohm	-Im(Zce)/Ohm	Phase(Zwe-ce)/deg	|Zwe-ce|/Ohm	Re(Zwe-ce)/Ohm	-Im(Zwe-ce)/Ohm	Re(Y)/Ohm-1	Im(Y)/Ohm-1	|Y|/Ohm-1	Phase(Y)/deg	Re(C)/nF	Im(C)/nF	|C|/nF	Phase(C)/deg	Re(M)	Im(M)	|M|	Phase(M)/deg	Re(Permittivity)	Im(Permittivity)	|Permittivity|	Phase(Permittivity)/deg	Re(Resistivity)/Ohm.cm	Im(Resistivity)/Ohm.cm	|Resistivity|/Ohm.cm	Phase(Resistivity)/deg	Re(Conductivity)/mS/cm	Im(Conductivity)/mS/cm	|Conductivity|/mS/cm	Phase(Conductivity)/deg	Tan(Delta)	Loss Angle(Delta)/deg	dq/mA.h	Pwe/W	Pce/W	Pwe-ce/W	<Ewe-Ece>/V	Rwe/Ohm	Rce/Ohm	Rwe-ce/Ohm		Ewe-Ece/V
100004	1.59529	0.566599	1.69293	-19.5535	1.92154	0.259904	-0.00487124	2.80885	0.314632	1	9	0.00482473	0.00284993	0	-5.86318e-06	0.000156488	2.67822e-05	58.304	0.00939748	0.00493756	-0.00799582	-19.2429	1.69493	1.60023	0.558603	0.556628	0.197697	0.590693	19.5535	314.633	885.868	940.082	-70.4465	0.0000000E+000	0.0000000E+000	0.0000000E+000	70.4465	0.0000000E+000	0.0000000E+000	0.0000000E+000	-70.4465	0.0000000E+000	0.0000000E+000	0.0000000E+000	-19.5535	0.0000000E+000	0.0000000E+000	0.0000000E+000	19.5535	2.81556	70.4465	-5.86318e-06	-1.26605e-06	-7.62291e-10	-1.26529e-06	0.259747	53354.7	32.1248	53322.6
31621.1	2.11069	0.91587	2.30083	-23.457	3.44453	0.259873	-0.0217669	5.49552	0.870775	1	9	0.00507533	0.00220587	0	-2.14214e-05	3.60827e-06	1.86087e-05	12.7102	0.008436	0.00822928	-0.00185609	-23.3334	2.30765	2.11892	0.914014	0.398707	0.173007	0.434625	23.457	870.776	2006.77	2187.55	-66.543	0.0000000E+000	0.0000000E+000	0.0000000E+000	66.543	0.0000000E+000	0.0000000E+000	0.0000000E+000	-66.543	0.0000000E+000	0.0000000E+000	0.0000000E+000	-23.457	0.0000000E+000	0.0000000E+000	0.0000000E+000	23.457	2.30457	66.543	-1.70813e-06	-5.65664e-06	-7.8541e-11	-5.65656e-06	0.259869	11938.9	0.165768	11938.7
10002.2	2.81146	1.20577	3.05911	-23.2135	4.71755	0.259878	-0.0178134	13.1965	2.05021	1	9	0.00546078	0.00178509	0	-3.38595e-05	-7.28316e-05	4.25697e-06	-53.7356	0.00238474	0.0014106	0.0019228	-23.2361	3.06117	2.81287	1.2077	0.300428	0.128847	0.326892	23.2135	2050.21	4780.4	5201.49	-66.7865	0.0000000E+000	0.0000000E+000	0.0000000E+000	66.7865	0.0000000E+000	0.0000000E+000	0.0000000E+000	-66.7865	0.0000000E+000	0.0000000E+000	0.0000000E+000	-23.2135	0.0000000E+000	0.0000000E+000	0.0000000E+000	23.2135	2.33166	66.7865	-1.60977e-06	-4.62932e-06	1.29738e-09	-4.63062e-06	0.259951	14588.9	4.08857	14593
3163.08	3.63613	1.7884	4.05214	-26.1898	6.25466	0.259869	-0.0071194	28.135	5.48031	1	10	0.00502042	0.00123895	0	-5.11879e-05	-0.000130161	2.80171e-06	9.81428	0.00226135	0.00222826	-0.000385459	-26.171	4.05397	3.63836	1.78801	0.221448	0.108917	0.246783	26.1898	5480.31	11142.5	12417.3	-63.8102	0.0000000E+000	0.0000000E+000	0.0000000E+000	63.8102	0.0000000E+000	0.0000000E+000	0.0000000E+000	-63.8102	0.0000000E+000	0.0000000E+000	0.0000000E+000	-26.1898	0.0000000E+000	0.0000000E+000	0.0000000E+000	26.1898	2.03318	63.8102	-4.97516e-06	-1.85011e-06	9.26672e-10	-1.85104e-06	0.259999	36501.5	18.2826	36519.8
1000.32	4.73051	3.23484	5.73079	-34.3653	7.82185	0.25988	-0.00632116	49.1845	15.6713	1	10	0.00489669	0.000854453	0	-5.44189e-05	0.000118268	1.02288e-05	83.0257	0.0119711	0.00145359	-0.0118825	-34.259	5.72529	4.73196	3.22296	0.144039	0.0984974	0.174496	34.3653	15671.3	22917.1	27763	-55.6347	0.0000000E+000	0.0000000E+000	0.0000000E+000	55.6347	0.0000000E+000	0.0000000E+000	0.0000000E+000	-55.6347	0.0000000E+000	0.0000000E+000	0.0000000E+000	-34.3653	0.0000000E+000	0.0000000E+000	0.0000000E+000	34.3653	1.46236	55.6347	-1.45311e-06	-1.64274e-06	-7.4759e-10	-1.64199e-06	0.259761	41112.7	18.7099	41094
316.316	7.01278	6.88202	9.82554	-44.4608	9.17203	0.259875	-0.00689189	73.1111	35.8676	1	10	0.00458867	0.000467014	0	-5.65531e-05	-0.000206601	7.01183e-06	-6.86143	0.0150142	0.0149066	0.00179372	-44.4075	9.83744	7.02768	6.88381	0.0726402	0.0712858	0.101776	44.4608	35867.6	36549.1	51208.6	-45.5392	0.0000000E+000	0.0000000E+000	0.0000000E+000	45.5392	0.0000000E+000	0.0000000E+000	0.0000000E+000	-45.5392	0.0000000E+000	0.0000000E+000	0.0000000E+000	-44.4608	0.0000000E+000	0.0000000E+000	0.0000000E+000	44.4608	1.019	45.5392	-5.91747e-07	-1.79103e-06	1.42387e-09	-1.79245e-06	0.260081	37707.3	29.9774	37737.3
100.032	14.1311	13.6084	19.6183	-43.9206	10.7338	0.259883	-0.00705229	116.916	56.2559	1	10	0.00499568	0.000254645	0	-5.99225e-05	-0.000206601	5.06226e-06	23.654	0.0198797	0.0182095	-0.007976	-43.867	19.6258	14.1493	13.6004	0.0367159	0.0353579	0.0509729	43.9206	56255.9	58416.5	81100	-46.0794	0.0000000E+000	0.0000000E+000	0.0000000E+000	46.0794	0.0000000E+000	0.0000000E+000	0.0000000E+000	-46.0794	0.0000000E+000	0.0000000E+000	0.0000000E+000	-43.9206	0.0000000E+000	0.0000000E+000	0.0000000E+000	43.9206	1.03841	46.0794	-9.52229e-07	-1.83277e-06	1.45701e-09	-1.83423e-06	0.26009	36850.8	29.2956	36880.1
[...]
1.00006	48.3273	4.4791	48.5344	-5.2952	20.4828	0.259887	-0.00186927	35530.5	302.611	1	12	0.00498743	0.000102761	0	-7.04821e-05	-0.000206601	3.28445e-06	48.7189	0.0319621	0.0210871	-0.0240189	-5.26468	48.5532	48.3484	4.45508	0.020516	0.00190148	0.0206039	5.2952	302610	3.26502e+06	3.27901e+06	-84.7048	0.0000000E+000	0.0000000E+000	0.0000000E+000	84.7048	0.0000000E+000	0.0000000E+000	0.0000000E+000	-84.7048	0.0000000E+000	0.0000000E+000	0.0000000E+000	-5.2952	0.0000000E+000	0.0000000E+000	0.0000000E+000	5.2952	10.7895	84.7048	-1.78855e-06	-4.85799e-07	3.86194e-10	-4.86185e-07	0.260094	139031	110.525	139142
0.316193	51.0932	4.68211	51.3073	-5.23588	34.826	0.259887	-0.00167732	107504	895.265	1	12	0.00498517	9.71629e-05	0	-6.14152e-05	9.9158e-05	2.033e-06	15.0669	0.0209237	0.0202044	-0.00543905	-5.22778	51.3269	51.1134	4.67667	0.0194091	0.00177862	0.0194904	5.23588	895265	9.76951e+06	9.81044e+06	-84.7641	0.0000000E+000	0.0000000E+000	0.0000000E+000	84.7641	0.0000000E+000	0.0000000E+000	0.0000000E+000	-84.7641	0.0000000E+000	0.0000000E+000	0.0000000E+000	-5.23588	0.0000000E+000	0.0000000E+000	0.0000000E+000	5.23588	10.9124	84.7641	4.92491e-06	-4.35913e-07	-1.6632e-10	-4.35747e-07	0.259788	154941	59.1169	154882
0.0999041	54.5217	6.20265	54.8734	-6.49033	80.034	0.259893	-0.000412342	256838	3281.63	1	12	0.004992	9.09731e-05	0	-9.13772e-05	0.000175598	2.91159e-06	0.803123	0.032005	0.0320019	-0.000448604	-6.48609	54.9052	54.5537	6.2022	0.018107	0.00205993	0.0182238	6.49033	3.28163e+06	2.88458e+07	2.90318e+07	-83.5097	0.0000000E+000	0.0000000E+000	0.0000000E+000	83.5097	0.0000000E+000	0.0000000E+000	0.0000000E+000	-83.5097	0.0000000E+000	0.0000000E+000	0.0000000E+000	-6.49033	0.0000000E+000	0.0000000E+000	0.0000000E+000	6.49033	8.79008	83.5097	-2.39914e-05	-1.07165e-07	-7.24063e-11	-1.07092e-07	0.259717	630285	425.855	629859
0.0315922	59.2331	10.3699	60.134	-9.93012	222.918	0.259897	-0.00107425	485808	14446.9	1	12	0.00498926	8.2969e-05	0	-0.000218258	0.000213818	3.69612e-06	-9.98962	0.0445482	0.0438728	0.00772776	-9.93016	60.1785	59.277	10.3776	0.0163804	0.00286771	0.0166295	9.93012	1.44469e+07	8.2521e+07	8.37761e+07	-80.0699	0.0000000E+000	0.0000000E+000	0.0000000E+000	80.0699	0.0000000E+000	0.0000000E+000	0.0000000E+000	-80.0699	0.0000000E+000	0.0000000E+000	0.0000000E+000	-9.93012	0.0000000E+000	0.0000000E+000	0.0000000E+000	9.93012	5.71201	80.0699	-3.71639e-05	-2.79193e-07	-2.29693e-10	-2.78963e-07	0.259683	241934	199.04	241735
0.0100092	66.1545	20.6856	69.3132	-17.3637	674.142	0.259888	-0.000409814	768695	68463.4	1	12	0.0049917	7.20166e-05	0	6.27021e-05	-0.000340371	2.80689e-06	-2.45045	0.0389757	0.03894	0.00166642	-17.3555	69.3508	66.1935	20.6873	0.0137698	0.00430563	0.0144273	17.3637	6.84634e+07	2.18953e+08	2.29407e+08	-72.6363	0.0000000E+000	0.0000000E+000	0.0000000E+000	72.6363	0.0000000E+000	0.0000000E+000	0.0000000E+000	-72.6363	0.0000000E+000	0.0000000E+000	0.0000000E+000	-17.3637	0.0000000E+000	0.0000000E+000	0.0000000E+000	17.3637	3.1981	72.6363	0.000172746	-1.06506e-07	1.39489e-10	-1.06645e-07	0.260228	634160	830.55	634991