Folder: EIS/txt (part 176)

File: 19189_R297_UC94_SOC50_C06.mpt
EC-Lab ASCII FILE
Nb header lines : 65

Potentio Electrochemical Impedance Spectroscopy

Run on channel : 6 (SN 65795)
Grouped channel(s) : 5, 6, 7, 8
User :
CE vs. WE compliance from -10 V to 10 V
Electrode connection : standard
Potential control : Ewe
Ewe ctrl range : min = -10.00 V, max = 10.00 V
Safety Limits :
	Do not start on E overload
Acquisition started on : 11/11/2025 16:20:58.367
Loaded Setting File :  C:\Users\Celltest\OneDrive - store-dot.com\Documents\EC-Lab\Data\@Biologic Test Protocols\cathode half cell EIS SOC50.mps
Saved on :
	File : 19187_R297_UC94_SOC50_C06.mpr
	Directory : C:\Users\Celltest\OneDrive - store-dot.com\Documents\EC-Lab\Data\Michael\
	Host : 169.254.61.224
Device : VMP-3e (SN .003165)
Address : USB
EC-LAB for windows v11.62 (software)
Internet server v27.00 (firmware)
Command interpretor v12.03 (firmware)
Electrode material :
Initial state :
Electrolyte :
Comments :
Electrode surface area : 0.001 cm²
Characteristic mass : 0.001 g
Equivalent Weight : 0.000 g/eq.
Density : 0.000 g/cm3
Volume (V) : 0.001 cm³
Record Ece
Cycle Definition : Charge/Discharge alternance
Mode                Multi sine
E (V)               0.0000
vs.                 Eoc
tE (h:m:s)          0:00:0.0000
record              0
dI                  0.000
unit dI             mA
dt (s)              0.000
fi                  1.000
unit fi             MHz
ff                  0.100
unit ff             mHz
Nd                  10
Points              per decade
spacing             Logarithmic
Va (mV)             5.0
pw                  0.10
Na                  2
corr                0
E range min (V)     -10.000
E range max (V)     10.000
I Range             Auto
Bandwidth           5
nc cycles           0
goto Ns'            0
nr cycles           0
inc. cycle          0

freq/Hz	Re(Z)/Ohm	-Im(Z)/Ohm	|Z|/Ohm	Phase(Z)/deg	time/s	<Ewe>/V	<I>/mA	Cs/µF	Cp/µF	cycle number	I Range	|Ewe|/V	|I|/A	Ns	(Q-Qo)/mA.h	<Ece>/V	|Ece|/V	Phase(Zce)/deg	|Zce|/Ohm	Re(Zce)/Ohm	-Im(Zce)/Ohm	Phase(Zwe-ce)/deg	|Zwe-ce|/Ohm	Re(Zwe-ce)/Ohm	-Im(Zwe-ce)/Ohm	Re(Y)/Ohm-1	Im(Y)/Ohm-1	|Y|/Ohm-1	Phase(Y)/deg	Re(C)/nF	Im(C)/nF	|C|/nF	Phase(C)/deg	Re(M)	Im(M)	|M|	Phase(M)/deg	Re(Permittivity)	Im(Permittivity)	|Permittivity|	Phase(Permittivity)/deg	Re(Resistivity)/Ohm.cm	Im(Resistivity)/Ohm.cm	|Resistivity|/Ohm.cm	Phase(Resistivity)/deg	Re(Conductivity)/mS/cm	Im(Conductivity)/mS/cm	|Conductivity|/mS/cm	Phase(Conductivity)/deg	Tan(Delta)	Loss Angle(Delta)/deg	dq/mA.h	Pwe/W	Pce/W	Pwe-ce/W	<Ewe-Ece>/V	Rwe/Ohm	Rce/Ohm	Rwe-ce/Ohm		Ewe-Ece/V
1.00002e+06	2.28767	2.60568	3.46742	-48.7183	2.23452	3.87773	-0.0051098	0.0610789	0.0344922	1	10	0.000197333	5.69107e-05	0	-1.53949e-05	2.58056e-05	0.000196426	-61.7825	3.45148	1.63193	3.0413	-55.2353	6.87398	3.9196	5.64698	0.190275	0.216725	0.288399	48.7183	34.4922	30.2826	45.8993	-41.2817	0.0000000E+000	0.0000000E+000	0.0000000E+000	41.2817	0.0000000E+000	0.0000000E+000	0.0000000E+000	-41.2817	0.0000000E+000	0.0000000E+000	0.0000000E+000	-48.7183	0.0000000E+000	0.0000000E+000	0.0000000E+000	48.7183	0.877956	41.2817	-1.53949e-05	-1.98144e-05	-1.31861e-10	-1.98143e-05	3.8777	758880	5.05022	758875
251206	0.655407	0.139496	0.670088	-12.0154	4.94355	3.87754	0.0483436	4.54181	0.196828	1	9	0.0014924	0.00222717	0	1.78602e-05	-0.000184273	7.49065e-05	64.6798	0.033633	0.014384	-0.0304019	-9.25095	0.678618	0.669791	0.109094	1.45965	0.310669	1.49234	12.0154	196.828	924.778	945.492	-77.9846	0.0000000E+000	0.0000000E+000	0.0000000E+000	77.9846	0.0000000E+000	0.0000000E+000	0.0000000E+000	-77.9846	0.0000000E+000	0.0000000E+000	0.0000000E+000	-12.0154	0.0000000E+000	0.0000000E+000	0.0000000E+000	12.0154	4.6984	77.9846	7.29108e-06	0.000187454	-8.90841e-09	0.000187463	3.87772	80207.9	3.81173	80211.7
63093.8	0.927983	0.431257	1.0233	-24.9255	7.12156	3.87743	0.0360512	5.84922	1.03888	1	9	0.00530975	0.00518887	0	2.61006e-05	-5.05865e-05	3.81522e-05	73.9314	0.00735271	0.00203514	-0.00706544	-24.5182	1.02219	0.930018	0.424191	0.886212	0.411845	0.977235	24.9255	1038.88	2235.48	2465.09	-65.0745	0.0000000E+000	0.0000000E+000	0.0000000E+000	65.0745	0.0000000E+000	0.0000000E+000	0.0000000E+000	-65.0745	0.0000000E+000	0.0000000E+000	0.0000000E+000	-24.9255	0.0000000E+000	0.0000000E+000	0.0000000E+000	24.9255	2.15181	65.0745	-1.76654e-07	0.000139786	-1.82371e-09	0.000139788	3.87748	107553	1.40319	107555
15847.7	1.3958	0.738737	1.57924	-27.8904	9.42152	3.87739	0.0316557	13.5945	2.97475	1	9	0.00517675	0.00327801	0	5.35867e-05	-1.23905e-05	7.69475e-06	70.1799	0.00234738	0.000795923	-0.00220833	-27.806	1.57891	1.39659	0.736529	0.559666	0.296208	0.633218	27.8904	2974.75	5620.61	6359.27	-62.1096	0.0000000E+000	0.0000000E+000	0.0000000E+000	62.1096	0.0000000E+000	0.0000000E+000	0.0000000E+000	-62.1096	0.0000000E+000	0.0000000E+000	0.0000000E+000	-27.8904	0.0000000E+000	0.0000000E+000	0.0000000E+000	27.8904	1.88944	62.1096	5.24894e-06	0.000122741	-3.92228e-10	0.000122742	3.8774	122486	0.391414	122487
3983.6	2.15618	1.21726	2.47605	-29.4466	11.394	3.87736	0.00975264	32.8217	7.93245	1	9	0.00536234	0.00216568	0	6.47932e-05	-8.87826e-05	5.98606e-06	40.6514	0.00276405	0.00209705	-0.00180066	-29.3865	2.477	2.15828	1.21546	0.351695	0.198547	0.403869	29.4466	7932.45	14051.1	16135.6	-60.5534	0.0000000E+000	0.0000000E+000	0.0000000E+000	60.5534	0.0000000E+000	0.0000000E+000	0.0000000E+000	-60.5534	0.0000000E+000	0.0000000E+000	0.0000000E+000	-29.4466	0.0000000E+000	0.0000000E+000	0.0000000E+000	29.4466	1.77134	60.5534	7.88635e-07	3.78145e-05	-8.65865e-10	3.78154e-05	3.87745	397570	9.10344	397579
1000.32	3.39088	1.97326	3.92324	-30.1964	14.2678	3.87732	-0.039178	80.6301	20.3974	1	10	0.00502959	0.001282	0	5.64365e-05	-0.000317959	7.69138e-06	62.6722	0.00599953	0.00275426	-0.00532995	-30.1089	3.92295	3.39364	1.96793	0.220304	0.128202	0.254891	30.1964	20397.4	35051.2	40554.2	-59.8036	0.0000000E+000	0.0000000E+000	0.0000000E+000	59.8036	0.0000000E+000	0.0000000E+000	0.0000000E+000	-59.8036	0.0000000E+000	0.0000000E+000	0.0000000E+000	-30.1964	0.0000000E+000	0.0000000E+000	0.0000000E+000	30.1964	1.71842	59.8036	-3.91331e-06	-0.000151906	1.2457e-08	-0.000151918	3.87764	98966.9	8.11576	98975
251.044	5.89878	2.79118	6.52582	-25.3226	16.9681	3.87733	-0.0377097	227.134	41.5516	1	10	0.00484103	0.000741827	0	2.74075e-05	-6.96846e-05	1.05776e-05	-45.4057	0.0142589	0.0100109	0.0101537	-25.3655	6.53921	5.90879	2.80134	0.138513	0.0655418	0.153237	25.3226	41551.6	87813.6	97148.2	-64.6774	0.0000000E+000	0.0000000E+000	0.0000000E+000	64.6774	0.0000000E+000	0.0000000E+000	0.0000000E+000	-64.6774	0.0000000E+000	0.0000000E+000	0.0000000E+000	-25.3226	0.0000000E+000	0.0000000E+000	0.0000000E+000	25.3226	2.11336	64.6774	-4.51845e-06	-0.000146213	2.62779e-09	-0.000146216	3.8774	102820	1.84792	102822
[...]
0.0602816	12.1597	2.49672	12.4133	-11.6032	240.319	3.87734	-0.0283797	1.05746e+06	42778.7	1	11	0.00502165	0.000404537	0	-0.00350689	6.40017e-05	1.01218e-06	-29.1391	0.00250207	0.00218541	0.00121834	-11.6066	12.4157	12.1618	2.49794	0.0789123	0.0162029	0.0805585	11.6032	4.27787e+07	2.08343e+08	2.1269e+08	-78.3968	0.0000000E+000	0.0000000E+000	0.0000000E+000	78.3968	0.0000000E+000	0.0000000E+000	0.0000000E+000	-78.3968	0.0000000E+000	0.0000000E+000	0.0000000E+000	-11.6032	0.0000000E+000	0.0000000E+000	0.0000000E+000	11.6032	4.87025	78.3968	0.000000000000000E+000	-0.000110038	-1.81635e-09	-0.000110036	3.87728	136624	2.2552	136622
0.00796479	17.0875	4.74187	17.7332	-15.5097	20329.2	3.87734	0.000228728	4.21402e+06	301316	1	11	0.00501588	0.000282853	0	-0.0332805	-0.000165175	3.99183e-07	-162.629	0.00141128	-0.00134691	0.000421348	-15.5121	17.732	17.0861	4.74229	0.0543379	0.0150791	0.0563914	15.5097	3.01316e+08	1.0858e+09	1.12683e+09	-74.4903	0.0000000E+000	0.0000000E+000	0.0000000E+000	74.4903	0.0000000E+000	0.0000000E+000	0.0000000E+000	-74.4903	0.0000000E+000	0.0000000E+000	0.0000000E+000	-15.5097	0.0000000E+000	0.0000000E+000	0.0000000E+000	15.5097	3.60352	74.4903	-0.0297736	8.86856e-07	-3.77801e-11	8.86893e-07	3.8775	1.69517e+07	722.145	1.69525e+07
0.0019912	20.3472	7.93286	21.8389	-21.2995	20329.2	3.87734	0.000228728	1.00757e+07	1.32945e+06	1	11	0.00503069	0.000230354	0	-0.0332805	-0.000165175	3.92348e-07	58.3578	0.00170324	0.000893542	-0.00145003	-21.2951	21.8392	20.3481	7.93141	0.0426621	0.0166329	0.0457898	21.2995	1.32945e+09	3.40995e+09	3.65995e+09	-68.7005	0.0000000E+000	0.0000000E+000	0.0000000E+000	68.7005	0.0000000E+000	0.0000000E+000	0.0000000E+000	-68.7005	0.0000000E+000	0.0000000E+000	0.0000000E+000	-21.2995	0.0000000E+000	0.0000000E+000	0.0000000E+000	21.2995	2.56493	68.7005	0.000000000000000E+000	8.86856e-07	-3.77801e-11	8.86893e-07	3.8775	1.69517e+07	722.145	1.69525e+07
0.000497799	22.1676	20.9593	30.5073	-43.3951	20329.2	3.87734	0.000228728	1.52542e+07	7.20004e+06	1	11	0.00503039	0.000164891	0	-0.0332805	-0.000165175	5.60644e-07	94.5032	0.00340008	-0.000266954	-0.00338958	-43.3908	30.5048	22.1673	20.9559	0.0238184	0.02252	0.0327791	43.3951	7.20005e+09	7.61514e+09	1.048e+10	-46.6049	0.0000000E+000	0.0000000E+000	0.0000000E+000	46.6049	0.0000000E+000	0.0000000E+000	0.0000000E+000	-46.6049	0.0000000E+000	0.0000000E+000	0.0000000E+000	-43.3951	0.0000000E+000	0.0000000E+000	0.0000000E+000	43.3951	1.05765	46.6049	0.000000000000000E+000	8.86856e-07	-3.77801e-11	8.86893e-07	3.8775	1.69517e+07	722.145	1.69525e+07
9.95598e-05	22.1017	137.384	139.15	-80.8608	20329.2	3.87734	0.000228728	1.16359e+07	1.13424e+07	1	11	0.00503655	3.61951e-05	0	-0.0332805	-0.000165175	3.91787e-06	127.707	0.108243	-0.0662034	-0.0856371	-80.8821	139.055	22.0355	137.298	0.00114146	0.00709525	0.00718648	80.8608	1.13424e+10	1.82472e+09	1.14882e+10	-9.13921	0.0000000E+000	0.0000000E+000	0.0000000E+000	9.13921	0.0000000E+000	0.0000000E+000	0.0000000E+000	-9.13921	0.0000000E+000	0.0000000E+000	0.0000000E+000	-80.8608	0.0000000E+000	0.0000000E+000	0.0000000E+000	80.8608	0.160876	9.13922	0.000000000000000E+000	8.86856e-07	-3.77801e-11	8.86893e-07	3.8775	1.69517e+07	722.145	1.69525e+07

File: 19190_R297_UC94_SOC50_C07.mpt
EC-Lab ASCII FILE
Nb header lines : 65

Potentio Electrochemical Impedance Spectroscopy

Run on channel : 7 (SN 66126)
Grouped channel(s) : 5, 6, 7, 8
User :
CE vs. WE compliance from -10 V to 10 V
Electrode connection : standard
Potential control : Ewe
Ewe ctrl range : min = -10.00 V, max = 10.00 V
Safety Limits :
	Do not start on E overload
Acquisition started on : 11/11/2025 16:20:58.367
Loaded Setting File :  C:\Users\Celltest\OneDrive - store-dot.com\Documents\EC-Lab\Data\@Biologic Test Protocols\cathode half cell EIS SOC50.mps
Saved on :
	File : 19187_R297_UC94_SOC50_C07.mpr
	Directory : C:\Users\Celltest\OneDrive - store-dot.com\Documents\EC-Lab\Data\Michael\
	Host : 169.254.61.224
Device : VMP-3e (SN .003165)
Address : USB
EC-LAB for windows v11.62 (software)
Internet server v27.00 (firmware)
Command interpretor v12.03 (firmware)
Electrode material :
Initial state :
Electrolyte :
Comments :
Electrode surface area : 0.001 cm²
Characteristic mass : 0.001 g
Equivalent Weight : 0.000 g/eq.
Density : 0.000 g/cm3
Volume (V) : 0.001 cm³
Record Ece
Cycle Definition : Charge/Discharge alternance
Mode                Multi sine
E (V)               0.0000
vs.                 Eoc
tE (h:m:s)          0:00:0.0000
record              0
dI                  0.000
unit dI             mA
dt (s)              0.000
fi                  1.000
unit fi             MHz
ff                  0.100
unit ff             mHz
Nd                  10
Points              per decade
spacing             Logarithmic
Va (mV)             5.0
pw                  0.10
Na                  2
corr                0
E range min (V)     -10.000
E range max (V)     10.000
I Range             Auto
Bandwidth           5
nc cycles           0
goto Ns'            0
nr cycles           0
inc. cycle          0

freq/Hz	Re(Z)/Ohm	-Im(Z)/Ohm	|Z|/Ohm	Phase(Z)/deg	time/s	<Ewe>/V	<I>/mA	Cs/µF	Cp/µF	cycle number	I Range	|Ewe|/V	|I|/A	Ns	(Q-Qo)/mA.h	<Ece>/V	|Ece|/V	Phase(Zce)/deg	|Zce|/Ohm	Re(Zce)/Ohm	-Im(Zce)/Ohm	Phase(Zwe-ce)/deg	|Zwe-ce|/Ohm	Re(Zwe-ce)/Ohm	-Im(Zwe-ce)/Ohm	Re(Y)/Ohm-1	Im(Y)/Ohm-1	|Y|/Ohm-1	Phase(Y)/deg	Re(C)/nF	Im(C)/nF	|C|/nF	Phase(C)/deg	Re(M)	Im(M)	|M|	Phase(M)/deg	Re(Permittivity)	Im(Permittivity)	|Permittivity|	Phase(Permittivity)/deg	Re(Resistivity)/Ohm.cm	Im(Resistivity)/Ohm.cm	|Resistivity|/Ohm.cm	Phase(Resistivity)/deg	Re(Conductivity)/mS/cm	Im(Conductivity)/mS/cm	|Conductivity|/mS/cm	Phase(Conductivity)/deg	Tan(Delta)	Loss Angle(Delta)/deg	dq/mA.h	Pwe/W	Pce/W	Pwe-ce/W	<Ewe-Ece>/V	Rwe/Ohm	Rce/Ohm	Rwe-ce/Ohm		Ewe-Ece/V
1.00002e+06	2.76187	2.6552	3.83119	-43.8719	2.23353	3.87901	-0.0451191	0.0599398	0.0287901	1	10	0.000216607	5.6538e-05	0	-2.39801e-05	7.0268e-05	0.000204231	-62.4465	3.61227	1.67095	3.20257	-52.8837	7.34597	4.43282	5.85777	0.188164	0.180897	0.261016	43.8719	28.7901	29.9467	41.5412	-46.1281	0.0000000E+000	0.0000000E+000	0.0000000E+000	46.1281	0.0000000E+000	0.0000000E+000	0.0000000E+000	-46.1281	0.0000000E+000	0.0000000E+000	0.0000000E+000	-43.8719	0.0000000E+000	0.0000000E+000	0.0000000E+000	43.8719	1.04017	46.1281	-2.39801e-05	-0.000175017	-3.17043e-09	-0.000175014	3.87894	85972.6	1.55739	85971.1
251206	0.763079	0.173218	0.782492	-12.7893	4.93956	3.87923	0.0682238	3.65761	0.179235	1	9	0.00183374	0.00234346	0	7.76007e-06	-0.000139562	5.58398e-05	91.9655	0.0238279	-0.000817241	-0.0238139	-11.0894	0.776765	0.762261	0.149404	1.24626	0.2829	1.27797	12.7893	179.235	789.586	809.674	-77.2107	0.0000000E+000	0.0000000E+000	0.0000000E+000	77.2107	0.0000000E+000	0.0000000E+000	0.0000000E+000	-77.2107	0.0000000E+000	0.0000000E+000	0.0000000E+000	-12.7893	0.0000000E+000	0.0000000E+000	0.0000000E+000	12.7893	4.40532	77.2107	6.27984e-06	0.000264656	-9.52143e-09	0.000264665	3.87936	56860.3	2.04564	56862.3
63093.8	1.04863	0.464851	1.14704	-23.9074	7.24152	3.87924	0.0646865	5.4265	0.891224	1	9	0.00531909	0.00463722	0	0.000105353	-0.000292165	4.05209e-05	73.0029	0.00873819	0.00255438	-0.0083565	-23.4737	1.14603	1.05118	0.456494	0.797007	0.353308	0.871806	23.9074	891.224	2010.46	2199.14	-66.0926	0.0000000E+000	0.0000000E+000	0.0000000E+000	66.0926	0.0000000E+000	0.0000000E+000	0.0000000E+000	-66.0926	0.0000000E+000	0.0000000E+000	0.0000000E+000	-23.9074	0.0000000E+000	0.0000000E+000	0.0000000E+000	23.9074	2.25584	66.0926	5.55632e-06	0.000250934	-1.88991e-08	0.000250953	3.87953	59969.9	4.51663	59974.4
15847.7	1.55429	0.790285	1.74366	-26.9513	9.54152	3.87924	0.0662875	12.7078	2.61044	1	9	0.00511885	0.00293569	0	0.000127377	-8.23354e-05	4.61208e-06	-32.4874	0.00157104	0.00132518	0.000843825	-26.9563	1.74523	1.55561	0.791129	0.511218	0.259932	0.573506	26.9513	2610.44	5134.06	5759.6	-63.0487	0.0000000E+000	0.0000000E+000	0.0000000E+000	63.0487	0.0000000E+000	0.0000000E+000	0.0000000E+000	-63.0487	0.0000000E+000	0.0000000E+000	0.0000000E+000	-26.9513	0.0000000E+000	0.0000000E+000	0.0000000E+000	26.9513	1.96674	63.0487	4.14479e-06	0.000257145	-5.45781e-09	0.000257151	3.87932	58521.4	1.24209	58522.6
3983.6	2.33321	1.23284	2.6389	-27.8515	11.2661	3.87914	-0.0165628	32.4068	7.07308	1	9	0.00493493	0.00187008	0	0.000144779	-0.000234939	1.3293e-05	-89.5149	0.00710825	6.01825e-05	0.007108	-27.9872	2.64228	2.33327	1.23995	0.33505	0.177037	0.378946	27.8515	7073.08	13386.1	15139.9	-62.1485	0.0000000E+000	0.0000000E+000	0.0000000E+000	62.1485	0.0000000E+000	0.0000000E+000	0.0000000E+000	-62.1485	0.0000000E+000	0.0000000E+000	0.0000000E+000	-27.8515	0.0000000E+000	0.0000000E+000	0.0000000E+000	27.8515	1.89254	62.1485	-2.10028e-06	-6.42493e-05	3.89123e-09	-6.42532e-05	3.87938	234209	14.1848	234223
1000.32	3.57963	2.13035	4.16559	-30.7582	14.1408	3.87916	-0.0335785	74.6844	19.5335	1	10	0.0047655	0.00114402	0	0.000135772	-0.000463844	1.11641e-05	4.45175	0.00975867	0.00972923	-0.000757463	-30.681	4.17356	3.58936	2.12959	0.206293	0.122772	0.240062	30.7582	19533.5	32822.1	38194.8	-59.2418	0.0000000E+000	0.0000000E+000	0.0000000E+000	59.2418	0.0000000E+000	0.0000000E+000	0.0000000E+000	-59.2418	0.0000000E+000	0.0000000E+000	0.0000000E+000	-30.7582	0.0000000E+000	0.0000000E+000	0.0000000E+000	30.7582	1.6803	59.2418	-4.46988e-06	-0.000130256	1.55752e-08	-0.000130272	3.87962	115525	13.8137	115539
251.044	6.39686	3.19687	7.15121	-26.5538	16.841	3.87916	-0.034781	198.31	39.631	1	10	0.00463533	0.000648188	0	0.000111617	-0.000254014	4.78551e-06	153.795	0.00738291	-0.00662408	-0.0032602	-26.5542	7.14382	6.39024	3.19361	0.125086	0.0625123	0.139837	26.5538	39631	79300.8	88652.4	-63.4462	0.0000000E+000	0.0000000E+000	0.0000000E+000	63.4462	0.0000000E+000	0.0000000E+000	0.0000000E+000	-63.4462	0.0000000E+000	0.0000000E+000	0.0000000E+000	-26.5538	0.0000000E+000	0.0000000E+000	0.0000000E+000	26.5538	2.00098	63.4462	-4.3322e-06	-0.000134921	8.83486e-09	-0.00013493	3.87941	111531	7.30325	111538
[...]
0.0602816	13.3181	2.5146	13.5534	-10.6921	240.164	3.87916	-0.0171766	1.04995e+06	36141.3	1	11	0.00507609	0.000374524	0	-0.00267934	-0.000387542	2.53915e-07	-110.037	0.000677968	-0.00023229	0.000636932	-10.695	13.5533	13.3179	2.51523	0.072501	0.0136889	0.073782	10.6921	3.61413e+07	1.91416e+08	1.94798e+08	-79.3079	0.0000000E+000	0.0000000E+000	0.0000000E+000	79.3079	0.0000000E+000	0.0000000E+000	0.0000000E+000	-79.3079	0.0000000E+000	0.0000000E+000	0.0000000E+000	-10.6921	0.0000000E+000	0.0000000E+000	0.0000000E+000	10.6921	5.29633	79.3079	0.000000000000000E+000	-6.66306e-05	6.65664e-09	-6.66373e-05	3.87954	225840	22.5623	225863
0.00796479	17.98	4.54627	18.5459	-14.1899	20329.1	3.87912	-0.000640609	4.39532e+06	264124	1	11	0.00507197	0.000273483	0	-0.0344273	-0.00027309	3.8446e-07	4.01647	0.00140579	0.00140234	-9.84661e-05	-14.1886	18.5472	17.9814	4.54617	0.0522752	0.0132179	0.0539204	14.1899	2.64124e+08	1.04458e+09	1.07745e+09	-75.8101	0.0000000E+000	0.0000000E+000	0.0000000E+000	75.8101	0.0000000E+000	0.0000000E+000	0.0000000E+000	-75.8101	0.0000000E+000	0.0000000E+000	0.0000000E+000	-14.1899	0.0000000E+000	0.0000000E+000	0.0000000E+000	14.1899	3.95489	75.8101	-0.0317479	-2.485e-06	1.74944e-10	-2.48517e-06	3.87939	6.05536e+06	426.297	6.05579e+06
0.0019912	20.8337	8.04855	22.3344	-21.1227	20329.1	3.87912	-0.000640609	9.93089e+06	1.28967e+06	1	11	0.00508068	0.000227483	0	-0.0344273	-0.00027309	1.01957e-06	-78.0504	0.00448198	0.000927998	0.00438486	-21.1323	22.3368	20.8347	8.05294	0.0417657	0.0161351	0.0447741	21.1227	1.28967e+09	3.33831e+09	3.57876e+09	-68.8773	0.0000000E+000	0.0000000E+000	0.0000000E+000	68.8773	0.0000000E+000	0.0000000E+000	0.0000000E+000	-68.8773	0.0000000E+000	0.0000000E+000	0.0000000E+000	-21.1227	0.0000000E+000	0.0000000E+000	0.0000000E+000	21.1227	2.58851	68.8773	0.000000000000000E+000	-2.485e-06	1.74944e-10	-2.48517e-06	3.87939	6.05536e+06	426.297	6.05579e+06
0.000497799	22.8723	22.2442	31.9053	-44.2024	20329.1	3.87912	-0.000640609	1.43731e+07	6.98647e+06	1	11	0.0050825	0.0001593	0	-0.0344273	-0.00027309	1.05166e-06	-109.598	0.00660175	-0.0022143	0.00621932	-44.2132	31.908	22.8701	22.2504	0.022469	0.021852	0.0313428	44.2024	6.98647e+09	7.18374e+09	1.00208e+10	-45.7976	0.0000000E+000	0.0000000E+000	0.0000000E+000	45.7976	0.0000000E+000	0.0000000E+000	0.0000000E+000	-45.7976	0.0000000E+000	0.0000000E+000	0.0000000E+000	-44.2024	0.0000000E+000	0.0000000E+000	0.0000000E+000	44.2024	1.02824	45.7976	0.000000000000000E+000	-2.485e-06	1.74944e-10	-2.48517e-06	3.87939	6.05536e+06	426.297	6.05579e+06
9.95598e-05	23.8388	144.747	146.697	-80.6478	20329.1	3.87912	-0.000640609	1.1044e+07	1.07523e+07	1	11	0.00508052	3.46327e-05	0	-0.0344273	-0.00027309	4.86209e-06	-49.4514	0.14039	0.0912666	0.106676	-80.6194	146.817	23.9301	144.854	0.00110775	0.00672615	0.00681675	80.6478	1.07523e+10	1.77083e+09	1.08972e+10	-9.35223	0.0000000E+000	0.0000000E+000	0.0000000E+000	9.35223	0.0000000E+000	0.0000000E+000	0.0000000E+000	-9.35223	0.0000000E+000	0.0000000E+000	0.0000000E+000	-80.6478	0.0000000E+000	0.0000000E+000	0.0000000E+000	80.6478	0.164693	9.35223	0.000000000000000E+000	-2.485e-06	1.74944e-10	-2.48517e-06	3.87939	6.05536e+06	426.297	6.05579e+06