Folder: EIS/txt (part 112)

File: 18704_R307_UA701_SOC00_C01.mpt
EC-Lab ASCII FILE
Nb header lines : 65

Potentio Electrochemical Impedance Spectroscopy

Run on channel : 1 (SN 66354)
User :
CE vs. WE compliance from -10 V to 10 V
Electrode connection : standard
Potential control : Ewe
Ewe ctrl range : min = -10.00 V, max = 10.00 V
Safety Limits :
	Do not start on E overload
Acquisition started on : 10/28/2025 15:29:54.782
Technique started on : 10/28/2025 15:29:56.508
Loaded Setting File :  C:\Users\Celltest\OneDrive - store-dot.com\Documents\EC-Lab\Data\@Biologic Test Protocols\anode half cell EIS SOC00.mps
Saved on :
	File : 18704_R307_UA701_SOC00_C01.mpr
	Directory : C:\Users\Celltest\OneDrive - store-dot.com\Documents\EC-Lab\Data\Anna\
	Host : 169.254.61.224
Device : VMP-3e (SN .003165)
Address : USB
EC-LAB for windows v11.62 (software)
Internet server v27.00 (firmware)
Command interpretor v12.03 (firmware)
Electrode material :
Initial state :
Electrolyte :
Comments :
Electrode surface area : 0.001 cm²
Characteristic mass : 0.001 g
Equivalent Weight : 0.000 g/eq.
Density : 0.000 g/cm3
Volume (V) : 0.001 cm³
Record Ece
Cycle Definition : Charge/Discharge alternance
Mode                Single sine
E (V)               0.0000
vs.                 Eoc
tE (h:m:s)          0:00:0.0000
record              0
dI                  0.000
unit dI             mA
dt (s)              0.000
fi                  100.000
unit fi             kHz
ff                  10.000
unit ff             mHz
Nd                  6
Points              per decade
spacing             Logarithmic
Va (mV)             5.0
pw                  0.10
Na                  2
corr                0
E range min (V)     -10.000
E range max (V)     10.000
I Range             Auto
Bandwidth           5
nc cycles           0
goto Ns'            0
nr cycles           0
inc. cycle          0

freq/Hz	Re(Z)/Ohm	-Im(Z)/Ohm	|Z|/Ohm	Phase(Z)/deg	time/s	<Ewe>/V	<I>/mA	Cs/µF	Cp/µF	cycle number	I Range	|Ewe|/V	|I|/A	Ns	(Q-Qo)/mA.h	<Ece>/V	|Ece|/V	Phase(Zce)/deg	|Zce|/Ohm	Re(Zce)/Ohm	-Im(Zce)/Ohm	Phase(Zwe-ce)/deg	|Zwe-ce|/Ohm	Re(Zwe-ce)/Ohm	-Im(Zwe-ce)/Ohm	Re(Y)/Ohm-1	Im(Y)/Ohm-1	|Y|/Ohm-1	Phase(Y)/deg	Re(C)/nF	Im(C)/nF	|C|/nF	Phase(C)/deg	Re(M)	Im(M)	|M|	Phase(M)/deg	Re(Permittivity)	Im(Permittivity)	|Permittivity|	Phase(Permittivity)/deg	Re(Resistivity)/Ohm.cm	Im(Resistivity)/Ohm.cm	|Resistivity|/Ohm.cm	Phase(Resistivity)/deg	Re(Conductivity)/mS/cm	Im(Conductivity)/mS/cm	|Conductivity|/mS/cm	Phase(Conductivity)/deg	Tan(Delta)	Loss Angle(Delta)/deg	dq/mA.h	Pwe/W	Pce/W	Pwe-ce/W	<Ewe-Ece>/V	Rwe/Ohm	Rce/Ohm	Rwe-ce/Ohm		Ewe-Ece/V
100004	1.35615	0.44133	1.42615	-18.0263	1.72556	0.244971	0.0524495	3.60612	0.34533	1	9	0.0045424	0.00318507	0	2.38747e-06	0.000135881	4.33285e-05	93.4212	0.0136036	-0.000811816	-0.0135794	-17.5159	1.42124	1.35534	0.42775	0.666768	0.216985	0.701186	18.0263	345.33	1061.15	1115.93	-71.9736	0.0000000E+000	0.0000000E+000	0.0000000E+000	71.9736	0.0000000E+000	0.0000000E+000	0.0000000E+000	-71.9736	0.0000000E+000	0.0000000E+000	0.0000000E+000	-18.0263	0.0000000E+000	0.0000000E+000	0.0000000E+000	18.0263	3.07287	71.9736	2.38747e-06	1.28486e-05	7.12689e-09	1.28415e-05	0.244835	4670.6	2.5907	4668.01
31621.1	1.72382	0.571939	1.81622	-18.3551	3.24653	0.244966	0.0567338	8.80022	0.872678	1	9	0.00519465	0.00286014	0	1.5424e-05	0.00021219	1.37966e-05	14.527	0.00482375	0.00466953	-0.00120997	-18.2727	1.82028	1.72849	0.570729	0.522581	0.173385	0.550593	18.3551	872.678	2630.24	2771.24	-71.6449	0.0000000E+000	0.0000000E+000	0.0000000E+000	71.6449	0.0000000E+000	0.0000000E+000	0.0000000E+000	-71.6449	0.0000000E+000	0.0000000E+000	0.0000000E+000	-18.3551	0.0000000E+000	0.0000000E+000	0.0000000E+000	18.3551	3.01399	71.6449	5.73393e-06	1.38979e-05	1.20383e-08	1.38858e-05	0.244754	4317.82	3.7401	4314.08
10002.2	2.16035	0.734195	2.2817	-18.7703	4.39752	0.244953	0.0569573	21.6727	2.24397	1	9	0.00490619	0.00215023	0	4.27169e-05	7.86489e-05	1.33787e-05	-66.0492	0.00622199	0.00252583	0.00568625	-18.8849	2.28593	2.16288	0.739881	0.41496	0.141024	0.438269	18.7703	2243.97	6602.83	6973.72	-71.2297	0.0000000E+000	0.0000000E+000	0.0000000E+000	71.2297	0.0000000E+000	0.0000000E+000	0.0000000E+000	-71.2297	0.0000000E+000	0.0000000E+000	0.0000000E+000	-18.7703	0.0000000E+000	0.0000000E+000	0.0000000E+000	18.7703	2.94248	71.2297	9.66193e-06	1.39519e-05	4.47963e-09	1.39474e-05	0.244874	4300.64	1.38084	4299.26
3163.08	2.71718	1.05512	2.91485	-21.222	5.29564	0.244752	0.00726	47.6877	6.24858	1	9	0.00451816	0.00155005	0	5.12992e-05	7.86489e-05	3.39823e-06	51.4965	0.00219233	0.00136486	-0.00171566	-21.1809	2.9155	2.71854	1.05341	0.319806	0.124186	0.343071	21.222	6248.58	16091.5	17262.1	-68.778	0.0000000E+000	0.0000000E+000	0.0000000E+000	68.778	0.0000000E+000	0.0000000E+000	0.0000000E+000	-68.778	0.0000000E+000	0.0000000E+000	0.0000000E+000	-21.222	0.0000000E+000	0.0000000E+000	0.0000000E+000	21.222	2.57522	68.778	2.58128e-06	1.7769e-06	5.70991e-10	1.77633e-06	0.244674	33712.4	10.8332	33701.6
1000.32	3.55456	1.59817	3.89731	-24.2092	7.10882	0.244894	-0.0228764	99.5539	16.7407	1	10	0.00503855	0.00129283	0	7.06103e-05	0.000307577	9.31182e-06	-139.981	0.00720267	-0.00551603	0.00463161	-24.3047	3.89418	3.54904	1.6028	0.234021	0.105219	0.256587	24.2092	16740.7	37233.8	40824.1	-65.7908	0.0000000E+000	0.0000000E+000	0.0000000E+000	65.7908	0.0000000E+000	0.0000000E+000	0.0000000E+000	-65.7908	0.0000000E+000	0.0000000E+000	0.0000000E+000	-24.2092	0.0000000E+000	0.0000000E+000	0.0000000E+000	24.2092	2.22414	65.7908	-2.28807e-06	-5.60229e-06	-7.03624e-09	-5.59526e-06	0.244587	10705.1	13.4452	10691.7
316.316	4.8527	2.52385	5.46978	-27.4786	8.45809	0.244889	-0.0236292	199.359	42.4447	1	10	0.00494614	0.000904267	0	6.14576e-05	2.1417e-05	3.06274e-05	-7.83378	0.0338699	0.0335538	0.00461645	-27.36	5.50169	4.88625	2.52847	0.162197	0.0843576	0.182823	27.4786	42444.7	81609.8	91987.6	-62.5214	0.0000000E+000	0.0000000E+000	0.0000000E+000	62.5214	0.0000000E+000	0.0000000E+000	0.0000000E+000	-62.5214	0.0000000E+000	0.0000000E+000	0.0000000E+000	-27.4786	0.0000000E+000	0.0000000E+000	0.0000000E+000	27.4786	1.92273	62.5214	-2.32333e-06	-5.78654e-06	-5.06066e-10	-5.78604e-06	0.244868	10363.8	0.906375	10362.9
100.032	7.32934	3.62407	8.17637	-26.3106	9.80578	0.244879	-0.0229621	439.021	86.2494	1	10	0.00495033	0.000605443	0	5.36313e-05	0.000135881	1.52044e-05	-38.6352	0.0251128	0.0196165	0.0156794	-26.348	8.20091	7.34896	3.63975	0.109634	0.0542094	0.122304	26.3106	86249.4	174431	194590	-63.6894	0.0000000E+000	0.0000000E+000	0.0000000E+000	63.6894	0.0000000E+000	0.0000000E+000	0.0000000E+000	-63.6894	0.0000000E+000	0.0000000E+000	0.0000000E+000	-26.3106	0.0000000E+000	0.0000000E+000	0.0000000E+000	26.3106	2.02241	63.6894	-2.82538e-06	-5.62294e-06	-3.12011e-09	-5.61982e-06	0.244743	10664.5	5.91761	10658.6
[...]
1.00006	15.8961	1.38406	15.9562	-4.97615	18.8246	0.244945	-0.00825979	114984	865.142	1	11	0.00493821	0.000309485	0	2.04322e-05	5.95716e-05	1.92159e-06	-42.5743	0.00620899	0.0045723	0.00420067	-4.98975	15.9611	15.9007	1.38826	0.0624353	0.00543619	0.0626715	4.97615	865142	9.93625e+06	9.97384e+06	-85.0238	0.0000000E+000	0.0000000E+000	0.0000000E+000	85.0238	0.0000000E+000	0.0000000E+000	0.0000000E+000	-85.0238	0.0000000E+000	0.0000000E+000	0.0000000E+000	-4.97615	0.0000000E+000	0.0000000E+000	0.0000000E+000	4.97615	11.4851	85.0238	-1.16102e-05	-2.02319e-06	-4.92049e-10	-2.0227e-06	0.244885	29655.1	7.21223	29647.9
0.316193	16.5216	1.41985	16.5825	-4.91186	34.6791	0.244941	-0.0105758	354508	2599.02	1	12	0.00493833	0.000297804	0	-4.90777e-05	0.00021219	2.90842e-06	-23.8799	0.00976623	0.0089302	0.00395358	-4.92282	16.5917	16.5305	1.4238	0.060083	0.00516347	0.0603045	4.91186	2.59902e+06	3.02426e+07	3.03541e+07	-85.0881	0.0000000E+000	0.0000000E+000	0.0000000E+000	85.0881	0.0000000E+000	0.0000000E+000	0.0000000E+000	-85.0881	0.0000000E+000	0.0000000E+000	0.0000000E+000	-4.91186	0.0000000E+000	0.0000000E+000	0.0000000E+000	4.91186	11.6362	85.0881	-1.98624e-05	-2.59044e-06	-2.24408e-09	-2.5882e-06	0.244728	23160.5	20.0637	23140.4
0.0999041	17.2559	2.5332	17.4408	-8.35148	79.888	0.244936	-0.00774511	628880	13267	1	12	0.00493685	0.000283063	0	-1.41924e-05	-1.67377e-05	2.11348e-06	-8.42932	0.00746647	0.00738582	0.0010945	-8.35151	17.4483	17.2633	2.53429	0.0567287	0.00832788	0.0573367	8.35148	1.3267e+07	9.03732e+07	9.13418e+07	-81.6485	0.0000000E+000	0.0000000E+000	0.0000000E+000	81.6485	0.0000000E+000	0.0000000E+000	0.0000000E+000	-81.6485	0.0000000E+000	0.0000000E+000	0.0000000E+000	-8.35148	0.0000000E+000	0.0000000E+000	0.0000000E+000	8.35148	6.8119	81.6485	2.40021e-05	-1.89706e-06	1.29635e-10	-1.89719e-06	0.244953	31624.6	2.16106	31626.8
0.0315922	18.817	5.63732	19.6433	-16.6776	222.772	0.244936	-0.00618059	893650	73601.4	1	12	0.00493816	0.000251392	0	-0.000417003	-1.67377e-05	2.525e-06	-7.79094	0.0100441	0.00995136	0.00136156	-16.673	19.6532	18.8269	5.63868	0.0487666	0.0146099	0.0509081	16.6776	7.36014e+07	2.45676e+08	2.56464e+08	-73.3224	0.0000000E+000	0.0000000E+000	0.0000000E+000	73.3224	0.0000000E+000	0.0000000E+000	0.0000000E+000	-73.3224	0.0000000E+000	0.0000000E+000	0.0000000E+000	-16.6776	0.0000000E+000	0.0000000E+000	0.0000000E+000	16.6776	3.33792	73.3224	-0.000295899	-1.51385e-06	1.03449e-10	-1.51396e-06	0.244953	39629.9	2.7081	39632.7
0.0100092	22.6064	12.9931	26.0743	-29.8882	673.993	0.244935	-0.00969595	1.2238e+06	303884	1	12	0.00493733	0.000189356	0	-0.00215096	4.04943e-05	2.55296e-06	-24.221	0.0134823	0.0122955	0.00553123	-29.8853	26.0877	22.6187	12.9986	0.0332511	0.0191111	0.0383519	29.8882	3.03884e+08	5.28723e+08	6.09831e+08	-60.1118	0.0000000E+000	0.0000000E+000	0.0000000E+000	60.1118	0.0000000E+000	0.0000000E+000	0.0000000E+000	-60.1118	0.0000000E+000	0.0000000E+000	0.0000000E+000	-29.8882	0.0000000E+000	0.0000000E+000	0.0000000E+000	29.8882	1.73988	60.1118	-0.000564107	-2.37487e-06	-3.9263e-10	-2.37448e-06	0.244894	25261.5	4.17641	25257.4

File: 18705_R307_UA701_SOC00_C02.mpt
EC-Lab ASCII FILE
Nb header lines : 65

Potentio Electrochemical Impedance Spectroscopy

Run on channel : 2 (SN 66139)
User :
CE vs. WE compliance from -10 V to 10 V
Electrode connection : standard
Potential control : Ewe
Ewe ctrl range : min = -10.00 V, max = 10.00 V
Safety Limits :
	Do not start on E overload
Acquisition started on : 10/28/2025 15:30:07.932
Technique started on : 10/28/2025 15:30:09.516
Loaded Setting File :  C:\Users\Celltest\OneDrive - store-dot.com\Documents\EC-Lab\Data\@Biologic Test Protocols\anode half cell EIS SOC00.mps
Saved on :
	File : 18705_R307_UA701_SOC00_C02.mpr
	Directory : C:\Users\Celltest\OneDrive - store-dot.com\Documents\EC-Lab\Data\Anna\
	Host : 169.254.61.224
Device : VMP-3e (SN .003165)
Address : USB
EC-LAB for windows v11.62 (software)
Internet server v27.00 (firmware)
Command interpretor v12.03 (firmware)
Electrode material :
Initial state :
Electrolyte :
Comments :
Electrode surface area : 0.001 cm²
Characteristic mass : 0.001 g
Equivalent Weight : 0.000 g/eq.
Density : 0.000 g/cm3
Volume (V) : 0.001 cm³
Record Ece
Cycle Definition : Charge/Discharge alternance
Mode                Single sine
E (V)               0.0000
vs.                 Eoc
tE (h:m:s)          0:00:0.0000
record              0
dI                  0.000
unit dI             mA
dt (s)              0.000
fi                  100.000
unit fi             kHz
ff                  10.000
unit ff             mHz
Nd                  6
Points              per decade
spacing             Logarithmic
Va (mV)             5.0
pw                  0.10
Na                  2
corr                0
E range min (V)     -10.000
E range max (V)     10.000
I Range             Auto
Bandwidth           5
nc cycles           0
goto Ns'            0
nr cycles           0
inc. cycle          0

freq/Hz	Re(Z)/Ohm	-Im(Z)/Ohm	|Z|/Ohm	Phase(Z)/deg	time/s	<Ewe>/V	<I>/mA	Cs/µF	Cp/µF	cycle number	I Range	|Ewe|/V	|I|/A	Ns	(Q-Qo)/mA.h	<Ece>/V	|Ece|/V	Phase(Zce)/deg	|Zce|/Ohm	Re(Zce)/Ohm	-Im(Zce)/Ohm	Phase(Zwe-ce)/deg	|Zwe-ce|/Ohm	Re(Zwe-ce)/Ohm	-Im(Zwe-ce)/Ohm	Re(Y)/Ohm-1	Im(Y)/Ohm-1	|Y|/Ohm-1	Phase(Y)/deg	Re(C)/nF	Im(C)/nF	|C|/nF	Phase(C)/deg	Re(M)	Im(M)	|M|	Phase(M)/deg	Re(Permittivity)	Im(Permittivity)	|Permittivity|	Phase(Permittivity)/deg	Re(Resistivity)/Ohm.cm	Im(Resistivity)/Ohm.cm	|Resistivity|/Ohm.cm	Phase(Resistivity)/deg	Re(Conductivity)/mS/cm	Im(Conductivity)/mS/cm	|Conductivity|/mS/cm	Phase(Conductivity)/deg	Tan(Delta)	Loss Angle(Delta)/deg	dq/mA.h	Pwe/W	Pce/W	Pwe-ce/W	<Ewe-Ece>/V	Rwe/Ohm	Rce/Ohm	Rwe-ce/Ohm		Ewe-Ece/V
100004	1.29115	0.494607	1.38264	-20.9606	1.58354	0.244339	-0.0126986	3.21769	0.41176	1	9	0.00461935	0.00334095	0	-9.33292e-06	0.000191251	2.25064e-05	64.7523	0.00673651	0.00287334	-0.00609298	-20.6823	1.38316	1.29402	0.488514	0.675393	0.258726	0.723253	20.9606	411.76	1074.88	1151.05	-69.0394	0.0000000E+000	0.0000000E+000	0.0000000E+000	69.0394	0.0000000E+000	0.0000000E+000	0.0000000E+000	-69.0394	0.0000000E+000	0.0000000E+000	0.0000000E+000	-20.9606	0.0000000E+000	0.0000000E+000	0.0000000E+000	20.9606	2.61045	69.0394	-9.33292e-06	-3.10275e-06	-2.42861e-09	-3.10032e-06	0.244147	19241.5	15.0608	19226.4
31621.1	1.7219	0.640511	1.83717	-20.4041	2.98055	0.244325	-0.00942091	7.85808	0.955143	1	9	0.00546991	0.00297735	0	-1.10325e-05	5.7615e-05	1.37949e-05	10.2518	0.00463329	0.00455932	-0.000824608	-20.3306	1.84116	1.72646	0.639686	0.510162	0.189769	0.544314	20.4041	955.143	2567.74	2739.63	-69.5959	0.0000000E+000	0.0000000E+000	0.0000000E+000	69.5959	0.0000000E+000	0.0000000E+000	0.0000000E+000	-69.5959	0.0000000E+000	0.0000000E+000	0.0000000E+000	-20.4041	0.0000000E+000	0.0000000E+000	0.0000000E+000	20.4041	2.68833	69.5959	-1.00951e-05	-2.30176e-06	-5.42786e-10	-2.30122e-06	0.244267	25934.3	6.11565	25928.2
10002.2	2.20388	0.820134	2.35153	-20.4118	4.00555	0.244325	-0.00889949	19.4017	2.35997	1	9	0.00542943	0.00230889	0	-1.55745e-05	0.000286705	6.21151e-06	-105.131	0.00269026	-0.000702222	0.00259699	-20.4771	2.35178	2.20318	0.822731	0.398553	0.148314	0.425254	20.4118	2359.97	6341.75	6766.63	-69.5882	0.0000000E+000	0.0000000E+000	0.0000000E+000	69.5882	0.0000000E+000	0.0000000E+000	0.0000000E+000	-69.5882	0.0000000E+000	0.0000000E+000	0.0000000E+000	-20.4118	0.0000000E+000	0.0000000E+000	0.0000000E+000	20.4118	2.68722	69.5882	-8.59706e-07	-2.17436e-06	-2.55153e-09	-2.17181e-06	0.244038	27453.8	32.2159	27421.6
3163.08	2.83953	1.14962	3.06343	-22.0412	4.90365	0.244189	-0.0440596	43.7679	6.16381	1	9	0.00521336	0.00170181	0	-2.37334e-05	0.000191251	9.31278e-06	-73.5186	0.00547229	0.00155251	0.00524744	-22.1211	3.06684	2.84109	1.15487	0.302575	0.122501	0.326432	22.0412	6163.81	15224.5	16424.9	-67.9588	0.0000000E+000	0.0000000E+000	0.0000000E+000	67.9588	0.0000000E+000	0.0000000E+000	0.0000000E+000	-67.9588	0.0000000E+000	0.0000000E+000	0.0000000E+000	-22.0412	0.0000000E+000	0.0000000E+000	0.0000000E+000	22.0412	2.46998	67.9588	-3.76312e-06	-1.07589e-05	-8.42645e-09	-1.07505e-05	0.243998	5542.25	4.34073	5537.91
1000.32	3.7403	1.65721	4.09099	-23.8966	6.50179	0.244251	-0.0348976	96.0074	15.7544	1	10	0.00516255	0.00126193	0	-3.66149e-05	0.00017216	7.4401e-06	0.276691	0.0058958	0.00589573	-2.84717e-05	-23.8628	4.09637	3.7462	1.65718	0.223486	0.0990194	0.24444	23.8966	15754.4	35557.5	38891.3	-66.1034	0.0000000E+000	0.0000000E+000	0.0000000E+000	66.1034	0.0000000E+000	0.0000000E+000	0.0000000E+000	-66.1034	0.0000000E+000	0.0000000E+000	0.0000000E+000	-23.8966	0.0000000E+000	0.0000000E+000	0.0000000E+000	23.8966	2.25699	66.1034	-4.83252e-06	-8.52377e-06	-6.00797e-09	-8.51776e-06	0.244079	6999.08	4.93329	6994.15
316.316	5.12073	2.48052	5.68989	-25.8459	7.852	0.244244	-0.0328599	202.841	38.5508	1	10	0.00506619	0.000890385	0	-4.76296e-05	0.000458523	3.66891e-05	-17.5734	0.0412059	0.0392828	0.0124412	-25.7866	5.73067	5.16002	2.49296	0.15817	0.0766187	0.17575	25.8459	38550.8	79583.5	88429	-64.1541	0.0000000E+000	0.0000000E+000	0.0000000E+000	64.1541	0.0000000E+000	0.0000000E+000	0.0000000E+000	-64.1541	0.0000000E+000	0.0000000E+000	0.0000000E+000	-25.8459	0.0000000E+000	0.0000000E+000	0.0000000E+000	25.8459	2.06438	64.1541	-3.21393e-06	-8.02582e-06	-1.5067e-08	-8.01075e-06	0.243785	7432.88	13.9539	7418.92
100.032	7.49328	3.411	8.23311	-24.4754	9.19877	0.244262	-0.0311612	466.444	80.0634	1	10	0.00504219	0.000612428	0	-5.93946e-05	0.000153069	6.71634e-06	-39.2314	0.0109667	0.00849482	0.00693596	-24.4948	8.24372	7.50178	3.41793	0.110546	0.0503214	0.121461	24.4754	80063.4	175883	193249	-65.5246	0.0000000E+000	0.0000000E+000	0.0000000E+000	65.5246	0.0000000E+000	0.0000000E+000	0.0000000E+000	-65.5246	0.0000000E+000	0.0000000E+000	0.0000000E+000	-24.4754	0.0000000E+000	0.0000000E+000	0.0000000E+000	24.4754	2.1968	65.5246	-3.44532e-06	-7.61151e-06	-4.76982e-09	-7.60674e-06	0.244109	7838.67	4.91217	7833.75
[...]
1.00006	15.0873	1.22543	15.137	-4.64352	18.214	0.244291	-0.0147069	129869	851.143	1	11	0.00503598	0.000332694	0	-0.000118156	0.000305796	3.02313e-06	-31.8342	0.00908681	0.00771996	0.00479295	-4.65923	15.1451	15.095	1.23022	0.0658466	0.00534823	0.0660634	4.64352	851144	1.04791e+07	1.05136e+07	-85.3565	0.0000000E+000	0.0000000E+000	0.0000000E+000	85.3565	0.0000000E+000	0.0000000E+000	0.0000000E+000	-85.3565	0.0000000E+000	0.0000000E+000	0.0000000E+000	-4.64352	0.0000000E+000	0.0000000E+000	0.0000000E+000	4.64352	12.3118	85.3565	-1.92148e-05	-3.59278e-06	-4.49732e-09	-3.58828e-06	0.243986	16610.6	20.7926	16589.8
0.316193	15.6424	1.35	15.7006	-4.93262	32.5578	0.244289	-0.0149398	372850	2756.58	1	11	0.00503917	0.000320955	0	-0.000186233	0.000191251	2.44374e-06	-1.69571	0.00761398	0.00761065	0.000225309	-4.93105	15.7082	15.65	1.35022	0.0634561	0.0054765	0.063692	4.93262	2.75658e+06	3.19405e+07	3.20592e+07	-85.0674	0.0000000E+000	0.0000000E+000	0.0000000E+000	85.0674	0.0000000E+000	0.0000000E+000	0.0000000E+000	-85.0674	0.0000000E+000	0.0000000E+000	0.0000000E+000	-4.93262	0.0000000E+000	0.0000000E+000	0.0000000E+000	4.93262	11.587	85.0674	-1.68474e-05	-3.64963e-06	-2.85725e-09	-3.64677e-06	0.244098	16351.6	12.8015	16338.8
0.0999041	16.3759	2.47122	16.5613	-8.5815	84.6278	0.244285	-0.00818333	644653	14353.5	1	12	0.00503719	0.000304154	0	-0.00019424	0.000114888	1.58365e-06	87.5158	0.00520674	0.00022568	-0.00520185	-8.56359	16.5608	16.3761	2.46601	0.0597057	0.00900992	0.0603817	8.5815	1.43535e+07	9.51158e+07	9.61927e+07	-81.4185	0.0000000E+000	0.0000000E+000	0.0000000E+000	81.4185	0.0000000E+000	0.0000000E+000	0.0000000E+000	-81.4185	0.0000000E+000	0.0000000E+000	0.0000000E+000	-8.5815	0.0000000E+000	0.0000000E+000	0.0000000E+000	8.5815	6.62666	81.4185	1.07162e-06	-1.99906e-06	-9.40163e-10	-1.99812e-06	0.24417	29851.5	14.0392	29837.4
0.0315922	17.8405	5.45749	18.6565	-17.0092	227.511	0.24428	-0.00758287	923097	78989.9	1	12	0.00503942	0.000270116	0	-0.000822304	0.000153069	3.48761e-06	20.2294	0.0129115	0.0121151	-0.00446454	-16.9852	18.6668	17.8526	5.45302	0.051256	0.0156795	0.0536006	17.0092	7.89899e+07	2.58217e+08	2.70028e+08	-72.9909	0.0000000E+000	0.0000000E+000	0.0000000E+000	72.9909	0.0000000E+000	0.0000000E+000	0.0000000E+000	-72.9909	0.0000000E+000	0.0000000E+000	0.0000000E+000	-17.0092	0.0000000E+000	0.0000000E+000	0.0000000E+000	17.0092	3.26899	72.9909	-0.000382501	-1.85235e-06	-1.1607e-09	-1.85119e-06	0.244127	32214.8	20.1862	32194.6
0.0100092	21.4305	12.8188	24.9717	-30.886	678.734	0.244266	-0.010196	1.24044e+06	326867	1	12	0.00503782	0.000201741	0	-0.00220067	0.000210342	1.49922e-06	10.5079	0.00743141	0.00730678	-0.00135528	-30.8747	24.9773	21.4378	12.8174	0.0343665	0.0205565	0.0400453	30.886	3.26867e+08	5.46459e+08	6.36757e+08	-59.114	0.0000000E+000	0.0000000E+000	0.0000000E+000	59.114	0.0000000E+000	0.0000000E+000	0.0000000E+000	-59.114	0.0000000E+000	0.0000000E+000	0.0000000E+000	-30.886	0.0000000E+000	0.0000000E+000	0.0000000E+000	30.886	1.67181	59.114	-0.000318806	-2.49054e-06	-2.14465e-09	-2.4884e-06	0.244056	23957	20.6298	23936.4