Folder: EIS/txt (part 39)

File: 17497_R280_UC81_SOC50_C05.mpt
EC-Lab ASCII FILE
Nb header lines : 64

Potentio Electrochemical Impedance Spectroscopy

Run on channel : 5 (SN 65912)
User :
CE vs. WE compliance from -10 V to 10 V
Electrode connection : standard
Potential control : Ewe
Ewe ctrl range : min = -10.00 V, max = 10.00 V
Safety Limits :
	Do not start on E overload
Acquisition started on : 09/15/2025 12:22:53.145
Loaded Setting File :  C:\Users\Celltest\OneDrive - store-dot.com\Documents\EC-Lab\Data\John\17495_R280-G001, UC81 half-cell.mps
Saved on :
	File : 17497_R280-G001, UC81 half-cell_C05.mpr
	Directory : C:\Users\Celltest\OneDrive - store-dot.com\Documents\EC-Lab\Data\John\
	Host : 169.254.61.224
Device : VMP-3e (SN .003165)
Address : USB
EC-LAB for windows v11.62 (software)
Internet server v27.00 (firmware)
Command interpretor v12.03 (firmware)
Electrode material :
Initial state :
Electrolyte :
Comments :
Electrode surface area : 0.001 cm²
Characteristic mass : 0.001 g
Equivalent Weight : 0.000 g/eq.
Density : 0.000 g/cm3
Volume (V) : 0.001 cm³
Record Ece
Cycle Definition : Charge/Discharge alternance
Mode                Multi sine
E (V)               0.0000
vs.                 Eoc
tE (h:m:s)          0:00:0.0000
record              0
dI                  0.000
unit dI             mA
dt (s)              0.000
fi                  1.000
unit fi             MHz
ff                  0.100
unit ff             mHz
Nd                  10
Points              per decade
spacing             Logarithmic
Va (mV)             5.0
pw                  0.10
Na                  2
corr                0
E range min (V)     -10.000
E range max (V)     10.000
I Range             Auto
Bandwidth           5
nc cycles           0
goto Ns'            0
nr cycles           0
inc. cycle          0

freq/Hz	Re(Z)/Ohm	-Im(Z)/Ohm	|Z|/Ohm	Phase(Z)/deg	time/s	<Ewe>/V	<I>/mA	Cs/µF	Cp/µF	cycle number	I Range	|Ewe|/V	|I|/A	Ns	(Q-Qo)/mA.h	<Ece>/V	|Ece|/V	Phase(Zce)/deg	|Zce|/Ohm	Re(Zce)/Ohm	-Im(Zce)/Ohm	Phase(Zwe-ce)/deg	|Zwe-ce|/Ohm	Re(Zwe-ce)/Ohm	-Im(Zwe-ce)/Ohm	Re(Y)/Ohm-1	Im(Y)/Ohm-1	|Y|/Ohm-1	Phase(Y)/deg	Re(C)/nF	Im(C)/nF	|C|/nF	Phase(C)/deg	Re(M)	Im(M)	|M|	Phase(M)/deg	Re(Permittivity)	Im(Permittivity)	|Permittivity|	Phase(Permittivity)/deg	Re(Resistivity)/Ohm.cm	Im(Resistivity)/Ohm.cm	|Resistivity|/Ohm.cm	Phase(Resistivity)/deg	Re(Conductivity)/mS/cm	Im(Conductivity)/mS/cm	|Conductivity|/mS/cm	Phase(Conductivity)/deg	Tan(Delta)	Loss Angle(Delta)/deg	dq/mA.h	Pwe/W	Pce/W	Pwe-ce/W	<Ewe-Ece>/V	Rwe/Ohm	Rce/Ohm	Rwe-ce/Ohm		Ewe-Ece/V
1.00002e+06	1.02192	-0.269608	1.05688	14.7794	2.69354	3.78587	0.171021	-0.590309	-0.0384142	1	9	0.000227154	0.000214928	0	4.46815e-05	0.000265815	0.000190277	-1.26985	0.885304	0.885087	0.0196195	7.4683	1.92332	1.907	-0.249989	0.914875	-0.241368	0.946179	-14.7794	-38.4142	145.604	150.586	-104.779	0.0000000E+000	0.0000000E+000	0.0000000E+000	104.779	0.0000000E+000	0.0000000E+000	0.0000000E+000	-104.779	0.0000000E+000	0.0000000E+000	0.0000000E+000	14.7794	0.0000000E+000	0.0000000E+000	0.0000000E+000	-14.7794	3.79038	75.2206	4.46815e-05	0.000647462	4.54599e-08	0.000647416	3.7856	22136.9	1.55429	22135.3
251206	1.05206	0.116465	1.05849	-6.31705	4.99152	3.78428	-0.00478822	5.43993	0.0658591	1	9	0.0029206	0.00275923	0	6.87402e-05	-5.87355e-05	4.84118e-05	92.7607	0.0175454	-0.000845069	-0.0175251	-5.37683	1.05586	1.05121	0.0989402	0.939009	0.10395	0.944745	6.31705	65.8591	594.921	598.556	-83.683	0.0000000E+000	0.0000000E+000	0.0000000E+000	83.683	0.0000000E+000	0.0000000E+000	0.0000000E+000	-83.683	0.0000000E+000	0.0000000E+000	0.0000000E+000	-6.31705	0.0000000E+000	0.0000000E+000	0.0000000E+000	6.31705	9.03325	83.683	2.31608e-06	-1.812e-05	2.81238e-10	-1.81202e-05	3.78434	790332	12.2667	790344
63093.8	1.2504	0.25243	1.27563	-11.4134	7.16953	3.78404	-0.0151409	9.99292	0.391314	1	9	0.00533025	0.00417852	0	6.09942e-05	-9.69179e-05	2.40939e-05	90.3972	0.00576612	-3.99736e-05	-0.00576598	-11.1597	1.27446	1.25036	0.246664	0.768425	0.155129	0.783927	11.4134	391.314	1938.36	1977.47	-78.5866	0.0000000E+000	0.0000000E+000	0.0000000E+000	78.5866	0.0000000E+000	0.0000000E+000	0.0000000E+000	-78.5866	0.0000000E+000	0.0000000E+000	0.0000000E+000	-11.4134	0.0000000E+000	0.0000000E+000	0.0000000E+000	11.4134	4.95347	78.5866	9.33361e-06	-5.72937e-05	1.46742e-09	-5.72951e-05	3.78414	249923	6.40108	249929
15847.7	1.5133	0.465294	1.58322	-17.091	9.21956	3.78402	-0.0132416	21.5837	1.86423	1	9	0.0049187	0.00310677	0	8.05622e-05	0.000227633	7.47164e-06	32.9116	0.00240496	0.00201898	-0.00130672	-17.0244	1.58477	1.51532	0.463987	0.60373	0.185628	0.631624	17.091	1864.23	6063.14	6343.26	-72.909	0.0000000E+000	0.0000000E+000	0.0000000E+000	72.909	0.0000000E+000	0.0000000E+000	0.0000000E+000	-72.909	0.0000000E+000	0.0000000E+000	0.0000000E+000	-17.091	0.0000000E+000	0.0000000E+000	0.0000000E+000	17.091	3.25236	72.909	1.0969e-06	-5.01066e-05	-3.01423e-09	-5.01036e-05	3.78379	285766	17.1907	285749
3983.6	2.0105	0.818362	2.17067	-22.1485	10.9441	3.78384	-0.116843	48.8201	6.93906	1	9	0.0045231	0.00208373	0	7.27284e-05	0.000303998	5.74049e-06	-27.4189	0.00275491	0.00244544	0.00126862	-22.1552	2.17342	2.01295	0.819631	0.426692	0.173683	0.460686	22.1485	6939.06	17047.4	18405.6	-67.8515	0.0000000E+000	0.0000000E+000	0.0000000E+000	67.8515	0.0000000E+000	0.0000000E+000	0.0000000E+000	-67.8515	0.0000000E+000	0.0000000E+000	0.0000000E+000	-22.1485	0.0000000E+000	0.0000000E+000	0.0000000E+000	22.1485	2.45674	67.8515	-7.48824e-06	-0.000442115	-3.55199e-08	-0.000442079	3.78354	32384	2.60177	32381.4
1000.32	2.84902	1.39683	3.17302	-26.1181	13.7498	3.78397	0.009847	113.903	22.074	1	9	0.004895	0.00154269	0	6.04149e-05	0.000132177	5.88215e-06	22.9187	0.0038129	0.00351191	-0.00148484	-26.0661	3.17552	2.85253	1.39535	0.282976	0.138739	0.315157	26.1181	22074	45022.6	50142.8	-63.8819	0.0000000E+000	0.0000000E+000	0.0000000E+000	63.8819	0.0000000E+000	0.0000000E+000	0.0000000E+000	-63.8819	0.0000000E+000	0.0000000E+000	0.0000000E+000	-26.1181	0.0000000E+000	0.0000000E+000	0.0000000E+000	26.1181	2.03962	63.8819	-1.02572e-07	3.72607e-05	1.30154e-09	3.72594e-05	3.78383	384276	13.423	384263
251.044	4.52306	2.29207	5.07067	-26.8737	16.697	3.78396	-0.0288064	276.593	56.5155	1	10	0.0048966	0.000965671	0	3.85739e-05	9.39943e-05	8.34265e-06	-91.9109	0.00863922	-0.000288072	0.00863442	-26.9621	5.07432	4.52277	2.30071	0.175915	0.0891451	0.197213	26.8737	56515.5	111525	125027	-63.1263	0.0000000E+000	0.0000000E+000	0.0000000E+000	63.1263	0.0000000E+000	0.0000000E+000	0.0000000E+000	-63.1263	0.0000000E+000	0.0000000E+000	0.0000000E+000	-26.8737	0.0000000E+000	0.0000000E+000	0.0000000E+000	26.8737	1.97335	63.1263	-3.30041e-06	-0.000109002	-2.70764e-09	-0.000109	3.78386	131358	3.26296	131355
63.0823	7.12354	2.04003	7.4099	-15.9806	19.417	3.78395	-0.0252506	1236.73	93.7399	1	10	0.00487399	0.000657767	0	1.8055e-05	-0.000154192	9.71025e-06	-19.5078	0.0147624	0.013915	0.00492969	-15.9876	7.42463	7.13746	2.04496	0.129739	0.0371545	0.134955	15.9806	93739.9	327329	340487	-74.0194	0.0000000E+000	0.0000000E+000	0.0000000E+000	74.0194	0.0000000E+000	0.0000000E+000	0.0000000E+000	-74.0194	0.0000000E+000	0.0000000E+000	0.0000000E+000	-15.9806	0.0000000E+000	0.0000000E+000	0.0000000E+000	15.9806	3.49188	74.0194	-2.96623e-06	-9.5547e-05	3.89343e-09	-9.55509e-05	3.78411	149856	6.10645	149862
[...]
0.0602816	9.91167	1.46422	10.0192	-8.40336	240.096	3.78397	-0.0133501	1.80313e+06	38509.9	1	11	0.00509369	0.00050839	0	-0.00297355	3.67206e-05	4.45319e-07	-4.52073	0.000875939	0.000873213	6.90413e-05	-8.40302	10.0201	9.91255	1.46429	0.0987364	0.014586	0.099808	8.40336	3.85099e+07	2.60683e+08	2.63512e+08	-81.5966	0.0000000E+000	0.0000000E+000	0.0000000E+000	81.5966	0.0000000E+000	0.0000000E+000	0.0000000E+000	-81.5966	0.0000000E+000	0.0000000E+000	0.0000000E+000	-8.40336	0.0000000E+000	0.0000000E+000	0.0000000E+000	8.40336	6.76924	81.5966	0.000000000000000E+000	-5.05165e-05	-4.90226e-10	-5.0516e-05	3.78393	283440	2.75058	283438
0.00796479	13.9302	3.77883	14.4336	-15.1773	20329	3.78398	-0.0001285	5.28796e+06	362454	1	11	0.00508764	0.000352485	0	-0.0163136	0.000113085	2.19985e-07	-126.052	0.000624096	-0.000367295	0.00050457	-15.1797	14.4334	13.9298	3.77934	0.0668661	0.0181387	0.0692826	15.1773	3.62454e+08	1.33614e+09	1.38443e+09	-74.8227	0.0000000E+000	0.0000000E+000	0.0000000E+000	74.8227	0.0000000E+000	0.0000000E+000	0.0000000E+000	-74.8227	0.0000000E+000	0.0000000E+000	0.0000000E+000	-15.1773	0.0000000E+000	0.0000000E+000	0.0000000E+000	15.1773	3.68637	74.8227	-0.0133401	-4.86241e-07	-1.45315e-11	-4.86227e-07	3.78387	2.94473e+07	880.043	2.94464e+07
0.0019912	17.5323	5.17232	18.2794	-16.4369	20329	3.78398	-0.0001285	1.54533e+07	1.23728e+06	1	11	0.00510089	0.000279052	0	-0.0163136	0.000113085	5.61505e-07	-22.8976	0.00201219	0.00185363	0.000782914	-16.4376	18.2814	17.5342	5.1731	0.0524707	0.0154797	0.0547065	16.4369	1.23728e+09	4.19395e+09	4.37265e+09	-73.5631	0.0000000E+000	0.0000000E+000	0.0000000E+000	73.5631	0.0000000E+000	0.0000000E+000	0.0000000E+000	-73.5631	0.0000000E+000	0.0000000E+000	0.0000000E+000	-16.4369	0.0000000E+000	0.0000000E+000	0.0000000E+000	16.4369	3.38964	73.5631	0.000000000000000E+000	-4.86241e-07	-1.45315e-11	-4.86227e-07	3.78387	2.94473e+07	880.043	2.94464e+07
0.000497799	19.8282	8.41464	21.5398	-22.9953	20329	3.78398	-0.0001285	3.79954e+07	5.79854e+06	1	11	0.00510063	0.000236801	0	-0.0163136	0.000113085	3.01415e-07	-26.0441	0.00127287	0.00114361	0.000558868	-22.9955	21.541	19.8293	8.4152	0.0427366	0.0181365	0.0464257	22.9953	5.79854e+09	1.36636e+10	1.48431e+10	-67.0047	0.0000000E+000	0.0000000E+000	0.0000000E+000	67.0047	0.0000000E+000	0.0000000E+000	0.0000000E+000	-67.0047	0.0000000E+000	0.0000000E+000	0.0000000E+000	-22.9953	0.0000000E+000	0.0000000E+000	0.0000000E+000	22.9953	2.35639	67.0047	0.000000000000000E+000	-4.86241e-07	-1.45315e-11	-4.86227e-07	3.78387	2.94473e+07	880.043	2.94464e+07
9.95598e-05	23.3162	34.8843	41.959	-56.2417	20329	3.78398	-0.0001285	4.58254e+07	3.16749e+07	1	11	0.00509883	0.000121519	0	-0.0163136	0.000113085	2.29955e-07	147.744	0.00189233	-0.00160029	-0.00100995	-56.2428	41.9572	23.3146	34.8832	0.0132437	0.0198143	0.0238328	56.2417	3.16749e+10	2.11711e+10	3.80988e+10	-33.7583	0.0000000E+000	0.0000000E+000	0.0000000E+000	33.7583	0.0000000E+000	0.0000000E+000	0.0000000E+000	-33.7583	0.0000000E+000	0.0000000E+000	0.0000000E+000	-56.2417	0.0000000E+000	0.0000000E+000	0.0000000E+000	56.2417	0.668387	33.7583	0.000000000000000E+000	-4.86241e-07	-1.45315e-11	-4.86227e-07	3.78387	2.94473e+07	880.043	2.94464e+07

File: 17498_R280_UC81_SOC50_C06.mpt
EC-Lab ASCII FILE
Nb header lines : 64

Potentio Electrochemical Impedance Spectroscopy

Run on channel : 6 (SN 65795)
User :
CE vs. WE compliance from -10 V to 10 V
Electrode connection : standard
Potential control : Ewe
Ewe ctrl range : min = -10.00 V, max = 10.00 V
Safety Limits :
	Do not start on E overload
Acquisition started on : 09/15/2025 12:23:10.075
Loaded Setting File :  C:\Users\Celltest\OneDrive - store-dot.com\Documents\EC-Lab\Data\John\17497_R280-G001, UC81 half-cell.mps
Saved on :
	File : 17498_R280-G002, UC81 half-cell_C06.mpr
	Directory : C:\Users\Celltest\OneDrive - store-dot.com\Documents\EC-Lab\Data\John\
	Host : 169.254.61.224
Device : VMP-3e (SN .003165)
Address : USB
EC-LAB for windows v11.62 (software)
Internet server v27.00 (firmware)
Command interpretor v12.03 (firmware)
Electrode material :
Initial state :
Electrolyte :
Comments :
Electrode surface area : 0.001 cm²
Characteristic mass : 0.001 g
Equivalent Weight : 0.000 g/eq.
Density : 0.000 g/cm3
Volume (V) : 0.001 cm³
Record Ece
Cycle Definition : Charge/Discharge alternance
Mode                Multi sine
E (V)               0.0000
vs.                 Eoc
tE (h:m:s)          0:00:0.0000
record              0
dI                  0.000
unit dI             mA
dt (s)              0.000
fi                  1.000
unit fi             MHz
ff                  0.100
unit ff             mHz
Nd                  10
Points              per decade
spacing             Logarithmic
Va (mV)             5.0
pw                  0.10
Na                  2
corr                0
E range min (V)     -10.000
E range max (V)     10.000
I Range             Auto
Bandwidth           5
nc cycles           0
goto Ns'            0
nr cycles           0
inc. cycle          0

freq/Hz	Re(Z)/Ohm	-Im(Z)/Ohm	|Z|/Ohm	Phase(Z)/deg	time/s	<Ewe>/V	<I>/mA	Cs/µF	Cp/µF	cycle number	I Range	|Ewe|/V	|I|/A	Ns	(Q-Qo)/mA.h	<Ece>/V	|Ece|/V	Phase(Zce)/deg	|Zce|/Ohm	Re(Zce)/Ohm	-Im(Zce)/Ohm	Phase(Zwe-ce)/deg	|Zwe-ce|/Ohm	Re(Zwe-ce)/Ohm	-Im(Zwe-ce)/Ohm	Re(Y)/Ohm-1	Im(Y)/Ohm-1	|Y|/Ohm-1	Phase(Y)/deg	Re(C)/nF	Im(C)/nF	|C|/nF	Phase(C)/deg	Re(M)	Im(M)	|M|	Phase(M)/deg	Re(Permittivity)	Im(Permittivity)	|Permittivity|	Phase(Permittivity)/deg	Re(Resistivity)/Ohm.cm	Im(Resistivity)/Ohm.cm	|Resistivity|/Ohm.cm	Phase(Resistivity)/deg	Re(Conductivity)/mS/cm	Im(Conductivity)/mS/cm	|Conductivity|/mS/cm	Phase(Conductivity)/deg	Tan(Delta)	Loss Angle(Delta)/deg	dq/mA.h	Pwe/W	Pce/W	Pwe-ce/W	<Ewe-Ece>/V	Rwe/Ohm	Rce/Ohm	Rwe-ce/Ohm		Ewe-Ece/V
1.00002e+06	2.05676	3.4878	4.04908	-59.4721	2.23355	3.78355	0.018524	0.045631	0.0338572	1	10	0.00020456	5.05202e-05	0	-2.55027e-06	0.000305258	0.000200995	-65.1869	3.9785	1.66962	3.61121	-62.3043	8.0176	3.72638	7.09901	0.12545	0.212735	0.24697	59.4721	33.8572	19.9657	39.3057	-30.528	0.0000000E+000	0.0000000E+000	0.0000000E+000	30.528	0.0000000E+000	0.0000000E+000	0.0000000E+000	-30.528	0.0000000E+000	0.0000000E+000	0.0000000E+000	-59.4721	0.0000000E+000	0.0000000E+000	0.0000000E+000	59.4721	0.589702	30.528	-2.55027e-06	7.00865e-05	5.6546e-09	7.00809e-05	3.78324	204251	16.479	204234
251206	1.04549	0.0335058	1.04602	-1.83559	4.93855	3.78333	0.0693153	18.909	0.0194012	1	9	0.00199434	0.00190659	0	3.93464e-05	0.000228865	7.95094e-05	68.735	0.0417024	0.0151247	-0.038863	0.289398	1.06062	1.06061	-0.00535713	0.955511	0.0306223	0.956002	1.83559	19.4012	605.377	605.688	-88.1644	0.0000000E+000	0.0000000E+000	0.0000000E+000	88.1644	0.0000000E+000	0.0000000E+000	0.0000000E+000	-88.1644	0.0000000E+000	0.0000000E+000	0.0000000E+000	-1.83559	0.0000000E+000	0.0000000E+000	0.0000000E+000	1.83559	31.2031	88.1644	4.44187e-06	0.000262242	1.58639e-08	0.000262227	3.7831	54581.4	3.3018	54578.1
63093.8	1.19669	0.220738	1.21687	-10.4512	7.11255	3.78324	0.0584385	11.4276	0.376026	1	9	0.0053039	0.00435862	0	8.90173e-05	3.78851e-05	2.54277e-05	54.5419	0.00583389	0.00338428	-0.00475194	-10.2027	1.21935	1.20007	0.215986	0.808144	0.149068	0.821778	10.4512	376.026	2038.55	2072.94	-79.5488	0.0000000E+000	0.0000000E+000	0.0000000E+000	79.5488	0.0000000E+000	0.0000000E+000	0.0000000E+000	-79.5488	0.0000000E+000	0.0000000E+000	0.0000000E+000	-10.4512	0.0000000E+000	0.0000000E+000	0.0000000E+000	10.4512	5.42131	79.5488	4.58655e-06	0.000221087	2.21395e-09	0.000221084	3.7832	64738.8	0.648291	64738.2
15847.7	1.43622	0.426278	1.49815	-16.5312	9.41253	3.78324	0.0551231	23.5592	1.90738	1	9	0.00528671	0.00352883	0	0.000122585	-7.67031e-05	7.37616e-06	80.6242	0.00209025	0.000340523	-0.00206233	-16.4518	1.49789	1.43656	0.424216	0.6399	0.189926	0.667491	16.5312	1907.38	6426.39	6703.47	-73.4688	0.0000000E+000	0.0000000E+000	0.0000000E+000	73.4688	0.0000000E+000	0.0000000E+000	0.0000000E+000	-73.4688	0.0000000E+000	0.0000000E+000	0.0000000E+000	-16.5312	0.0000000E+000	0.0000000E+000	0.0000000E+000	16.5312	3.36921	73.4688	7.05356e-06	0.000208544	-4.22812e-09	0.000208548	3.78331	68632.5	1.39149	68633.9
3983.6	1.8728	0.752413	2.01829	-21.8882	11.778	3.78323	0.0604126	53.0992	7.37959	1	9	0.00513438	0.00254392	0	0.000143729	0.000209767	6.81666e-06	-5.16834	0.00267958	0.00266869	0.000241383	-21.8664	2.02086	1.87547	0.752654	0.459752	0.184709	0.495468	21.8882	7379.59	18368.2	19795.2	-68.1118	0.0000000E+000	0.0000000E+000	0.0000000E+000	68.1118	0.0000000E+000	0.0000000E+000	0.0000000E+000	-68.1118	0.0000000E+000	0.0000000E+000	0.0000000E+000	-21.8882	0.0000000E+000	0.0000000E+000	0.0000000E+000	21.8882	2.48906	68.1118	5.59517e-06	0.000228555	1.26726e-08	0.000228542	3.78302	62623.2	3.47225	62619.7
1000.32	2.66513	1.31682	2.9727	-26.2937	14.7978	3.78321	0.0511001	120.824	23.7086	1	9	0.00485114	0.0016319	0	0.000187063	0.000152473	1.12113e-05	-53.2694	0.0068701	0.00410868	0.00550608	-26.3536	2.97883	2.66924	1.32233	0.301589	0.149013	0.336394	26.2937	23708.6	47984.1	53521.7	-63.7063	0.0000000E+000	0.0000000E+000	0.0000000E+000	63.7063	0.0000000E+000	0.0000000E+000	0.0000000E+000	-63.7063	0.0000000E+000	0.0000000E+000	0.0000000E+000	-26.2937	0.0000000E+000	0.0000000E+000	0.0000000E+000	26.2937	2.02391	63.7063	4.47509e-06	0.000193323	7.7914e-09	0.000193315	3.78306	74035.4	2.98382	74032.4
251.044	4.32683	2.09631	4.80791	-25.8498	17.745	3.78322	-0.0121567	302.422	57.4928	1	10	0.00463253	0.000963523	0	0.000177913	0.000209767	4.14517e-06	-49.4689	0.0043021	0.00279576	0.00326982	-25.8703	4.81185	4.32963	2.09958	0.187179	0.0906867	0.20799	25.8498	57492.8	118666	131860	-64.1502	0.0000000E+000	0.0000000E+000	0.0000000E+000	64.1502	0.0000000E+000	0.0000000E+000	0.0000000E+000	-64.1502	0.0000000E+000	0.0000000E+000	0.0000000E+000	-25.8498	0.0000000E+000	0.0000000E+000	0.0000000E+000	25.8498	2.06402	64.1502	-9.12785e-07	-4.59914e-05	-2.55008e-09	-4.59889e-05	3.78301	311204	17.2553	311187
63.0823	6.58738	1.67441	6.79686	-14.2617	20.467	3.78322	-0.0110164	1506.78	91.4449	1	10	0.00457034	0.00067242	0	0.000169814	-5.76051e-05	6.217e-06	23.3009	0.0092457	0.00849163	-0.00365722	-14.2142	6.80419	6.59587	1.67076	0.142592	0.0362449	0.147127	14.2617	91444.9	359757	371197	-75.7383	0.0000000E+000	0.0000000E+000	0.0000000E+000	75.7383	0.0000000E+000	0.0000000E+000	0.0000000E+000	-75.7383	0.0000000E+000	0.0000000E+000	0.0000000E+000	-14.2617	0.0000000E+000	0.0000000E+000	0.0000000E+000	14.2617	3.93414	75.7383	-1.60596e-06	-4.16774e-05	6.346e-10	-4.1678e-05	3.78328	343418	5.22904	343423
[...]
0.0602816	8.85675	1.39914	8.96658	-8.97711	241.216	3.78323	-0.0153606	1.887e+06	45945.6	1	11	0.00502704	0.000560642	0	-0.00310431	0.000171571	2.91328e-07	-24.0721	0.000519633	0.000474442	0.000211951	-8.97797	8.96708	8.85722	1.39936	0.110159	0.0174024	0.111525	8.97711	4.59456e+07	2.90841e+08	2.94448e+08	-81.0229	0.0000000E+000	0.0000000E+000	0.0000000E+000	81.0229	0.0000000E+000	0.0000000E+000	0.0000000E+000	-81.0229	0.0000000E+000	0.0000000E+000	0.0000000E+000	-8.97711	0.0000000E+000	0.0000000E+000	0.0000000E+000	8.97711	6.33012	81.0229	0.000000000000000E+000	-5.81125e-05	-2.63543e-09	-5.81099e-05	3.78306	246295	11.1696	246284
0.00796479	12.635	3.78911	13.1909	-16.6935	20330.1	3.78325	0.00145673	5.27362e+06	435144	1	11	0.0050182	0.000380428	0	-0.0101725	-1.9409e-05	1.73192e-07	-163.13	0.000455256	-0.000435664	0.000132117	-16.6946	13.1906	12.6346	3.78924	0.0726147	0.0217764	0.0758097	16.6935	4.35144e+08	1.45101e+09	1.51485e+09	-73.3065	0.0000000E+000	0.0000000E+000	0.0000000E+000	73.3065	0.0000000E+000	0.0000000E+000	0.0000000E+000	-73.3065	0.0000000E+000	0.0000000E+000	0.0000000E+000	-16.6935	0.0000000E+000	0.0000000E+000	0.0000000E+000	16.6935	3.33455	73.3065	-0.00706816	5.51116e-06	-2.82736e-11	5.51119e-06	3.78327	2.59709e+06	13.3237	2.59711e+06
0.0019912	16.4182	5.31824	17.2581	-17.9483	20330.1	3.78325	0.00145673	1.50293e+07	1.42721e+06	1	11	0.00503094	0.000291512	0	-0.0101725	-1.9409e-05	5.81552e-07	-136.774	0.00199495	-0.00145364	0.0013663	-17.9541	17.2571	16.4168	5.31961	0.055124	0.0178559	0.0579438	17.9483	1.42721e+09	4.40602e+09	4.63141e+09	-72.0517	0.0000000E+000	0.0000000E+000	0.0000000E+000	72.0517	0.0000000E+000	0.0000000E+000	0.0000000E+000	-72.0517	0.0000000E+000	0.0000000E+000	0.0000000E+000	-17.9483	0.0000000E+000	0.0000000E+000	0.0000000E+000	17.9483	3.08715	72.0517	0.000000000000000E+000	5.51116e-06	-2.82736e-11	5.51119e-06	3.78327	2.59709e+06	13.3237	2.59711e+06
0.000497799	18.9683	8.31994	20.7127	-23.6834	20330.1	3.78325	0.00145673	3.84278e+07	6.20028e+06	1	11	0.00503378	0.000243028	0	-0.0101725	-1.9409e-05	9.45435e-07	108.205	0.00389022	-0.00121537	-0.0036955	-23.6754	20.7101	18.9671	8.31625	0.0442133	0.019393	0.0482795	23.6834	6.20028e+09	1.41358e+10	1.54358e+10	-66.3166	0.0000000E+000	0.0000000E+000	0.0000000E+000	66.3166	0.0000000E+000	0.0000000E+000	0.0000000E+000	-66.3166	0.0000000E+000	0.0000000E+000	0.0000000E+000	-23.6834	0.0000000E+000	0.0000000E+000	0.0000000E+000	23.6834	2.27986	66.3166	0.000000000000000E+000	5.51116e-06	-2.82736e-11	5.51119e-06	3.78327	2.59709e+06	13.3237	2.59711e+06
9.95598e-05	22.4291	34.6736	41.2956	-57.1026	20330.1	3.78325	0.00145673	4.61038e+07	3.25033e+07	1	11	0.00503516	0.00012193	0	-0.0101725	-1.9409e-05	2.83528e-06	136.664	0.0232534	-0.0169133	-0.0159581	-57.1103	41.273	22.4122	34.6577	0.0131524	0.0203325	0.0242156	57.1026	3.25033e+10	2.10252e+10	3.87108e+10	-32.8974	0.0000000E+000	0.0000000E+000	0.0000000E+000	32.8974	0.0000000E+000	0.0000000E+000	0.0000000E+000	-32.8974	0.0000000E+000	0.0000000E+000	0.0000000E+000	-57.1026	0.0000000E+000	0.0000000E+000	0.0000000E+000	57.1026	0.646864	32.8974	0.000000000000000E+000	5.51116e-06	-2.82736e-11	5.51119e-06	3.78327	2.59709e+06	13.3237	2.59711e+06