Folder: EIS/txt (part 55)

File: 17697_R287_UA660_SOC00_C04.mpt
EC-Lab ASCII FILE

Nb header lines : 63

Potentio Electrochemical Impedance Spectroscopy

Run on channel : 4 (SN 66756)
User :
CE vs. WE compliance from -10 V to 10 V
Electrode connection : standard
Potential control : Ewe
Ewe ctrl range : min = -10.00 V, max = 10.00 V
Safety Limits :
	Do not start on E overload
Acquisition started on : 09/22/2025 09:04:03.651
Loaded Setting File :  C:\Users\Celltest\OneDrive - store-dot.com\Documents\EC-Lab\Data\Gyutae\17739_R277_UA674_SOC00_C03.mpr
Saved on :
	File : 17697_R287_UA660_SOC00_C04.mpr
	Directory : C:\Users\Celltest\OneDrive - store-dot.com\Documents\EC-Lab\Data\Charmaine\
	Host : 169.254.61.224
Device : VMP-3e (SN .003165)
Address : USB
EC-LAB for windows v11.62 (software)
Internet server v27.00 (firmware)
Command interpretor v12.03 (firmware)
Electrode material :
Initial state :
Electrolyte :
Comments :
Electrode surface area : 0.001 cm²
Characteristic mass : 0.001 g
Equivalent Weight : 0.000 g/eq.
Density : 0.000 g/cm3
Volume (V) : 0.001 cm³
Cycle Definition : Charge/Discharge alternance
Mode                Single sine
E (V)               0.0000
vs.                 Eoc
tE (h:m:s)          0:00:0.0000
record              0
dI                  0.000
unit dI             mA
dt (s)              0.000
fi                  100.000
unit fi             kHz
ff                  10.000
unit ff             mHz
Nd                  6
Points              per decade
spacing             Logarithmic
Va (mV)             5.0
pw                  0.10
Na                  2
corr                0
E range min (V)     -10.000
E range max (V)     10.000
I Range             Auto
Bandwidth           5
nc cycles           0
goto Ns'            0
nr cycles           0
inc. cycle          0

freq/Hz	Re(Z)/Ohm	-Im(Z)/Ohm	|Z|/Ohm	Phase(Z)/deg	time/s	<Ewe>/V	<I>/mA	Cs/µF	Cp/µF	cycle number	I Range	|Ewe|/V	|I|/A	Ns	(Q-Qo)/mA.h	Re(Y)/Ohm-1	Im(Y)/Ohm-1	|Y|/Ohm-1	Phase(Y)/deg	Re(C)/nF	Im(C)/nF	|C|/nF	Phase(C)/deg	Re(M)	Im(M)	|M|	Phase(M)/deg	Re(Permittivity)	Im(Permittivity)	|Permittivity|	Phase(Permittivity)/deg	Re(Resistivity)/Ohm.cm	Im(Resistivity)/Ohm.cm	|Resistivity|/Ohm.cm	Phase(Resistivity)/deg	Re(Conductivity)/mS/cm	Im(Conductivity)/mS/cm	|Conductivity|/mS/cm	Phase(Conductivity)/deg	Tan(Delta)	Loss Angle(Delta)/deg	dq/mA.h	Pwe/W	Rwe/Ohm
100004	1.20502	0.236427	1.22799	-11.1005	1.8655	0.260793	-0.0269326	6.73143	0.249523	1	9	0.00474245	0.00386196	0	-9.71047e-06	0.799102	0.156786	0.814338	11.1005	249.523	1271.76	1296.01	-78.8995	0.0000000E+000	0.0000000E+000	0.0000000E+000	78.8995	0.0000000E+000	0.0000000E+000	0.0000000E+000	-78.8995	0.0000000E+000	0.0000000E+000	0.0000000E+000	-11.1005	0.0000000E+000	0.0000000E+000	0.0000000E+000	11.1005	5.09679	78.8995	-9.71047e-06	-7.02383e-06	9683.19
46420.4	1.32439	0.262854	1.35022	-11.2257	3.0215	0.260791	-0.0253101	13.0436	0.494329	1	9	0.00506086	0.00374817	0	-1.75564e-05	0.726449	0.14418	0.740619	11.2257	494.329	2490.67	2539.25	-78.7743	0.0000000E+000	0.0000000E+000	0.0000000E+000	78.7743	0.0000000E+000	0.0000000E+000	0.0000000E+000	-78.7743	0.0000000E+000	0.0000000E+000	0.0000000E+000	-11.2257	0.0000000E+000	0.0000000E+000	0.0000000E+000	11.2257	5.0385	78.7743	-4.09622e-06	-6.60065e-06	10303.8
21544.7	1.44948	0.316865	1.48371	-12.3312	4.03648	0.260834	-0.0194358	23.3134	1.06331	1	9	0.00532254	0.00358733	0	-1.2258e-05	0.658439	0.143939	0.673988	12.3312	1063.31	4864.02	4978.89	-77.6688	0.0000000E+000	0.0000000E+000	0.0000000E+000	77.6688	0.0000000E+000	0.0000000E+000	0.0000000E+000	-77.6688	0.0000000E+000	0.0000000E+000	0.0000000E+000	-12.3312	0.0000000E+000	0.0000000E+000	0.0000000E+000	12.3312	4.57443	77.6688	2.62155e-06	-5.06952e-06	13420.3
10002.2	1.57816	0.397743	1.62751	-14.1456	4.7695	0.260858	-0.0284991	40.0056	2.38934	1	9	0.004806	0.00295297	0	-1.73645e-05	0.595804	0.15016	0.614435	14.1456	2389.34	9480.41	9776.86	-75.8544	0.0000000E+000	0.0000000E+000	0.0000000E+000	75.8544	0.0000000E+000	0.0000000E+000	0.0000000E+000	-75.8544	0.0000000E+000	0.0000000E+000	0.0000000E+000	-14.1456	0.0000000E+000	0.0000000E+000	0.0000000E+000	14.1456	3.96779	75.8544	-1.81977e-06	-7.43422e-06	9153.21
4641.49	1.74616	0.557582	1.83302	-17.7093	5.84171	0.260798	0.00387497	61.497	5.69033	1	9	0.00504652	0.00275312	0	-2.80324e-05	0.519695	0.165949	0.545548	17.7093	5690.33	17820.2	18706.6	-72.2907	0.0000000E+000	0.0000000E+000	0.0000000E+000	72.2907	0.0000000E+000	0.0000000E+000	0.0000000E+000	-72.2907	0.0000000E+000	0.0000000E+000	0.0000000E+000	-17.7093	0.0000000E+000	0.0000000E+000	0.0000000E+000	17.7093	3.13166	72.2907	7.4758e-07	1.01058e-06	67303.1
2155.69	1.97824	0.820839	2.14178	-22.5352	6.77569	0.260885	-0.00375233	89.9447	13.2112	1	9	0.0049357	0.00230449	0	-2.84206e-05	0.431251	0.178941	0.466902	22.5352	13211.2	31839.4	34471.5	-67.4648	0.0000000E+000	0.0000000E+000	0.0000000E+000	67.4648	0.0000000E+000	0.0000000E+000	0.0000000E+000	-67.4648	0.0000000E+000	0.0000000E+000	0.0000000E+000	-22.5352	0.0000000E+000	0.0000000E+000	0.0000000E+000	22.5352	2.41002	67.4648	6.81659e-07	-9.78926e-07	69526
1000.32	2.31969	1.26762	2.64345	-28.655	7.71169	0.260805	-0.00651235	125.514	28.8622	1	9	0.00488939	0.00184963	0	-3.06354e-05	0.331962	0.181405	0.378294	28.655	28862.2	52816.5	60188.1	-61.345	0.0000000E+000	0.0000000E+000	0.0000000E+000	61.345	0.0000000E+000	0.0000000E+000	0.0000000E+000	-61.345	0.0000000E+000	0.0000000E+000	0.0000000E+000	-28.655	0.0000000E+000	0.0000000E+000	0.0000000E+000	28.655	1.82995	61.345	-8.20454e-07	-1.69845e-06	40047.7
463.961	2.90527	2.00197	3.52824	-34.5701	8.90019	0.260773	-0.0252555	171.349	55.1672	1	10	0.00493186	0.00139782	0	-3.37887e-05	0.233383	0.160821	0.283427	34.5701	55167.2	80058.8	97225.6	-55.4299	0.0000000E+000	0.0000000E+000	0.0000000E+000	55.4299	0.0000000E+000	0.0000000E+000	0.0000000E+000	-55.4299	0.0000000E+000	0.0000000E+000	0.0000000E+000	-34.5701	0.0000000E+000	0.0000000E+000	0.0000000E+000	34.5701	1.4512	55.4299	-1.37826e-06	-6.58597e-06	10325.4
215.345	3.91458	3.09287	4.98897	-38.3119	9.83444	0.260769	-0.0262683	238.959	91.8389	1	10	0.00489032	0.000980227	0	-4.118e-05	0.157276	0.124263	0.200442	38.3119	91838.9	116238	148141	-51.6881	0.0000000E+000	0.0000000E+000	0.0000000E+000	51.6881	0.0000000E+000	0.0000000E+000	0.0000000E+000	-51.6881	0.0000000E+000	0.0000000E+000	0.0000000E+000	-38.3119	0.0000000E+000	0.0000000E+000	0.0000000E+000	38.3119	1.26568	51.6881	-4.00826e-06	-6.84994e-06	9927.14
100.032	5.64359	4.52321	7.23253	-38.7114	10.7657	0.260765	-0.0253619	351.75	137.577	1	10	0.00487511	0.000674053	0	-4.69097e-05	0.107888	0.0864701	0.138264	38.7114	137577	171655	219984	-51.2886	0.0000000E+000	0.0000000E+000	0.0000000E+000	51.2886	0.0000000E+000	0.0000000E+000	0.0000000E+000	-51.2886	0.0000000E+000	0.0000000E+000	0.0000000E+000	-38.7114	0.0000000E+000	0.0000000E+000	0.0000000E+000	38.7114	1.2477	51.2886	-2.73238e-06	-6.61349e-06	10281.8
46.4415	8.47886	5.91128	10.3361	-34.8834	11.6996	0.260797	-0.0292991	579.738	189.62	1	10	0.00486832	0.000471003	0	-5.30401e-05	0.0793646	0.0553313	0.0967486	34.8834	189620	271982	331557	-55.1166	0.0000000E+000	0.0000000E+000	0.0000000E+000	55.1166	0.0000000E+000	0.0000000E+000	0.0000000E+000	-55.1166	0.0000000E+000	0.0000000E+000	0.0000000E+000	-34.8834	0.0000000E+000	0.0000000E+000	0.0000000E+000	34.8834	1.43435	55.1166	-3.50879e-06	-7.6411e-06	8901.2
[...]
0.464091	24.3122	3.21415	24.5237	-7.53102	28.7238	0.260828	-0.00859056	106697	1832.78	1	12	0.00488024	0.000199001	0	-9.52591e-05	0.0404251	0.00534434	0.0407769	7.53102	1.83278e+06	1.38634e+07	1.3984e+07	-82.469	0.0000000E+000	0.0000000E+000	0.0000000E+000	82.469	0.0000000E+000	0.0000000E+000	0.0000000E+000	-82.469	0.0000000E+000	0.0000000E+000	0.0000000E+000	-7.53102	0.0000000E+000	0.0000000E+000	0.0000000E+000	7.53102	7.56411	82.469	1.27231e-06	-2.24066e-06	30362.1
0.215268	25.4701	3.0338	25.6502	-6.79261	45.2038	0.260833	-0.00602073	243699	3409.16	1	12	0.00487231	0.000189952	0	-9.66963e-05	0.0387125	0.00461112	0.0389861	6.79261	3.40916e+06	2.86215e+07	2.88238e+07	-83.2074	0.0000000E+000	0.0000000E+000	0.0000000E+000	83.2074	0.0000000E+000	0.0000000E+000	0.0000000E+000	-83.2074	0.0000000E+000	0.0000000E+000	0.0000000E+000	-6.79261	0.0000000E+000	0.0000000E+000	0.0000000E+000	6.79261	8.39546	83.2074	-4.15283e-06	-1.5704e-06	43322.5
0.0999041	26.4925	3.43559	26.7143	-7.38899	80.6094	0.260827	-0.00345346	463698	7669.22	1	12	0.0048691	0.000182266	0	-0.000179978	0.0371223	0.00481409	0.0374331	7.38899	7.66922e+06	5.91387e+07	5.96339e+07	-82.611	0.0000000E+000	0.0000000E+000	0.0000000E+000	82.611	0.0000000E+000	0.0000000E+000	0.0000000E+000	-82.611	0.0000000E+000	0.0000000E+000	0.0000000E+000	-7.38899	0.0000000E+000	0.0000000E+000	0.0000000E+000	7.38899	7.71117	82.611	-5.85711e-05	-9.00754e-07	75526.3
0.0464052	27.7312	4.68734	28.1246	-9.59389	156.846	0.260821	-0.00279269	731689	20323.9	1	12	0.00486789	0.000173083	0	-0.000401496	0.0350588	0.0059259	0.0355561	9.59389	2.03239e+07	1.2024e+08	1.21946e+08	-80.4061	0.0000000E+000	0.0000000E+000	0.0000000E+000	80.4061	0.0000000E+000	0.0000000E+000	0.0000000E+000	-80.4061	0.0000000E+000	0.0000000E+000	0.0000000E+000	-9.59389	0.0000000E+000	0.0000000E+000	0.0000000E+000	9.59389	5.91619	80.4061	-0.000128299	-7.28393e-07	93394.2
0.0215268	29.4943	7.53333	30.4412	-14.3279	321.075	0.260833	-0.0030602	981417	60104.1	1	12	0.00487029	0.00015999	0	-0.000538723	0.0318284	0.00812949	0.0328502	14.3279	6.01041e+07	2.35318e+08	2.42873e+08	-75.6721	0.0000000E+000	0.0000000E+000	0.0000000E+000	75.6721	0.0000000E+000	0.0000000E+000	0.0000000E+000	-75.6721	0.0000000E+000	0.0000000E+000	0.0000000E+000	-14.3279	0.0000000E+000	0.0000000E+000	0.0000000E+000	14.3279	3.91518	75.6721	-2.24053e-05	-7.982e-07	85233.9
0.0146812	30.6048	9.45559	32.0322	-17.1689	464.271	0.260837	-0.00227066	1.14649e+06	99902	1	12	0.00487186	0.000152093	0	-0.000389878	0.0298274	0.00921542	0.0312186	17.1689	9.9902e+07	3.23352e+08	3.38433e+08	-72.8311	0.0000000E+000	0.0000000E+000	0.0000000E+000	72.8311	0.0000000E+000	0.0000000E+000	0.0000000E+000	-72.8311	0.0000000E+000	0.0000000E+000	0.0000000E+000	-17.1689	0.0000000E+000	0.0000000E+000	0.0000000E+000	17.1689	3.23669	72.8311	0.000148846	-5.92272e-07	114872

0.0100092	32.0777	11.8627	34.2009	-20.2949	674.291	0.260819	-0.0013536	1.34042e+06	161261	1	12	0.00486624	0.000142284	0	-7.22541e-05	0.0274238	0.0101416	0.029239	20.2949	1.61261e+08	4.36064e+08	4.64927e+08	-69.7051	0.0000000E+000	0.0000000E+000	0.0000000E+000	69.7051	0.0000000E+000	0.0000000E+000	0.0000000E+000	-69.7051	0.0000000E+000	0.0000000E+000	0.0000000E+000	-20.2949	0.0000000E+000	0.0000000E+000	0.0000000E+000	20.2949	2.70409	69.7051	0.000317623	-3.53046e-07	192685

File: 17698_R287_UA660_SOC00_C05.mpt
EC-Lab ASCII FILE
Nb header lines : 63

Potentio Electrochemical Impedance Spectroscopy

Run on channel : 5 (SN 65912)
User :
CE vs. WE compliance from -10 V to 10 V
Electrode connection : standard
Potential control : Ewe
Ewe ctrl range : min = -10.00 V, max = 10.00 V
Safety Limits :
	Do not start on E overload
Acquisition started on : 09/22/2025 09:04:13.605
Loaded Setting File :  C:\Users\Celltest\OneDrive - store-dot.com\Documents\EC-Lab\Data\Gyutae\17740_R277_UA674_SOC00_C04.mpr
Saved on :
	File : 17698_R287_UA660_SOC00_C05.mpr
	Directory : C:\Users\Celltest\OneDrive - store-dot.com\Documents\EC-Lab\Data\Charmaine\
	Host : 169.254.61.224
Device : VMP-3e (SN .003165)
Address : USB
EC-LAB for windows v11.62 (software)
Internet server v27.00 (firmware)
Command interpretor v12.03 (firmware)
Electrode material :
Initial state :
Electrolyte :
Comments :
Electrode surface area : 0.001 cm²
Characteristic mass : 0.001 g
Equivalent Weight : 0.000 g/eq.
Density : 0.000 g/cm3
Volume (V) : 0.001 cm³
Cycle Definition : Charge/Discharge alternance
Mode                Single sine
E (V)               0.0000
vs.                 Eoc
tE (h:m:s)          0:00:0.0000
record              0
dI                  0.000
unit dI             mA
dt (s)              0.000
fi                  100.000
unit fi             kHz
ff                  10.000
unit ff             mHz
Nd                  6
Points              per decade
spacing             Logarithmic
Va (mV)             5.0
pw                  0.10
Na                  2
corr                0
E range min (V)     -10.000
E range max (V)     10.000
I Range             Auto
Bandwidth           5
nc cycles           0
goto Ns'            0
nr cycles           0
inc. cycle          0

freq/Hz	Re(Z)/Ohm	-Im(Z)/Ohm	|Z|/Ohm	Phase(Z)/deg	time/s	<Ewe>/V	<I>/mA	Cs/µF	Cp/µF	cycle number	I Range	|Ewe|/V	|I|/A	Ns	(Q-Qo)/mA.h	Re(Y)/Ohm-1	Im(Y)/Ohm-1	|Y|/Ohm-1	Phase(Y)/deg	Re(C)/nF	Im(C)/nF	|C|/nF	Phase(C)/deg	Re(M)	Im(M)	|M|	Phase(M)/deg	Re(Permittivity)	Im(Permittivity)	|Permittivity|	Phase(Permittivity)/deg	Re(Resistivity)/Ohm.cm	Im(Resistivity)/Ohm.cm	|Resistivity|/Ohm.cm	Phase(Resistivity)/deg	Re(Conductivity)/mS/cm	Im(Conductivity)/mS/cm	|Conductivity|/mS/cm	Phase(Conductivity)/deg	Tan(Delta)	Loss Angle(Delta)/deg	dq/mA.h	Pwe/W	Rwe/Ohm
100004	1.35543	0.219318	1.37306	-9.19119	1.8765	0.280646	-0.0119569	7.25654	0.18514	1	9	0.00545943	0.00397611	0	6.5572e-07	0.71895	0.116331	0.728301	9.19119	185.14	1144.2	1159.08	-80.8088	0.0000000E+000	0.0000000E+000	0.0000000E+000	80.8088	0.0000000E+000	0.0000000E+000	0.0000000E+000	-80.8088	0.0000000E+000	0.0000000E+000	0.0000000E+000	-9.19119	0.0000000E+000	0.0000000E+000	0.0000000E+000	9.19119	6.18021	80.8088	6.5572e-07	-3.35564e-06	23471.5
46420.4	1.47475	0.31622	1.50827	-12.1023	2.89149	0.280593	-0.0168167	10.8423	0.476589	1	9	0.00546349	0.00362236	0	-7.35406e-06	0.648277	0.139006	0.663013	12.1023	476.589	2222.66	2273.18	-77.8977	0.0000000E+000	0.0000000E+000	0.0000000E+000	77.8977	0.0000000E+000	0.0000000E+000	0.0000000E+000	-77.8977	0.0000000E+000	0.0000000E+000	0.0000000E+000	-12.1023	0.0000000E+000	0.0000000E+000	0.0000000E+000	12.1023	4.66368	77.8977	-4.06334e-06	-4.71863e-06	16685.4
21544.7	1.63431	0.41218	1.68548	-14.1551	3.90648	0.280573	-0.0208199	17.9223	1.07181	1	9	0.00542843	0.0032207	0	-1.12623e-05	0.575287	0.14509	0.593301	14.1551	1071.81	4249.76	4382.84	-75.8449	0.0000000E+000	0.0000000E+000	0.0000000E+000	75.8449	0.0000000E+000	0.0000000E+000	0.0000000E+000	-75.8449	0.0000000E+000	0.0000000E+000	0.0000000E+000	-14.1551	0.0000000E+000	0.0000000E+000	0.0000000E+000	14.1551	3.96504	75.8449	-2.50023e-06	-5.84152e-06	13476.2
10002.2	1.8358	0.547474	1.9157	-16.6057	4.92247	0.280566	-0.0131486	29.0643	2.37374	1	9	0.00544429	0.00284194	0	-1.40833e-05	0.500233	0.14918	0.522003	16.6057	2373.74	7959.68	8306.09	-73.3943	0.0000000E+000	0.0000000E+000	0.0000000E+000	73.3943	0.0000000E+000	0.0000000E+000	0.0000000E+000	-73.3943	0.0000000E+000	0.0000000E+000	0.0000000E+000	-16.6057	0.0000000E+000	0.0000000E+000	0.0000000E+000	16.6057	3.35322	73.3943	-3.41654e-06	-3.68904e-06	21338.2
4641.49	2.09134	0.733763	2.21633	-19.3338	6.17069	0.280566	-0.0196469	46.7313	5.12213	1	9	0.00544481	0.00245668	0	-1.49626e-05	0.425752	0.149378	0.451197	19.3338	5122.13	14598.9	15471.4	-70.6662	0.0000000E+000	0.0000000E+000	0.0000000E+000	70.6662	0.0000000E+000	0.0000000E+000	0.0000000E+000	-70.6662	0.0000000E+000	0.0000000E+000	0.0000000E+000	-19.3338	0.0000000E+000	0.0000000E+000	0.0000000E+000	19.3338	2.85016	70.6662	-2.07977e-06	-5.51226e-06	14280.4
2155.69	2.42489	1.0234	2.632	-22.8817	7.5507	0.280558	-0.02905	72.1422	10.907	1	9	0.00516423	0.00196209	0	-3.03047e-05	0.350042	0.147732	0.37994	22.8817	10907	25843.7	28051	-67.1183	0.0000000E+000	0.0000000E+000	0.0000000E+000	67.1183	0.0000000E+000	0.0000000E+000	0.0000000E+000	-67.1183	0.0000000E+000	0.0000000E+000	0.0000000E+000	-22.8817	0.0000000E+000	0.0000000E+000	0.0000000E+000	22.8817	2.36945	67.1183	-8.15852e-06	-8.1502e-06	9657.76
1000.32	2.86965	1.47405	3.2261	-27.1882	8.4867	0.280562	-0.0220303	107.936	22.5339	1	9	0.0054312	0.00168352	0	-3.62138e-05	0.275723	0.14163	0.309971	27.1882	22534	43868.6	49317.7	-62.8118	0.0000000E+000	0.0000000E+000	0.0000000E+000	62.8118	0.0000000E+000	0.0000000E+000	0.0000000E+000	-62.8118	0.0000000E+000	0.0000000E+000	0.0000000E+000	-27.1882	0.0000000E+000	0.0000000E+000	0.0000000E+000	27.1882	1.94678	62.8118	-2.11942e-06	-6.18085e-06	12735.3
463.961	3.52471	2.20976	4.16013	-32.085	9.6752	0.280569	-0.0116806	155.236	43.7997	1	10	0.00526111	0.00126465	0	-4.10833e-05	0.203662	0.127683	0.240377	32.085	43799.7	69863.4	82457.9	-57.915	0.0000000E+000	0.0000000E+000	0.0000000E+000	57.915	0.0000000E+000	0.0000000E+000	0.0000000E+000	-57.915	0.0000000E+000	0.0000000E+000	0.0000000E+000	-32.085	0.0000000E+000	0.0000000E+000	0.0000000E+000	32.085	1.59506	57.915	-1.99907e-06	-3.27721e-06	24020.1
215.345	4.58118	3.34248	5.67093	-36.1149	10.6095	0.280564	-0.0118761	221.115	76.8152	1	10	0.00510708	0.000900572	0	-4.33867e-05	0.142452	0.103935	0.176338	36.1149	76815.1	105282	130326	-53.8851	0.0000000E+000	0.0000000E+000	0.0000000E+000	53.8851	0.0000000E+000	0.0000000E+000	0.0000000E+000	-53.8851	0.0000000E+000	0.0000000E+000	0.0000000E+000	-36.1149	0.0000000E+000	0.0000000E+000	0.0000000E+000	36.1149	1.37059	53.8851	-7.85969e-07	-3.332e-06	23624.3
100.032	6.37724	4.94673	8.0709	-37.8002	11.5407	0.280572	-0.0114051	321.635	120.825	1	10	0.00503575	0.000623939	0	-4.65386e-05	0.0979015	0.0759407	0.123902	37.8002	120825	155765	197133	-52.1998	0.0000000E+000	0.0000000E+000	0.0000000E+000	52.1998	0.0000000E+000	0.0000000E+000	0.0000000E+000	-52.1998	0.0000000E+000	0.0000000E+000	0.0000000E+000	-37.8002	0.0000000E+000	0.0000000E+000	0.0000000E+000	37.8002	1.28918	52.1998	-1.65963e-06	-3.19995e-06	24600.6
46.4415	9.43431	6.71217	11.5784	-35.4305	12.4746	0.280564	-0.0115782	510.564	171.585	1	10	0.00501542	0.00043317	0	-4.93572e-05	0.0703741	0.0500686	0.0863677	35.4305	171585	241172	295982	-54.5695	0.0000000E+000	0.0000000E+000	0.0000000E+000	54.5695	0.0000000E+000	0.0000000E+000	0.0000000E+000	-54.5695	0.0000000E+000	0.0000000E+000	0.0000000E+000	-35.4305	0.0000000E+000	0.0000000E+000	0.0000000E+000	35.4305	1.40555	54.5695	-1.25774e-06	-3.24844e-06	24232
[...]
1.00006	27.2428	4.93501	27.6861	-10.2677	21.7952	0.280574	-0.006089	32248.1	1024.6	1	12	0.00500686	0.000180844	0	-7.68406e-05	0.0355407	0.00643818	0.0361192	10.2677	1.0246e+06	5.65612e+06	5.74818e+06	-79.7323	0.0000000E+000	0.0000000E+000	0.0000000E+000	79.7323	0.0000000E+000	0.0000000E+000	0.0000000E+000	-79.7323	0.0000000E+000	0.0000000E+000	0.0000000E+000	-10.2677	0.0000000E+000	0.0000000E+000	0.0000000E+000	10.2677	5.52031	79.7323	-1.1108e-05	-1.70841e-06	46078.8
0.464091	29.3353	4.29061	29.6474	-8.32115	29.4798	0.280573	-0.00623633	79927.9	1674.03	1	12	0.00501014	0.000168991	0	-8.11257e-05	0.0333747	0.00488143	0.0337298	8.32115	1.67403e+06	1.14455e+07	1.15673e+07	-81.6788	0.0000000E+000	0.0000000E+000	0.0000000E+000	81.6788	0.0000000E+000	0.0000000E+000	0.0000000E+000	-81.6788	0.0000000E+000	0.0000000E+000	0.0000000E+000	-8.32115	0.0000000E+000	0.0000000E+000	0.0000000E+000	8.32115	6.83708	81.6788	7.11139e-07	-1.74974e-06	44990.1
0.215268	30.987	3.93217	31.2355	-7.23204	45.9599	0.280569	-0.00481374	188022	2979.73	1	12	0.00500791	0.000160327	0	-7.38773e-05	0.0317602	0.00403029	0.0320149	7.23204	2.97973e+06	2.34814e+07	2.36697e+07	-82.768	0.0000000E+000	0.0000000E+000	0.0000000E+000	82.768	0.0000000E+000	0.0000000E+000	0.0000000E+000	-82.768	0.0000000E+000	0.0000000E+000	0.0000000E+000	-7.23204	0.0000000E+000	0.0000000E+000	0.0000000E+000	7.23204	7.88037	82.768	2.47131e-06	-1.35059e-06	58285
0.0999041	32.4847	4.39059	32.7801	-7.69738	81.3671	0.280575	-0.00249762	362839	6509.38	1	12	0.00500576	0.000152707	0	-0.000120611	0.0302314	0.00408604	0.0305063	7.69738	6.50938e+06	4.8161e+07	4.85989e+07	-82.3026	0.0000000E+000	0.0000000E+000	0.0000000E+000	82.3026	0.0000000E+000	0.0000000E+000	0.0000000E+000	-82.3026	0.0000000E+000	0.0000000E+000	0.0000000E+000	-7.69738	0.0000000E+000	0.0000000E+000	0.0000000E+000	7.69738	7.39871	82.3026	-3.66268e-05	-7.00771e-07	112337
0.0464052	34.15	5.71301	34.6246	-9.49716	157.603	0.280576	-0.00188893	600328	16343.7	1	12	0.00500805	0.000144639	0	-0.000301894	0.0284854	0.00476537	0.0288812	9.49716	1.63437e+07	9.76957e+07	9.90533e+07	-80.5028	0.0000000E+000	0.0000000E+000	0.0000000E+000	80.5028	0.0000000E+000	0.0000000E+000	0.0000000E+000	-80.5028	0.0000000E+000	0.0000000E+000	0.0000000E+000	-9.49716	0.0000000E+000	0.0000000E+000	0.0000000E+000	9.49716	5.97758	80.5028	-0.000111483	-5.2999e-07	148537
0.0215268	36.6901	8.68023	37.703	-13.3104	321.833	0.280572	-0.00246971	851746	45146.2	1	12	0.00500847	0.00013284	0	-0.000492283	0.0258106	0.00610633	0.0265231	13.3104	4.51462e+07	1.90827e+08	1.96095e+08	-76.6896	0.0000000E+000	0.0000000E+000	0.0000000E+000	76.6896	0.0000000E+000	0.0000000E+000	0.0000000E+000	-76.6896	0.0000000E+000	0.0000000E+000	0.0000000E+000	-13.3104	0.0000000E+000	0.0000000E+000	0.0000000E+000	13.3104	4.22687	76.6896	-6.85664e-05	-6.92932e-07	113605
0.0100092	39.9418	13.2599	42.0853	-18.3651	675.05	0.280571	-0.00150069	1.19917e+06	119042	1	12	0.00500967	0.000119036	0	-0.000195125	0.022551	0.0074865	0.0237613	18.3651	1.19042e+08	3.58582e+08	3.77826e+08	-71.6349	0.0000000E+000	0.0000000E+000	0.0000000E+000	71.6349	0.0000000E+000	0.0000000E+000	0.0000000E+000	-71.6349	0.0000000E+000	0.0000000E+000	0.0000000E+000	-18.3651	0.0000000E+000	0.0000000E+000	0.0000000E+000	18.3651	3.01223	71.6349	0.00023547	-4.21049e-07	186962