Folder: EIS/txt (part 117)

File: 18721_R302_UA698_SOC00_C01.mpt
EC-Lab ASCII FILE
Nb header lines : 65

Potentio Electrochemical Impedance Spectroscopy

Run on channel : 1 (SN 66354)
User :
CE vs. WE compliance from -10 V to 10 V
Electrode connection : standard
Potential control : Ewe
Ewe ctrl range : min = -10.00 V, max = 10.00 V
Safety Limits :
	Do not start on E overload
Acquisition started on : 10/31/2025 10:59:19.911
Technique started on : 10/31/2025 10:59:21.822
Loaded Setting File :  C:\Users\Celltest\OneDrive - store-dot.com\Documents\EC-Lab\Data\@Biologic Test Protocols\anode half cell EIS SOC00.mps
Saved on :
	File : 18721_R302_UA698_SOC00_C01.mpr
	Directory : C:\Users\Celltest\OneDrive - store-dot.com\Documents\EC-Lab\Data\Charmaine\
	Host : 169.254.61.224
Device : VMP-3e (SN .003165)
Address : USB
EC-LAB for windows v11.62 (software)
Internet server v27.00 (firmware)
Command interpretor v12.03 (firmware)
Electrode material :
Initial state :
Electrolyte :
Comments :
Electrode surface area : 0.001 cm²
Characteristic mass : 0.001 g
Equivalent Weight : 0.000 g/eq.
Density : 0.000 g/cm3
Volume (V) : 0.001 cm³
Record Ece
Cycle Definition : Charge/Discharge alternance
Mode                Single sine
E (V)               0.0000
vs.                 Eoc
tE (h:m:s)          0:00:0.0000
record              0
dI                  0.000
unit dI             mA
dt (s)              0.000
fi                  100.000
unit fi             kHz
ff                  10.000
unit ff             mHz
Nd                  6
Points              per decade
spacing             Logarithmic
Va (mV)             5.0
pw                  0.10
Na                  2
corr                0
E range min (V)     -10.000
E range max (V)     10.000
I Range             Auto
Bandwidth           5
nc cycles           0
goto Ns'            0
nr cycles           0
inc. cycle          0

freq/Hz	Re(Z)/Ohm	-Im(Z)/Ohm	|Z|/Ohm	Phase(Z)/deg	time/s	<Ewe>/V	<I>/mA	Cs/µF	Cp/µF	cycle number	I Range	|Ewe|/V	|I|/A	Ns	(Q-Qo)/mA.h	<Ece>/V	|Ece|/V	Phase(Zce)/deg	|Zce|/Ohm	Re(Zce)/Ohm	-Im(Zce)/Ohm	Phase(Zwe-ce)/deg	|Zwe-ce|/Ohm	Re(Zwe-ce)/Ohm	-Im(Zwe-ce)/Ohm	Re(Y)/Ohm-1	Im(Y)/Ohm-1	|Y|/Ohm-1	Phase(Y)/deg	Re(C)/nF	Im(C)/nF	|C|/nF	Phase(C)/deg	Re(M)	Im(M)	|M|	Phase(M)/deg	Re(Permittivity)	Im(Permittivity)	|Permittivity|	Phase(Permittivity)/deg	Re(Resistivity)/Ohm.cm	Im(Resistivity)/Ohm.cm	|Resistivity|/Ohm.cm	Phase(Resistivity)/deg	Re(Conductivity)/mS/cm	Im(Conductivity)/mS/cm	|Conductivity|/mS/cm	Phase(Conductivity)/deg	Tan(Delta)	Loss Angle(Delta)/deg	dq/mA.h	Pwe/W	Pce/W	Pwe-ce/W	<Ewe-Ece>/V	Rwe/Ohm	Rce/Ohm	Rwe-ce/Ohm		Ewe-Ece/V
100004	1.26917	0.648754	1.42537	-27.0745	1.91051	0.264325	0.0710022	2.45315	0.508194	1	9	0.00481153	0.00337564	0	1.39242e-05	-7.39696e-05	4.2086e-05	82.5989	0.0124675	0.00160601	-0.0123637	-26.6012	1.42122	1.27078	0.636391	0.624691	0.31932	0.701573	27.0745	508.194	994.19	1116.55	-62.9255	0.0000000E+000	0.0000000E+000	0.0000000E+000	62.9255	0.0000000E+000	0.0000000E+000	0.0000000E+000	-62.9255	0.0000000E+000	0.0000000E+000	0.0000000E+000	-27.0745	0.0000000E+000	0.0000000E+000	0.0000000E+000	27.0745	1.95632	62.9255	1.39242e-05	1.87677e-05	-5.252e-09	1.87729e-05	0.264399	3722.78	1.04179	3723.82
31621.1	1.85446	0.87602	2.05096	-25.2854	3.43354	0.264331	0.0656376	5.74551	1.0482	1	9	0.00500949	0.00244252	0	4.92186e-05	0.000135881	7.61083e-06	18.1373	0.00311598	0.00296115	-0.000969989	-25.2256	2.05322	1.85742	0.87505	0.440864	0.208258	0.487578	25.2854	1048.2	2218.95	2454.07	-64.7146	0.0000000E+000	0.0000000E+000	0.0000000E+000	64.7146	0.0000000E+000	0.0000000E+000	0.0000000E+000	-64.7146	0.0000000E+000	0.0000000E+000	0.0000000E+000	-25.2854	0.0000000E+000	0.0000000E+000	0.0000000E+000	25.2854	2.11691	64.7146	1.94942e-05	1.735e-05	8.91889e-09	1.73411e-05	0.264195	4027.12	2.07017	4025.05
10002.2	2.49948	1.08472	2.7247	-23.4598	4.33654	0.26432	0.0689904	14.6692	2.3249	1	9	0.00463621	0.00170155	0	6.82346e-05	5.95716e-05	7.17561e-06	-112.442	0.00421711	-0.00160989	0.00389772	-23.5485	2.72478	2.49787	1.08862	0.336675	0.14611	0.367013	23.4598	2324.9	5357.16	5839.89	-66.5402	0.0000000E+000	0.0000000E+000	0.0000000E+000	66.5402	0.0000000E+000	0.0000000E+000	0.0000000E+000	-66.5402	0.0000000E+000	0.0000000E+000	0.0000000E+000	-23.4598	0.0000000E+000	0.0000000E+000	0.0000000E+000	23.4598	2.30426	66.5402	4.12873e-06	1.82356e-05	4.10987e-09	1.82315e-05	0.264261	3831.26	0.863476	3830.4
3163.08	3.18321	1.62867	3.57567	-27.0963	5.35768	0.264098	0.0531946	30.8942	6.40958	1	9	0.00465503	0.00130186	0	8.43341e-05	0.000174035	9.3934e-06	-41.8738	0.00721535	0.00537267	0.00481618	-27.1257	3.58264	3.18858	1.63349	0.248972	0.127385	0.279668	27.0963	6409.57	12527.4	14071.9	-62.9037	0.0000000E+000	0.0000000E+000	0.0000000E+000	62.9037	0.0000000E+000	0.0000000E+000	0.0000000E+000	-62.9037	0.0000000E+000	0.0000000E+000	0.0000000E+000	-27.0963	0.0000000E+000	0.0000000E+000	0.0000000E+000	27.0963	1.95448	62.9037	6.41045e-06	1.40486e-05	9.25774e-09	1.40393e-05	0.263924	4964.76	3.27167	4961.48
1000.32	4.19038	3.07684	5.19867	-36.2885	6.95577	0.264221	-0.0101079	51.7102	18.1134	1	10	0.00467049	0.000898401	0	8.85718e-05	2.1417e-05	1.1342e-05	7.68548	0.0126247	0.0125113	-0.00168836	-36.192	5.20776	4.20289	3.07515	0.155049	0.113847	0.192357	36.2885	18113.4	24668.9	30604.7	-53.7115	0.0000000E+000	0.0000000E+000	0.0000000E+000	53.7115	0.0000000E+000	0.0000000E+000	0.0000000E+000	-53.7115	0.0000000E+000	0.0000000E+000	0.0000000E+000	-36.2885	0.0000000E+000	0.0000000E+000	0.0000000E+000	36.2885	1.36191	53.7115	-1.84421e-06	-2.67072e-06	-2.1648e-10	-2.6705e-06	0.2642	26140.1	2.11883	26138
316.316	6.43808	6.64551	9.25266	-45.9083	8.30604	0.264222	-0.0102756	75.7131	39.0566	1	10	0.00459074	0.000496153	0	8.55656e-05	-3.5815e-05	4.67628e-06	13.248	0.00942507	0.00917425	-0.00215991	-45.8582	9.25749	6.44726	6.64335	0.075201	0.0776239	0.108077	45.9083	39056.6	37837.5	54379.2	-44.0917	0.0000000E+000	0.0000000E+000	0.0000000E+000	44.0917	0.0000000E+000	0.0000000E+000	0.0000000E+000	-44.0917	0.0000000E+000	0.0000000E+000	0.0000000E+000	-45.9083	0.0000000E+000	0.0000000E+000	0.0000000E+000	45.9083	0.968787	44.0917	-9.98358e-07	-2.71505e-06	3.68021e-10	-2.71542e-06	0.264258	25713.5	3.48543	25717
100.032	13.4055	12.837	18.5606	-43.759	9.65283	0.264217	-0.0106185	123.941	59.2871	1	10	0.00456604	0.000246006	0	8.15891e-05	7.86489e-05	1.62671e-05	-59.8009	0.0661247	0.0332612	0.0571505	-43.8152	18.6242	13.4388	12.8942	0.0389132	0.0372631	0.0538774	43.759	59287.1	61912.5	85721.2	-46.241	0.0000000E+000	0.0000000E+000	0.0000000E+000	46.241	0.0000000E+000	0.0000000E+000	0.0000000E+000	-46.241	0.0000000E+000	0.0000000E+000	0.0000000E+000	-43.759	0.0000000E+000	0.0000000E+000	0.0000000E+000	43.759	1.04428	46.241	-1.05997e-06	-2.80559e-06	-8.35134e-10	-2.80475e-06	0.264138	24882.7	7.40677	24875.2
[...]
1.00006	44.7813	4.36493	44.9935	-5.56716	19.403	0.264288	-0.000772974	36459.9	343.138	1	12	0.00456192	0.000101391	0	8.2619e-05	-0.000188433	3.37963e-06	14.2408	0.0333328	0.0323085	-0.00819978	-5.55278	45.0249	44.8136	4.35673	0.0221206	0.00215614	0.0222254	5.56716	343138	3.52037e+06	3.53706e+06	-84.4328	0.0000000E+000	0.0000000E+000	0.0000000E+000	84.4328	0.0000000E+000	0.0000000E+000	0.0000000E+000	-84.4328	0.0000000E+000	0.0000000E+000	0.0000000E+000	-5.56716	0.0000000E+000	0.0000000E+000	0.0000000E+000	5.56716	10.2593	84.4328	2.1158e-06	-2.04288e-07	1.45654e-10	-2.04433e-07	0.264476	341910	243.777	342154
0.316193	47.6928	4.67506	47.9214	-5.5985	33.7452	0.264285	-0.000316076	107666	1024.7	1	12	0.00456162	9.51896e-05	0	6.95321e-05	-0.000245665	2.9993e-06	13.4554	0.0315087	0.0306438	-0.00733172	-5.58621	47.9512	47.7234	4.66773	0.020768	0.00203577	0.0208675	5.5985	1.0247e+06	1.04535e+07	1.05036e+07	-84.4015	0.0000000E+000	0.0000000E+000	0.0000000E+000	84.4015	0.0000000E+000	0.0000000E+000	0.0000000E+000	-84.4015	0.0000000E+000	0.0000000E+000	0.0000000E+000	-5.5985	0.0000000E+000	0.0000000E+000	0.0000000E+000	5.5985	10.2015	84.4015	-9.23629e-06	-8.35341e-08	7.76489e-11	-8.36118e-08	0.264531	836144	777.235	836921
0.0999041	51.0439	5.84913	51.3779	-6.53702	78.9541	0.264286	-0.00111158	272361	3530	1	12	0.00456562	8.88634e-05	0	4.79572e-05	0.000135881	2.28555e-06	10.563	0.0257198	0.025284	-0.00471487	-6.52859	51.4025	51.0692	5.84441	0.0193371	0.00221584	0.0194636	6.53702	3.53e+06	3.08054e+07	3.1007e+07	-83.463	0.0000000E+000	0.0000000E+000	0.0000000E+000	83.463	0.0000000E+000	0.0000000E+000	0.0000000E+000	-83.463	0.0000000E+000	0.0000000E+000	0.0000000E+000	-6.53702	0.0000000E+000	0.0000000E+000	0.0000000E+000	6.53702	8.72675	83.463	5.31563e-07	-2.93776e-07	-1.51043e-10	-2.93625e-07	0.264151	237757	122.241	237635
0.0315922	54.9598	9.46646	55.7691	-9.77293	221.837	0.264283	-0.00028943	532172	15333.5	1	12	0.00456495	8.18545e-05	0	0.000155392	9.77262e-05	3.05225e-06	4.75768	0.0372887	0.0371602	-0.00309279	-9.76332	55.8052	54.9969	9.46337	0.0176709	0.00304369	0.0179311	9.77293	1.53335e+07	8.90221e+07	9.0333e+07	-80.2271	0.0000000E+000	0.0000000E+000	0.0000000E+000	80.2271	0.0000000E+000	0.0000000E+000	0.0000000E+000	-80.2271	0.0000000E+000	0.0000000E+000	0.0000000E+000	-9.77293	0.0000000E+000	0.0000000E+000	0.0000000E+000	9.77293	5.80574	80.2271	5.194e-05	-7.64913e-08	-2.82849e-11	-7.6463e-08	0.264185	913115	337.651	912778
0.0100092	61.1577	19.3839	64.1561	-17.586	673.059	0.264289	0.000218306	820315	74883.7	1	12	0.0045634	7.11297e-05	0	-2.59785e-05	2.33964e-06	2.59051e-06	-2.57685	0.0364196	0.0363828	0.0016374	-17.5776	64.1913	61.1941	19.3855	0.0148585	0.0047094	0.015587	17.586	7.48837e+07	2.36264e+08	2.47847e+08	-72.414	0.0000000E+000	0.0000000E+000	0.0000000E+000	72.414	0.0000000E+000	0.0000000E+000	0.0000000E+000	-72.414	0.0000000E+000	0.0000000E+000	0.0000000E+000	-17.586	0.0000000E+000	0.0000000E+000	0.0000000E+000	17.586	3.15508	72.414	-0.00016654	5.7696e-08	5.10759e-13	5.76955e-08	0.264287	1.21063e+06	10.7173	1.21062e+06

File: 18722_R302_UA698_SOC00_C02.mpt
EC-Lab ASCII FILE
Nb header lines : 65

Potentio Electrochemical Impedance Spectroscopy

Run on channel : 2 (SN 66139)
User :
CE vs. WE compliance from -10 V to 10 V
Electrode connection : standard
Potential control : Ewe
Ewe ctrl range : min = -10.00 V, max = 10.00 V
Safety Limits :
	Do not start on E overload
Acquisition started on : 10/31/2025 10:59:24.795
Technique started on : 10/31/2025 10:59:26.706
Loaded Setting File :  C:\Users\Celltest\OneDrive - store-dot.com\Documents\EC-Lab\Data\@Biologic Test Protocols\anode half cell EIS SOC00.mps
Saved on :
	File : 18722_R302_UA698_SOC00_C02.mpr
	Directory : C:\Users\Celltest\OneDrive - store-dot.com\Documents\EC-Lab\Data\Anna\
	Host : 169.254.61.224
Device : VMP-3e (SN .003165)
Address : USB
EC-LAB for windows v11.62 (software)
Internet server v27.00 (firmware)
Command interpretor v12.03 (firmware)
Electrode material :
Initial state :
Electrolyte :
Comments :
Electrode surface area : 0.001 cm²
Characteristic mass : 0.001 g
Equivalent Weight : 0.000 g/eq.
Density : 0.000 g/cm3
Volume (V) : 0.001 cm³
Record Ece
Cycle Definition : Charge/Discharge alternance
Mode                Single sine
E (V)               0.0000
vs.                 Eoc
tE (h:m:s)          0:00:0.0000
record              0
dI                  0.000
unit dI             mA
dt (s)              0.000
fi                  100.000
unit fi             kHz
ff                  10.000
unit ff             mHz
Nd                  6
Points              per decade
spacing             Logarithmic
Va (mV)             5.0
pw                  0.10
Na                  2
corr                0
E range min (V)     -10.000
E range max (V)     10.000
I Range             Auto
Bandwidth           5
nc cycles           0
goto Ns'            0
nr cycles           0
inc. cycle          0

freq/Hz	Re(Z)/Ohm	-Im(Z)/Ohm	|Z|/Ohm	Phase(Z)/deg	time/s	<Ewe>/V	<I>/mA	Cs/µF	Cp/µF	cycle number	I Range	|Ewe|/V	|I|/A	Ns	(Q-Qo)/mA.h	<Ece>/V	|Ece|/V	Phase(Zce)/deg	|Zce|/Ohm	Re(Zce)/Ohm	-Im(Zce)/Ohm	Phase(Zwe-ce)/deg	|Zwe-ce|/Ohm	Re(Zwe-ce)/Ohm	-Im(Zwe-ce)/Ohm	Re(Y)/Ohm-1	Im(Y)/Ohm-1	|Y|/Ohm-1	Phase(Y)/deg	Re(C)/nF	Im(C)/nF	|C|/nF	Phase(C)/deg	Re(M)	Im(M)	|M|	Phase(M)/deg	Re(Permittivity)	Im(Permittivity)	|Permittivity|	Phase(Permittivity)/deg	Re(Resistivity)/Ohm.cm	Im(Resistivity)/Ohm.cm	|Resistivity|/Ohm.cm	Phase(Resistivity)/deg	Re(Conductivity)/mS/cm	Im(Conductivity)/mS/cm	|Conductivity|/mS/cm	Phase(Conductivity)/deg	Tan(Delta)	Loss Angle(Delta)/deg	dq/mA.h	Pwe/W	Pce/W	Pwe-ce/W	<Ewe-Ece>/V	Rwe/Ohm	Rce/Ohm	Rwe-ce/Ohm		Ewe-Ece/V
100004	1.22478	0.595328	1.3618	-25.9229	1.91052	0.269559	-0.0139649	2.6733	0.510896	1	9	0.00481853	0.00353835	0	-1.34094e-06	3.85242e-05	2.17013e-05	94.5882	0.00613318	-0.000490611	-0.00611353	-25.7001	1.3587	1.22429	0.589215	0.660435	0.321017	0.734321	25.9229	510.896	1051.08	1168.66	-64.0771	0.0000000E+000	0.0000000E+000	0.0000000E+000	64.0771	0.0000000E+000	0.0000000E+000	0.0000000E+000	-64.0771	0.0000000E+000	0.0000000E+000	0.0000000E+000	-25.9229	0.0000000E+000	0.0000000E+000	0.0000000E+000	25.9229	2.05732	64.0771	-1.34094e-06	-3.76437e-06	-5.37987e-10	-3.76384e-06	0.269521	19302.6	2.75864	19299.9
31621.1	1.75702	0.781118	1.92283	-23.9685	3.43354	0.269547	-0.00662748	6.44356	1.06336	1	9	0.00511284	0.00265902	0	-5.06753e-05	0.000496704	1.74504e-05	20.7215	0.00656271	0.00613818	-0.00232206	-23.8313	1.9275	1.76316	0.778796	0.475222	0.211269	0.520067	23.9685	1063.36	2391.88	2617.59	-66.0315	0.0000000E+000	0.0000000E+000	0.0000000E+000	66.0315	0.0000000E+000	0.0000000E+000	0.0000000E+000	-66.0315	0.0000000E+000	0.0000000E+000	0.0000000E+000	-23.9685	0.0000000E+000	0.0000000E+000	0.0000000E+000	23.9685	2.24937	66.0315	-1.50322e-05	-1.78642e-06	-3.2919e-09	-1.78312e-06	0.26905	40671.2	74.9462	40596.2
10002.2	2.33024	0.983176	2.52916	-22.8759	4.45855	0.269548	-0.00863879	16.1842	2.4457	1	9	0.00491641	0.00194389	0	-5.0477e-05	-0.000247839	5.22121e-06	-164.129	0.00268595	-0.00258356	0.000734545	-22.914	2.52706	2.32765	0.983911	0.364291	0.153702	0.395389	22.8759	2445.7	5796.58	6291.41	-67.1241	0.0000000E+000	0.0000000E+000	0.0000000E+000	67.1241	0.0000000E+000	0.0000000E+000	0.0000000E+000	-67.1241	0.0000000E+000	0.0000000E+000	0.0000000E+000	-22.8759	0.0000000E+000	0.0000000E+000	0.0000000E+000	22.8759	2.37011	67.1241	1.12916e-06	-2.32857e-06	2.14102e-09	-2.33071e-06	0.269796	31202.1	28.689	31230.8
3163.08	2.92815	1.53927	3.30808	-27.73	5.53265	0.269339	-0.0364615	32.6885	7.07737	1	9	0.00499482	0.00150988	0	-6.39456e-05	-0.000133293	7.63878e-06	41.1196	0.00505918	0.00381128	-0.00332708	-27.6484	3.30991	2.93196	1.53594	0.267572	0.140657	0.30229	27.73	7077.38	13463.3	15210.1	-62.27	0.0000000E+000	0.0000000E+000	0.0000000E+000	62.27	0.0000000E+000	0.0000000E+000	0.0000000E+000	-62.27	0.0000000E+000	0.0000000E+000	0.0000000E+000	-27.73	0.0000000E+000	0.0000000E+000	0.0000000E+000	27.73	1.9023	62.27	-8.68386e-06	-9.82051e-06	4.86008e-09	-9.82537e-06	0.269473	7386.95	3.65573	7390.61
1000.32	3.85722	3.0157	4.89618	-38.0195	7.13081	0.26948	-0.0193634	52.7586	20.015	1	10	0.0050408	0.00102954	0	-6.64827e-05	0.000133978	9.08782e-06	-6.62252	0.00882709	0.00876819	0.00101801	-37.9657	4.90371	3.86598	3.01672	0.160901	0.125798	0.204241	38.0195	20015	25600	32495.6	-51.9805	0.0000000E+000	0.0000000E+000	0.0000000E+000	51.9805	0.0000000E+000	0.0000000E+000	0.0000000E+000	-51.9805	0.0000000E+000	0.0000000E+000	0.0000000E+000	-38.0195	0.0000000E+000	0.0000000E+000	0.0000000E+000	38.0195	1.27905	51.9805	-2.27959e-06	-5.21805e-06	-2.59428e-09	-5.21546e-06	0.269346	13917	6.91915	13910
316.316	6.08964	6.57699	8.96329	-47.2034	8.48101	0.26948	-0.0191437	76.5018	41.19	1	10	0.00493359	0.000550421	0	-7.39672e-05	0.000133978	5.31581e-06	40.729	0.00965771	0.00731866	-0.00630148	-47.1417	8.96364	6.09695	6.57069	0.0757978	0.081864	0.111566	47.2034	41190	38137.8	56134.8	-42.7966	0.0000000E+000	0.0000000E+000	0.0000000E+000	42.7966	0.0000000E+000	0.0000000E+000	0.0000000E+000	-42.7966	0.0000000E+000	0.0000000E+000	0.0000000E+000	-47.2034	0.0000000E+000	0.0000000E+000	0.0000000E+000	47.2034	0.9259	42.7966	-2.7191e-06	-5.15883e-06	-2.56484e-09	-5.15626e-06	0.269346	14076.7	6.99858	14069.7
100.032	13.3148	12.7291	18.4205	-43.7118	9.82884	0.269474	-0.0190915	124.992	59.6868	1	10	0.00493562	0.000267942	0	-8.11978e-05	0.000248523	3.13291e-05	90.4706	0.116925	-0.00096033	-0.116921	-43.4498	18.3392	13.3138	12.6122	0.0392403	0.0375143	0.0542875	43.7118	59686.8	62432.9	86373.5	-46.2882	0.0000000E+000	0.0000000E+000	0.0000000E+000	46.2882	0.0000000E+000	0.0000000E+000	0.0000000E+000	-46.2882	0.0000000E+000	0.0000000E+000	0.0000000E+000	-43.7118	0.0000000E+000	0.0000000E+000	0.0000000E+000	43.7118	1.04601	46.2882	-2.26879e-06	-5.14467e-06	-4.74469e-09	-5.13992e-06	0.269226	14114.9	13.0175	14101.8
[...]
1.00006	43.0447	4.56939	43.2866	-6.05951	19.5779	0.26953	-0.00496578	34828.4	388.101	1	12	0.00490986	0.000113427	0	-0.000101471	0.000114888	2.39625e-06	7.74641	0.0211259	0.0209331	-0.00284754	-6.05284	43.3071	43.0657	4.56655	0.0229728	0.00243866	0.0231018	6.05951	388100	3.656e+06	3.67654e+06	-83.9405	0.0000000E+000	0.0000000E+000	0.0000000E+000	83.9405	0.0000000E+000	0.0000000E+000	0.0000000E+000	-83.9405	0.0000000E+000	0.0000000E+000	0.0000000E+000	-6.05951	0.0000000E+000	0.0000000E+000	0.0000000E+000	6.05951	9.42023	83.9405	-6.50853e-06	-1.33843e-06	-5.70506e-10	-1.33786e-06	0.269415	54277.5	23.1359	54254.4
0.316193	46.1849	4.8478	46.4386	-5.99211	33.9201	0.269533	-0.00465953	103830	1131.5	1	12	0.00490834	0.000105695	0	-0.000113277	0.000343978	1.81007e-06	-8.03442	0.0171254	0.0169573	0.00239358	-5.99286	46.4557	46.2019	4.85019	0.0214161	0.00224795	0.0215338	5.99211	1.1315e+06	1.07798e+07	1.0839e+07	-84.0079	0.0000000E+000	0.0000000E+000	0.0000000E+000	84.0079	0.0000000E+000	0.0000000E+000	0.0000000E+000	-84.0079	0.0000000E+000	0.0000000E+000	0.0000000E+000	-5.99211	0.0000000E+000	0.0000000E+000	0.0000000E+000	5.99211	9.52699	84.0079	-6.24142e-07	-1.2559e-06	-1.60278e-09	-1.25429e-06	0.269189	57845.4	73.8224	57771.6
0.0999041	49.4318	5.75588	49.7658	-6.64166	79.128	0.269529	-0.00227634	276774	3702.43	1	12	0.00490987	9.86596e-05	0	-0.000122917	-7.60209e-05	1.92965e-06	24.3959	0.0195587	0.0178124	-0.00807849	-6.63005	49.7826	49.4496	5.74781	0.0199593	0.00232407	0.0200941	6.64166	3.70243e+06	3.17966e+07	3.20115e+07	-83.3583	0.0000000E+000	0.0000000E+000	0.0000000E+000	83.3583	0.0000000E+000	0.0000000E+000	0.0000000E+000	-83.3583	0.0000000E+000	0.0000000E+000	0.0000000E+000	-6.64166	0.0000000E+000	0.0000000E+000	0.0000000E+000	6.64166	8.58805	83.3583	-1.17153e-05	-6.1354e-07	1.7305e-10	-6.13713e-07	0.269605	118404	33.3961	118438
0.0315922	53.1842	9.35166	54.0001	-9.97269	222.013	0.26951	-0.00122721	538705	16156.2	1	12	0.00490827	9.08937e-05	0	-0.000323443	0.000191251	1.36589e-06	62.4272	0.0150274	0.00695579	-0.0133206	-9.95749	54.0046	53.1911	9.33834	0.0182387	0.00320701	0.0185185	9.97269	1.61562e+07	9.18827e+07	9.32923e+07	-80.0273	0.0000000E+000	0.0000000E+000	0.0000000E+000	80.0273	0.0000000E+000	0.0000000E+000	0.0000000E+000	-80.0273	0.0000000E+000	0.0000000E+000	0.0000000E+000	-9.97269	0.0000000E+000	0.0000000E+000	0.0000000E+000	9.97269	5.68713	80.0273	-0.000101013	-3.30744e-07	-2.34704e-10	-3.3051e-07	0.269318	219612	155.842	219456
0.0100092	59.3071	19.2962	62.3673	-18.0228	673.236	0.269515	-0.00109923	824045	78882.2	1	12	0.00490982	7.87243e-05	0	-0.000386989	0.000248523	2.49273e-06	12.6042	0.031664	0.0309009	-0.00690956	-18.008	62.3945	59.338	19.2893	0.0152473	0.00496086	0.016034	18.0228	7.88823e+07	2.42446e+08	2.54956e+08	-71.9772	0.0000000E+000	0.0000000E+000	0.0000000E+000	71.9772	0.0000000E+000	0.0000000E+000	0.0000000E+000	-71.9772	0.0000000E+000	0.0000000E+000	0.0000000E+000	-18.0228	0.0000000E+000	0.0000000E+000	0.0000000E+000	18.0228	3.07352	71.9772	8.67092e-05	-2.96258e-07	-2.73184e-10	-2.95985e-07	0.269266	245186	226.089	244960