Folder: EIS/txt (part 108)

File: 18695_R307_UC91_25_SOC50_C02.mpt
EC-Lab ASCII FILE
Nb header lines : 65

Potentio Electrochemical Impedance Spectroscopy

Run on channel : 2 (SN 66139)
User :
CE vs. WE compliance from -10 V to 10 V
Electrode connection : standard
Potential control : Ewe
Ewe ctrl range : min = -10.00 V, max = 10.00 V
Safety Limits :
	Do not start on E overload
Acquisition started on : 10/29/2025 14:38:12.278
Technique started on : 10/29/2025 14:38:14.513
Loaded Setting File :  C:\Users\Celltest\OneDrive - store-dot.com\Documents\EC-Lab\Data\@Biologic Test Protocols\cathode half cell EIS SOC50.mps
Saved on :
	File : 18695_R307_UC91_25_SOC50_C02.mpr
	Directory : C:\Users\Celltest\OneDrive - store-dot.com\Documents\EC-Lab\Data\Anna\
	Host : 169.254.61.224
Device : VMP-3e (SN .003165)
Address : USB
EC-LAB for windows v11.62 (software)
Internet server v27.00 (firmware)
Command interpretor v12.03 (firmware)
Electrode material :
Initial state :
Electrolyte :
Comments :
Electrode surface area : 0.001 cm²
Characteristic mass : 0.001 g
Equivalent Weight : 0.000 g/eq.
Density : 0.000 g/cm3
Volume (V) : 0.001 cm³
Record Ece
Cycle Definition : Charge/Discharge alternance
Mode                Multi sine
E (V)               0.0000
vs.                 Eoc
tE (h:m:s)          0:00:0.0000
record              0
dI                  0.000
unit dI             mA
dt (s)              0.000
fi                  1.000
unit fi             MHz
ff                  0.100
unit ff             mHz
Nd                  10
Points              per decade
spacing             Logarithmic
Va (mV)             5.0
pw                  0.10
Na                  2
corr                0
E range min (V)     -10.000
E range max (V)     10.000
I Range             Auto
Bandwidth           5
nc cycles           0
goto Ns'            0
nr cycles           0
inc. cycle          0

freq/Hz	Re(Z)/Ohm	-Im(Z)/Ohm	|Z|/Ohm	Phase(Z)/deg	time/s	<Ewe>/V	<I>/mA	Cs/µF	Cp/µF	cycle number	I Range	|Ewe|/V	|I|/A	Ns	(Q-Qo)/mA.h	<Ece>/V	|Ece|/V	Phase(Zce)/deg	|Zce|/Ohm	Re(Zce)/Ohm	-Im(Zce)/Ohm	Phase(Zwe-ce)/deg	|Zwe-ce|/Ohm	Re(Zwe-ce)/Ohm	-Im(Zwe-ce)/Ohm	Re(Y)/Ohm-1	Im(Y)/Ohm-1	|Y|/Ohm-1	Phase(Y)/deg	Re(C)/nF	Im(C)/nF	|C|/nF	Phase(C)/deg	Re(M)	Im(M)	|M|	Phase(M)/deg	Re(Permittivity)	Im(Permittivity)	|Permittivity|	Phase(Permittivity)/deg	Re(Resistivity)/Ohm.cm	Im(Resistivity)/Ohm.cm	|Resistivity|/Ohm.cm	Phase(Resistivity)/deg	Re(Conductivity)/mS/cm	Im(Conductivity)/mS/cm	|Conductivity|/mS/cm	Phase(Conductivity)/deg	Tan(Delta)	Loss Angle(Delta)/deg	dq/mA.h	Pwe/W	Pce/W	Pwe-ce/W	<Ewe-Ece>/V	Rwe/Ohm	Rce/Ohm	Rwe-ce/Ohm		Ewe-Ece/V
1.00002e+06	2.30371	2.86609	3.67717	-51.2083	2.23452	3.96916	-0.00274526	0.0555293	0.0337345	1	10	0.000208931	5.68185e-05	0	-7.1725e-07	-7.60209e-05	0.000177184	-67.426	3.11842	1.19709	2.8795	-58.646	6.72811	3.5008	5.7456	0.170373	0.211964	0.271948	51.2083	33.7345	27.1152	43.2811	-38.7917	0.0000000E+000	0.0000000E+000	0.0000000E+000	38.7917	0.0000000E+000	0.0000000E+000	0.0000000E+000	-38.7917	0.0000000E+000	0.0000000E+000	0.0000000E+000	-51.2083	0.0000000E+000	0.0000000E+000	0.0000000E+000	51.2083	0.803782	38.7917	-7.1725e-07	-1.08964e-05	2.08697e-10	-1.08966e-05	3.96923	1.44582e+06	27.6917	1.44585e+06
251206	1.37351	0.360472	1.42002	-14.7054	4.93753	3.96916	0.0235789	1.75759	0.113259	1	9	0.00305812	0.00215358	0	5.94469e-06	-0.000266929	3.75677e-05	69.2713	0.0174444	0.0061743	-0.0163151	-14.0064	1.42196	1.37968	0.344157	0.681147	0.178765	0.704215	14.7054	113.259	431.55	446.164	-75.2946	0.0000000E+000	0.0000000E+000	0.0000000E+000	75.2946	0.0000000E+000	0.0000000E+000	0.0000000E+000	-75.2946	0.0000000E+000	0.0000000E+000	0.0000000E+000	-14.7054	0.0000000E+000	0.0000000E+000	0.0000000E+000	14.7054	3.8103	75.2946	1.56156e-06	9.35885e-05	-6.29391e-09	9.35948e-05	3.96943	168335	11.3207	168346
63093.8	1.85687	1.06276	2.13949	-29.7842	7.11354	3.96904	0.0131128	2.37356	0.585663	1	9	0.00527471	0.00246541	0	1.6042e-06	0.000133978	2.40487e-05	22.1194	0.00975446	0.00903654	-0.00367293	-29.5792	2.14552	1.8659	1.05908	0.40566	0.232174	0.467402	29.7842	585.663	1023.28	1179.03	-60.2158	0.0000000E+000	0.0000000E+000	0.0000000E+000	60.2158	0.0000000E+000	0.0000000E+000	0.0000000E+000	-60.2158	0.0000000E+000	0.0000000E+000	0.0000000E+000	-29.7842	0.0000000E+000	0.0000000E+000	0.0000000E+000	29.7842	1.74722	60.2158	1.14231e-06	5.20454e-05	1.75684e-09	5.20436e-05	3.9689	302683	10.2173	302673
15847.7	3.17552	1.98842	3.7467	-32.0536	9.41152	3.96902	0.0112505	5.05064	1.42254	1	9	0.00519212	0.00138579	0	-4.79995e-06	0.000248523	8.57946e-06	-75.2679	0.00619104	0.00157438	0.00598752	-32.1183	3.75121	3.1771	1.99441	0.226213	0.141648	0.266902	32.0536	1422.54	2271.81	2680.44	-57.9464	0.0000000E+000	0.0000000E+000	0.0000000E+000	57.9464	0.0000000E+000	0.0000000E+000	0.0000000E+000	-57.9464	0.0000000E+000	0.0000000E+000	0.0000000E+000	-32.0536	0.0000000E+000	0.0000000E+000	0.0000000E+000	32.0536	1.59701	57.9464	1.94943e-07	4.46536e-05	2.79602e-09	4.46508e-05	3.96877	352785	22.0899	352763
3983.6	5.17003	2.9195	5.9374	-29.4533	11.7911	3.969	-0.00569561	13.6847	3.30872	1	10	0.00530842	0.000894065	0	-9.15979e-06	1.94333e-05	5.03344e-06	-11.6968	0.00562984	0.00551293	0.00114135	-29.4367	5.94276	5.17555	2.92064	0.146656	0.0828163	0.168424	29.4533	3308.72	5859.29	6728.96	-60.5467	0.0000000E+000	0.0000000E+000	0.0000000E+000	60.5467	0.0000000E+000	0.0000000E+000	0.0000000E+000	-60.5467	0.0000000E+000	0.0000000E+000	0.0000000E+000	-29.4533	0.0000000E+000	0.0000000E+000	0.0000000E+000	29.4533	1.77086	60.5467	-6.15521e-07	-2.26059e-05	-1.10685e-10	-2.26058e-05	3.96898	696852	3.41198	696848
1000.32	8.30508	4.56514	9.47707	-28.7967	14.4198	3.96895	-0.00848209	34.8519	8.08699	1	10	0.00490365	0.000517423	0	-1.48717e-05	0.000133978	2.332e-06	-99.2084	0.00450695	-0.000721233	0.00444887	-28.8224	9.47858	8.30436	4.56959	0.0924689	0.0508283	0.105518	28.7967	8086.99	14712.2	16788.3	-61.2033	0.0000000E+000	0.0000000E+000	0.0000000E+000	61.2033	0.0000000E+000	0.0000000E+000	0.0000000E+000	-61.2033	0.0000000E+000	0.0000000E+000	0.0000000E+000	-28.7967	0.0000000E+000	0.0000000E+000	0.0000000E+000	28.7967	1.81924	61.2033	-1.30432e-06	-3.3665e-05	-1.13642e-09	-3.36639e-05	3.96882	467922	15.7955	467906
251.044	13.8292	5.18707	14.77	-20.5602	17.12	3.96897	-0.00785998	122.221	15.0742	1	10	0.00480314	0.000325197	0	-2.09067e-05	0.000114888	5.89659e-06	-60.285	0.0181324	0.00898797	0.015748	-20.6051	14.7839	13.8382	5.20282	0.0633925	0.0237774	0.067705	20.5602	15074.2	40189	42923.1	-69.4398	0.0000000E+000	0.0000000E+000	0.0000000E+000	69.4398	0.0000000E+000	0.0000000E+000	0.0000000E+000	-69.4398	0.0000000E+000	0.0000000E+000	0.0000000E+000	-20.5602	0.0000000E+000	0.0000000E+000	0.0000000E+000	20.5602	2.66608	69.4398	-1.18315e-06	-3.1196e-05	-9.03014e-10	-3.11951e-05	3.96885	504959	14.6168	504944
[...]
0.0602816	23.315	3.23534	23.5384	-7.90028	240.478	3.96897	-0.00383181	816046	15417	1	11	0.00499852	0.000212356	0	-0.00117654	0.00017216	2.42011e-07	-2.84306	0.00113965	0.00113824	5.6527e-05	-7.90003	23.5396	23.3162	3.2354	0.0420805	0.00583936	0.0424837	7.90028	1.5417e+07	1.111e+08	1.12165e+08	-82.0997	0.0000000E+000	0.0000000E+000	0.0000000E+000	82.0997	0.0000000E+000	0.0000000E+000	0.0000000E+000	-82.0997	0.0000000E+000	0.0000000E+000	0.0000000E+000	-7.90028	0.0000000E+000	0.0000000E+000	0.0000000E+000	7.90028	7.20636	82.0997	0.000000000000000E+000	-1.52083e-05	-6.59685e-10	-1.52077e-05	3.96879	1.03579e+06	44.9292	1.03575e+06
0.00796479	33.1582	7.29624	33.9514	-12.4098	20329.4	3.96898	-0.000325686	2.73871e+06	126482	1	11	0.00499405	0.000147094	0	-0.00693538	0.000229433	2.03663e-07	-3.14085	0.00138458	0.0013825	7.5862e-05	-12.4094	33.9528	33.1595	7.29632	0.0287657	0.00632971	0.0294539	12.4098	1.26482e+08	5.74805e+08	5.88556e+08	-77.5902	0.0000000E+000	0.0000000E+000	0.0000000E+000	77.5902	0.0000000E+000	0.0000000E+000	0.0000000E+000	-77.5902	0.0000000E+000	0.0000000E+000	0.0000000E+000	-12.4098	0.0000000E+000	0.0000000E+000	0.0000000E+000	12.4098	4.54455	77.5902	-0.00575884	-1.29264e-06	-7.47229e-11	-1.29256e-06	3.96875	1.21865e+07	704.46	1.21858e+07
0.0019912	40.3572	10.5935	41.7244	-14.708	20329.4	3.96898	-0.000325686	7.5451e+06	486370	1	11	0.0050064	0.000119987	0	-0.00693538	0.000229433	9.46505e-08	-23.6123	0.000788837	0.000722793	0.000315966	-14.7082	41.7252	40.3579	10.5939	0.0231814	0.006085	0.0239668	14.708	4.8637e+08	1.85288e+09	1.91565e+09	-75.292	0.0000000E+000	0.0000000E+000	0.0000000E+000	75.292	0.0000000E+000	0.0000000E+000	0.0000000E+000	-75.292	0.0000000E+000	0.0000000E+000	0.0000000E+000	-14.708	0.0000000E+000	0.0000000E+000	0.0000000E+000	14.708	3.80961	75.292	0.000000000000000E+000	-1.29264e-06	-7.47229e-11	-1.29256e-06	3.96875	1.21865e+07	704.46	1.21858e+07
0.000497799	44.8952	18.1453	48.4234	-22.0071	20329.4	3.96898	-0.000325686	1.76198e+07	2.47411e+06	1	11	0.00500862	0.000103434	0	-0.00693538	0.000229433	4.87878e-07	7.97412	0.00471681	0.0046712	-0.000654343	-22.0043	48.4275	44.8998	18.1446	0.0191465	0.00773844	0.0206512	22.0071	2.47411e+09	6.12146e+09	6.60253e+09	-67.9929	0.0000000E+000	0.0000000E+000	0.0000000E+000	67.9929	0.0000000E+000	0.0000000E+000	0.0000000E+000	-67.9929	0.0000000E+000	0.0000000E+000	0.0000000E+000	-22.0071	0.0000000E+000	0.0000000E+000	0.0000000E+000	22.0071	2.4742	67.9929	0.000000000000000E+000	-1.29264e-06	-7.47229e-11	-1.29256e-06	3.96875	1.21865e+07	704.46	1.21858e+07
9.95598e-05	51.8079	82.3618	97.3012	-57.829	20329.4	3.96898	-0.000325686	1.94093e+07	1.39067e+07	1	11	0.00500232	5.14106e-05	0	-0.00693538	0.000229433	4.1758e-06	-3.42278	0.0812245	0.0810796	0.00484936	-57.7901	97.3485	51.889	82.3667	0.00547216	0.0086994	0.0102774	57.829	1.39067e+10	8.74772e+09	1.64292e+10	-32.171	0.0000000E+000	0.0000000E+000	0.0000000E+000	32.171	0.0000000E+000	0.0000000E+000	0.0000000E+000	-32.171	0.0000000E+000	0.0000000E+000	0.0000000E+000	-57.829	0.0000000E+000	0.0000000E+000	0.0000000E+000	57.829	0.629028	32.171	0.000000000000000E+000	-1.29264e-06	-7.47229e-11	-1.29256e-06	3.96875	1.21865e+07	704.46	1.21858e+07

File: 18696_R307_UC91_25_SOC50_C03.mpt
EC-Lab ASCII FILE
Nb header lines : 65

Potentio Electrochemical Impedance Spectroscopy

Run on channel : 3 (SN 65921)
User :
CE vs. WE compliance from -10 V to 10 V
Electrode connection : standard
Potential control : Ewe
Ewe ctrl range : min = -10.00 V, max = 10.00 V
Safety Limits :
	Do not start on E overload
Acquisition started on : 10/29/2025 14:38:18.091
Technique started on : 10/29/2025 14:38:20.326
Loaded Setting File :  C:\Users\Celltest\OneDrive - store-dot.com\Documents\EC-Lab\Data\@Biologic Test Protocols\cathode half cell EIS SOC50.mps
Saved on :
	File : 18696_R307_UC91_25_SOC50_C03.mpr
	Directory : C:\Users\Celltest\OneDrive - store-dot.com\Documents\EC-Lab\Data\Anna\
	Host : 169.254.61.224
Device : VMP-3e (SN .003165)
Address : USB
EC-LAB for windows v11.62 (software)
Internet server v27.00 (firmware)
Command interpretor v12.03 (firmware)
Electrode material :
Initial state :
Electrolyte :
Comments :
Electrode surface area : 0.001 cm²
Characteristic mass : 0.001 g
Equivalent Weight : 0.000 g/eq.
Density : 0.000 g/cm3
Volume (V) : 0.001 cm³
Record Ece
Cycle Definition : Charge/Discharge alternance
Mode                Multi sine
E (V)               0.0000
vs.                 Eoc
tE (h:m:s)          0:00:0.0000
record              0
dI                  0.000
unit dI             mA
dt (s)              0.000
fi                  1.000
unit fi             MHz
ff                  0.100
unit ff             mHz
Nd                  10
Points              per decade
spacing             Logarithmic
Va (mV)             5.0
pw                  0.10
Na                  2
corr                0
E range min (V)     -10.000
E range max (V)     10.000
I Range             Auto
Bandwidth           5
nc cycles           0
goto Ns'            0
nr cycles           0
inc. cycle          0

freq/Hz	Re(Z)/Ohm	-Im(Z)/Ohm	|Z|/Ohm	Phase(Z)/deg	time/s	<Ewe>/V	<I>/mA	Cs/µF	Cp/µF	cycle number	I Range	|Ewe|/V	|I|/A	Ns	(Q-Qo)/mA.h	<Ece>/V	|Ece|/V	Phase(Zce)/deg	|Zce|/Ohm	Re(Zce)/Ohm	-Im(Zce)/Ohm	Phase(Zwe-ce)/deg	|Zwe-ce|/Ohm	Re(Zwe-ce)/Ohm	-Im(Zwe-ce)/Ohm	Re(Y)/Ohm-1	Im(Y)/Ohm-1	|Y|/Ohm-1	Phase(Y)/deg	Re(C)/nF	Im(C)/nF	|C|/nF	Phase(C)/deg	Re(M)	Im(M)	|M|	Phase(M)/deg	Re(Permittivity)	Im(Permittivity)	|Permittivity|	Phase(Permittivity)/deg	Re(Resistivity)/Ohm.cm	Im(Resistivity)/Ohm.cm	|Resistivity|/Ohm.cm	Phase(Resistivity)/deg	Re(Conductivity)/mS/cm	Im(Conductivity)/mS/cm	|Conductivity|/mS/cm	Phase(Conductivity)/deg	Tan(Delta)	Loss Angle(Delta)/deg	dq/mA.h	Pwe/W	Pce/W	Pwe-ce/W	<Ewe-Ece>/V	Rwe/Ohm	Rce/Ohm	Rwe-ce/Ohm		Ewe-Ece/V
1.00002e+06	2.35088	3.3437	4.08741	-54.8898	2.23452	4.00959	-0.0136148	0.0475976	0.0318524	1	10	0.000222197	5.43613e-05	0	-1.23071e-05	-8.05151e-05	0.000199827	-66.7356	3.67591	1.45189	3.37703	-60.4976	7.72199	3.80277	6.72072	0.140713	0.200138	0.244654	54.8898	31.8524	22.3947	38.9371	-35.1102	0.0000000E+000	0.0000000E+000	0.0000000E+000	35.1102	0.0000000E+000	0.0000000E+000	0.0000000E+000	-35.1102	0.0000000E+000	0.0000000E+000	0.0000000E+000	-54.8898	0.0000000E+000	0.0000000E+000	0.0000000E+000	54.8898	0.703077	35.1102	-1.23071e-05	-5.45898e-05	1.0962e-09	-5.45909e-05	4.00967	294503	5.91379	294509
251206	1.10906	0.412855	1.18342	-20.418	4.93851	4.00919	0.0149483	1.53459	0.186772	1	9	0.0021972	0.00185666	0	-3.64105e-06	-0.000175985	5.63913e-05	91.2594	0.0303724	-0.000667528	-0.0303651	-19.0387	1.17254	1.1084	0.38249	0.791921	0.294797	0.845012	20.418	186.772	501.732	535.368	-69.582	0.0000000E+000	0.0000000E+000	0.0000000E+000	69.582	0.0000000E+000	0.0000000E+000	0.0000000E+000	-69.582	0.0000000E+000	0.0000000E+000	0.0000000E+000	-20.418	0.0000000E+000	0.0000000E+000	0.0000000E+000	20.418	2.68633	69.582	2.03942e-06	5.99306e-05	-2.63068e-09	5.99332e-05	4.00937	268204	11.7729	268216
63093.8	1.53227	1.38968	2.06859	-42.2062	7.24053	4.0091	0.0246819	1.81517	0.819217	1	9	0.00520365	0.00251555	0	3.01524e-05	-8.05151e-05	3.09827e-05	67.5574	0.0123165	0.00470191	-0.0113837	-41.8845	2.06446	1.53697	1.3783	0.358085	0.324762	0.483421	42.2062	819.217	903.274	1219.43	-47.7938	0.0000000E+000	0.0000000E+000	0.0000000E+000	47.7938	0.0000000E+000	0.0000000E+000	0.0000000E+000	-47.7938	0.0000000E+000	0.0000000E+000	0.0000000E+000	-42.2062	0.0000000E+000	0.0000000E+000	0.0000000E+000	42.2062	1.10261	47.7938	6.11546e-06	9.89524e-05	-1.98727e-09	9.89544e-05	4.00918	162431	3.2621	162434
15847.7	3.20218	3.51337	4.75371	-47.6532	9.82153	4.00907	-0.0246001	2.85845	1.5614	1	10	0.00492994	0.00103707	0	3.38315e-05	-2.32329e-05	7.41761e-06	-43.5304	0.00715245	0.00518559	0.00492617	-47.647	4.76084	3.20736	3.5183	0.141703	0.155474	0.210362	47.6532	1561.4	1423.1	2112.62	-42.3468	0.0000000E+000	0.0000000E+000	0.0000000E+000	42.3468	0.0000000E+000	0.0000000E+000	0.0000000E+000	-42.3468	0.0000000E+000	0.0000000E+000	0.0000000E+000	-47.6532	0.0000000E+000	0.0000000E+000	0.0000000E+000	47.6532	0.911426	42.3468	-2.81206e-07	-9.86234e-05	5.7153e-10	-9.8624e-05	4.0091	162970	0.944424	162971
3983.6	7.97501	5.43135	9.64885	-34.2566	11.7941	4.00907	-0.0206288	7.35592	2.33077	1	10	0.00512473	0.000531123	0	2.21069e-05	-9.96091e-05	6.81315e-06	-140.038	0.0128278	-0.00983213	0.00823907	-34.33	9.64537	7.96518	5.43958	0.0856604	0.0583386	0.103639	34.2566	2330.77	3422.35	4140.65	-55.7434	0.0000000E+000	0.0000000E+000	0.0000000E+000	55.7434	0.0000000E+000	0.0000000E+000	0.0000000E+000	-55.7434	0.0000000E+000	0.0000000E+000	0.0000000E+000	-34.2566	0.0000000E+000	0.0000000E+000	0.0000000E+000	34.2566	1.46833	55.7434	-2.12877e-06	-8.27023e-05	2.05482e-09	-8.27044e-05	4.00917	194343	4.82864	194348
1000.32	13.1804	4.91908	14.0684	-20.4661	14.4218	4.00903	-0.0223366	32.3442	3.95433	1	10	0.00456377	0.000324398	0	5.54534e-06	1.49552e-05	1.14114e-05	-100.338	0.0351772	-0.0063128	0.0346061	-20.6071	14.0747	13.1741	4.95369	0.0665944	0.0248538	0.0710811	20.4661	3954.33	10595.4	11309.3	-69.5339	0.0000000E+000	0.0000000E+000	0.0000000E+000	69.5339	0.0000000E+000	0.0000000E+000	0.0000000E+000	-69.5339	0.0000000E+000	0.0000000E+000	0.0000000E+000	-20.4661	0.0000000E+000	0.0000000E+000	0.0000000E+000	20.4661	2.67945	69.5339	-2.53721e-06	-8.95484e-05	-3.3405e-10	-8.9548e-05	4.00902	179482	0.669539	179482
251.044	17.1971	3.75012	17.6013	-12.3017	17.337	4.00904	-0.0202075	169.054	7.67408	1	10	0.00486431	0.000276361	0	-1.15596e-05	0.000205896	8.08478e-06	-55.336	0.0292544	0.0166388	0.0240618	-12.3666	17.6227	17.2138	3.77418	0.0555096	0.0121048	0.0568141	12.3017	7674.09	35191.5	36018.5	-77.6983	0.0000000E+000	0.0000000E+000	0.0000000E+000	77.6983	0.0000000E+000	0.0000000E+000	0.0000000E+000	-77.6983	0.0000000E+000	0.0000000E+000	0.0000000E+000	-12.3017	0.0000000E+000	0.0000000E+000	0.0000000E+000	12.3017	4.58576	77.6983	-2.68078e-06	-8.10125e-05	-4.16063e-09	-8.10083e-05	4.00883	198394	10.1891	198384
[...]
0.0602816	28.1995	3.60106	28.4285	-7.27725	240.695	4.00903	-0.0117646	733170	11764.1	1	11	0.00505778	0.000177912	0	-0.00170586	-4.13882e-06	8.44793e-07	-14.9881	0.00474837	0.00458682	0.00122802	-7.27853	28.4332	28.2041	3.60229	0.0348926	0.00445577	0.035176	7.27725	1.17641e+07	9.21231e+07	9.28712e+07	-82.7227	0.0000000E+000	0.0000000E+000	0.0000000E+000	82.7227	0.0000000E+000	0.0000000E+000	0.0000000E+000	-82.7227	0.0000000E+000	0.0000000E+000	0.0000000E+000	-7.27725	0.0000000E+000	0.0000000E+000	0.0000000E+000	7.27725	7.83089	82.7227	0.000000000000000E+000	-4.71644e-05	4.86913e-11	-4.71645e-05	4.00903	340772	0.351804	340772
0.00796479	36.5888	9.05868	37.6935	-13.9057	20329.5	4.00903	0.00246897	2.20588e+06	127402	1	11	0.00505282	0.00013405	0	0.0119215	-9.96091e-05	1.39872e-06	-13.0936	0.0104343	0.010163	0.00236382	-13.9055	37.704	36.599	9.06105	0.0257522	0.00637575	0.0265298	13.9057	1.27402e+08	5.14589e+08	5.30126e+08	-76.0943	0.0000000E+000	0.0000000E+000	0.0000000E+000	76.0943	0.0000000E+000	0.0000000E+000	0.0000000E+000	-76.0943	0.0000000E+000	0.0000000E+000	0.0000000E+000	-13.9057	0.0000000E+000	0.0000000E+000	0.0000000E+000	13.9057	4.03909	76.0943	0.0136274	9.89816e-06	-2.45932e-10	9.89841e-06	4.00913	1.62377e+06	40.3444	1.62381e+06
0.0019912	45.1813	12.6352	46.9148	-15.624	20329.5	4.00903	0.00246897	6.3259e+06	458850	1	11	0.00506589	0.000107981	0	0.0119215	-9.96091e-05	5.67401e-07	15.6201	0.00525465	0.00506058	-0.00141486	-15.6207	46.9193	45.1863	12.6338	0.0205276	0.00574069	0.0213153	15.624	4.5885e+08	1.64076e+09	1.70371e+09	-74.376	0.0000000E+000	0.0000000E+000	0.0000000E+000	74.376	0.0000000E+000	0.0000000E+000	0.0000000E+000	-74.376	0.0000000E+000	0.0000000E+000	0.0000000E+000	-15.624	0.0000000E+000	0.0000000E+000	0.0000000E+000	15.624	3.57581	74.376	0.000000000000000E+000	9.89816e-06	-2.45932e-10	9.89841e-06	4.00913	1.62377e+06	40.3444	1.62381e+06
0.000497799	50.7643	26.9435	57.4714	-27.9575	20329.5	4.00903	0.00246897	1.18662e+07	2.60805e+06	1	11	0.0050662	8.81517e-05	0	0.0119215	-9.96091e-05	1.01652e-06	-24.5835	0.0115315	0.0104863	0.00479733	-27.9568	57.483	50.7748	26.9483	0.0153693	0.00815737	0.0173999	27.9575	2.60805e+09	4.91383e+09	5.56306e+09	-62.0425	0.0000000E+000	0.0000000E+000	0.0000000E+000	62.0425	0.0000000E+000	0.0000000E+000	0.0000000E+000	-62.0425	0.0000000E+000	0.0000000E+000	0.0000000E+000	-27.9575	0.0000000E+000	0.0000000E+000	0.0000000E+000	27.9575	1.8841	62.0425	0.000000000000000E+000	9.89816e-06	-2.45932e-10	9.89841e-06	4.00913	1.62377e+06	40.3444	1.62381e+06
9.95598e-05	65.9707	126.507	142.675	-62.4589	20329.5	4.00903	0.00246897	1.26363e+07	9.9347e+06	1	11	0.00506675	3.55125e-05	0	0.0119215	-9.96091e-05	2.52243e-06	9.50291	0.0710292	0.0700545	-0.0117268	-62.4318	142.697	66.0407	126.495	0.00324082	0.00621468	0.00700894	62.4589	9.93471e+09	5.18073e+09	1.12044e+10	-27.5411	0.0000000E+000	0.0000000E+000	0.0000000E+000	27.5411	0.0000000E+000	0.0000000E+000	0.0000000E+000	-27.5411	0.0000000E+000	0.0000000E+000	0.0000000E+000	-62.4589	0.0000000E+000	0.0000000E+000	0.0000000E+000	62.4589	0.521478	27.5411	0.000000000000000E+000	9.89816e-06	-2.45932e-10	9.89841e-06	4.00913	1.62377e+06	40.3444	1.62381e+06