Folder: EIS/txt (part 101)

File: 18604_R301_UA696_SOC00_C03.mpt
EC-Lab ASCII FILE
Nb header lines : 65

Potentio Electrochemical Impedance Spectroscopy

Run on channel : 3 (SN 65921)
User :
CE vs. WE compliance from -10 V to 10 V
Electrode connection : standard
Potential control : Ewe
Ewe ctrl range : min = -10.00 V, max = 10.00 V
Safety Limits :
	Do not start on E overload
Acquisition started on : 10/27/2025 16:23:22.015
Technique started on : 10/27/2025 16:23:23.927
Loaded Setting File :  C:\Users\Celltest\OneDrive - store-dot.com\Documents\EC-Lab\Data\@Biologic Test Protocols\anode half cell EIS SOC00.mps
Saved on :
	File : 18604_R301_UA696_SOC00_C03.mpr
	Directory : C:\Users\Celltest\OneDrive - store-dot.com\Documents\EC-Lab\Data\Gyutae\
	Host : 169.254.61.224
Device : VMP-3e (SN .003165)
Address : USB
EC-LAB for windows v11.62 (software)
Internet server v27.00 (firmware)
Command interpretor v12.03 (firmware)
Electrode material :
Initial state :
Electrolyte :
Comments :
Electrode surface area : 0.001 cm²
Characteristic mass : 0.001 g
Equivalent Weight : 0.000 g/eq.
Density : 0.000 g/cm3
Volume (V) : 0.001 cm³
Record Ece
Cycle Definition : Charge/Discharge alternance
Mode                Single sine
E (V)               0.0000
vs.                 Eoc
tE (h:m:s)          0:00:0.0000
record              0
dI                  0.000
unit dI             mA
dt (s)              0.000
fi                  100.000
unit fi             kHz
ff                  10.000
unit ff             mHz
Nd                  6
Points              per decade
spacing             Logarithmic
Va (mV)             5.0
pw                  0.10
Na                  2
corr                0
E range min (V)     -10.000
E range max (V)     10.000
I Range             Auto
Bandwidth           5
nc cycles           0
goto Ns'            0
nr cycles           0
inc. cycle          0

freq/Hz	Re(Z)/Ohm	-Im(Z)/Ohm	|Z|/Ohm	Phase(Z)/deg	time/s	<Ewe>/V	<I>/mA	Cs/µF	Cp/µF	cycle number	I Range	|Ewe|/V	|I|/A	Ns	(Q-Qo)/mA.h	<Ece>/V	|Ece|/V	Phase(Zce)/deg	|Zce|/Ohm	Re(Zce)/Ohm	-Im(Zce)/Ohm	Phase(Zwe-ce)/deg	|Zwe-ce|/Ohm	Re(Zwe-ce)/Ohm	-Im(Zwe-ce)/Ohm	Re(Y)/Ohm-1	Im(Y)/Ohm-1	|Y|/Ohm-1	Phase(Y)/deg	Re(C)/nF	Im(C)/nF	|C|/nF	Phase(C)/deg	Re(M)	Im(M)	|M|	Phase(M)/deg	Re(Permittivity)	Im(Permittivity)	|Permittivity|	Phase(Permittivity)/deg	Re(Resistivity)/Ohm.cm	Im(Resistivity)/Ohm.cm	|Resistivity|/Ohm.cm	Phase(Resistivity)/deg	Re(Conductivity)/mS/cm	Im(Conductivity)/mS/cm	|Conductivity|/mS/cm	Phase(Conductivity)/deg	Tan(Delta)	Loss Angle(Delta)/deg	dq/mA.h	Pwe/W	Pce/W	Pwe-ce/W	<Ewe-Ece>/V	Rwe/Ohm	Rce/Ohm	Rwe-ce/Ohm		Ewe-Ece/V
100004	1.41028	0.411524	1.46909	-16.2675	1.91154	0.217397	0.0328865	3.8673	0.30346	1	9	0.00456455	0.00310706	0	-1.95617e-06	-8.05151e-05	3.0826e-05	96.9948	0.0099213	-0.0012082	-0.00984746	-15.911	1.4652	1.40907	0.401677	0.65344	0.190677	0.680692	16.2675	303.46	1039.94	1083.32	-73.7325	0.0000000E+000	0.0000000E+000	0.0000000E+000	73.7325	0.0000000E+000	0.0000000E+000	0.0000000E+000	-73.7325	0.0000000E+000	0.0000000E+000	0.0000000E+000	-16.2675	0.0000000E+000	0.0000000E+000	0.0000000E+000	16.2675	3.42696	73.7325	-1.95617e-06	7.14945e-06	-2.64786e-09	7.1521e-06	0.217478	6610.53	2.44827	6612.98
31621.1	1.74282	0.526218	1.82053	-16.8009	3.43253	0.217391	0.0286351	9.56482	0.799119	1	9	0.00511257	0.00280828	0	2.12946e-05	3.40493e-05	1.00311e-05	70.7799	0.00357196	0.00117588	-0.00337286	-16.6886	1.82069	1.744	0.522846	0.525843	0.15877	0.54929	16.8009	799.119	2646.67	2764.68	-73.1991	0.0000000E+000	0.0000000E+000	0.0000000E+000	73.1991	0.0000000E+000	0.0000000E+000	0.0000000E+000	-73.1991	0.0000000E+000	0.0000000E+000	0.0000000E+000	-16.8009	0.0000000E+000	0.0000000E+000	0.0000000E+000	16.8009	3.31198	73.1991	-4.68154e-06	6.22501e-06	9.75005e-10	6.22403e-06	0.217357	7591.77	1.18908	7590.59
10002.2	2.12432	0.703023	2.23763	-18.3114	4.33354	0.217392	0.0351241	22.6336	2.23417	1	9	0.00533068	0.00238229	0	3.30267e-05	0.000167708	5.61049e-06	2.10084	0.00235508	0.0023535	-8.63335e-05	-18.2904	2.23984	2.12668	0.702936	0.424272	0.140408	0.446902	18.3114	2234.17	6750.99	7111.08	-71.6886	0.0000000E+000	0.0000000E+000	0.0000000E+000	71.6886	0.0000000E+000	0.0000000E+000	0.0000000E+000	-71.6886	0.0000000E+000	0.0000000E+000	0.0000000E+000	-18.3114	0.0000000E+000	0.0000000E+000	0.0000000E+000	18.3114	3.0217	71.6886	2.60358e-06	7.6357e-06	5.89059e-09	7.62981e-06	0.217224	6189.24	4.77471	6184.47
3163.08	2.58631	1.09351	2.80798	-22.919	5.23168	0.217213	-0.0260746	46.0137	6.9782	1	9	0.00499749	0.00177974	0	3.32873e-05	-6.1421e-05	8.13094e-06	2.07189	0.0045686	0.00456562	-0.000165171	-22.8796	2.81213	2.59088	1.09335	0.328013	0.138686	0.356127	22.919	6978.2	16504.5	17919.1	-67.081	0.0000000E+000	0.0000000E+000	0.0000000E+000	67.081	0.0000000E+000	0.0000000E+000	0.0000000E+000	-67.081	0.0000000E+000	0.0000000E+000	0.0000000E+000	-22.919	0.0000000E+000	0.0000000E+000	0.0000000E+000	22.919	2.36515	67.081	-1.93361e-06	-5.66374e-06	1.60153e-09	-5.66534e-06	0.217274	8330.42	2.35558	8332.77
1000.32	3.25296	2.10733	3.8759	-32.9359	6.83081	0.217328	-0.0133985	75.5004	22.3187	1	10	0.00501054	0.00129274	0	3.77231e-05	-0.000424208	4.48647e-06	38.9019	0.00347051	0.00270083	-0.00217944	-32.8872	3.87698	3.25566	2.10515	0.216538	0.140277	0.258005	32.9359	22318.7	34452.1	41049.6	-57.0641	0.0000000E+000	0.0000000E+000	0.0000000E+000	57.0641	0.0000000E+000	0.0000000E+000	0.0000000E+000	-57.0641	0.0000000E+000	0.0000000E+000	0.0000000E+000	-32.9359	0.0000000E+000	0.0000000E+000	0.0000000E+000	32.9359	1.54364	57.0641	-2.65291e-06	-2.91186e-06	5.68375e-09	-2.91754e-06	0.217752	16220.3	31.6609	16252
316.316	5.0602	4.48855	6.76408	-41.574	8.18104	0.217335	-0.0148975	112.097	49.3615	1	10	0.00489719	0.000723999	0	3.32612e-05	7.22374e-05	6.16667e-06	-93.5357	0.00851751	-0.000525274	0.0085013	-41.6308	6.76933	5.05967	4.49705	0.110599	0.0981046	0.14784	41.574	49361.5	55648	74385.9	-48.426	0.0000000E+000	0.0000000E+000	0.0000000E+000	48.426	0.0000000E+000	0.0000000E+000	0.0000000E+000	-48.426	0.0000000E+000	0.0000000E+000	0.0000000E+000	-41.574	0.0000000E+000	0.0000000E+000	0.0000000E+000	41.574	1.12736	48.426	-1.53347e-06	-3.23775e-06	-1.07616e-09	-3.23667e-06	0.217263	14588.7	4.84896	14583.8
100.032	10.2104	7.20551	12.4969	-35.2107	9.5288	0.217334	-0.0139019	220.809	73.408	1	10	0.00485901	0.000388818	0	2.74885e-05	-8.05151e-05	7.41272e-06	-19.7149	0.0190648	0.0179472	0.0064313	-35.1874	12.5152	10.2284	7.21195	0.0653793	0.0461384	0.08002	35.2107	73408	104021	127315	-54.7893	0.0000000E+000	0.0000000E+000	0.0000000E+000	54.7893	0.0000000E+000	0.0000000E+000	0.0000000E+000	-54.7893	0.0000000E+000	0.0000000E+000	0.0000000E+000	-35.2107	0.0000000E+000	0.0000000E+000	0.0000000E+000	35.2107	1.41703	54.7893	-1.167e-06	-3.02135e-06	1.11931e-09	-3.02247e-06	0.217414	15633.4	5.79166	15639.2
[...]
1.00006	23.1106	2.32112	23.2268	-5.73529	19.5806	0.217365	-0.00854253	68563.9	684.715	1	12	0.0048585	0.000209176	0	-5.53543e-06	-0.000118703	1.77103e-06	-66.9477	0.00846671	0.00331533	0.00779062	-5.75359	23.2309	23.1139	2.32891	0.0428381	0.00430246	0.0430537	5.73529	684715	6.81747e+06	6.85176e+06	-84.2647	0.0000000E+000	0.0000000E+000	0.0000000E+000	84.2647	0.0000000E+000	0.0000000E+000	0.0000000E+000	-84.2647	0.0000000E+000	0.0000000E+000	0.0000000E+000	-5.73529	0.0000000E+000	0.0000000E+000	0.0000000E+000	5.73529	9.95665	84.2647	-1.15927e-05	-1.85685e-06	1.01403e-09	-1.85786e-06	0.217484	25445.1	13.8956	25459
0.316193	24.4534	2.88774	24.6233	-6.73497	33.9219	0.21737	-0.0107891	174305	2397.37	1	12	0.00485799	0.000197293	0	-1.57713e-05	-0.000233268	4.01112e-06	3.2721	0.0203308	0.0202977	-0.00116044	-6.72675	24.6433	24.4736	2.88658	0.0403317	0.00476285	0.040612	6.73497	2.39737e+06	2.03009e+07	2.04419e+07	-83.265	0.0000000E+000	0.0000000E+000	0.0000000E+000	83.265	0.0000000E+000	0.0000000E+000	0.0000000E+000	-83.265	0.0000000E+000	0.0000000E+000	0.0000000E+000	-6.73497	0.0000000E+000	0.0000000E+000	0.0000000E+000	6.73497	8.46799	83.265	-2.00485e-06	-2.34523e-06	2.51675e-09	-2.34775e-06	0.217604	20147.2	21.6207	20168.8
0.0999041	26.2637	5.57624	26.8492	-11.9869	79.13	0.217366	-0.0128749	285690	12323	1	12	0.0048563	0.000180873	0	-0.000180447	-0.000309644	3.07504e-06	17.4253	0.0170011	0.0162209	-0.00509117	-11.9691	26.864	26.28	5.57115	0.036433	0.00773534	0.0372451	11.9869	1.2323e+07	5.80405e+07	5.93343e+07	-78.0131	0.0000000E+000	0.0000000E+000	0.0000000E+000	78.0131	0.0000000E+000	0.0000000E+000	0.0000000E+000	-78.0131	0.0000000E+000	0.0000000E+000	0.0000000E+000	-11.9869	0.0000000E+000	0.0000000E+000	0.0000000E+000	11.9869	4.70994	78.0131	-0.000106516	-2.79855e-06	3.98662e-09	-2.80254e-06	0.217675	16883	24.0503	16907
0.0315922	30.7691	11.6915	32.9155	-20.8055	222.013	0.217368	-0.0192725	430893	54363.7	1	12	0.0048602	0.000147657	0	-0.0010665	0.000244084	1.85074e-06	30.0477	0.0125341	0.0108496	-0.00627606	-20.7886	32.9234	30.78	11.6852	0.0283997	0.0107912	0.0303808	20.8055	5.43637e+07	1.43072e+08	1.53052e+08	-69.1945	0.0000000E+000	0.0000000E+000	0.0000000E+000	69.1945	0.0000000E+000	0.0000000E+000	0.0000000E+000	-69.1945	0.0000000E+000	0.0000000E+000	0.0000000E+000	-20.8055	0.0000000E+000	0.0000000E+000	0.0000000E+000	20.8055	2.63175	69.1945	-0.000397371	-4.18924e-06	-4.70412e-09	-4.18453e-06	0.217124	11278.7	12.6649	11266
0.0100092	39.7157	23.5253	46.1603	-30.6401	673.233	0.217363	-0.0217269	675906	175558	1	12	0.00485818	0.000105246	0	-0.00317586	-9.96091e-05	1.43276e-06	60.6697	0.0136134	0.00666846	-0.0118683	-30.6233	46.16	39.7223	23.5135	0.0186391	0.0110407	0.0216636	30.6401	1.75558e+08	2.96378e+08	3.44472e+08	-59.3599	0.0000000E+000	0.0000000E+000	0.0000000E+000	59.3599	0.0000000E+000	0.0000000E+000	0.0000000E+000	-59.3599	0.0000000E+000	0.0000000E+000	0.0000000E+000	-30.6401	0.0000000E+000	0.0000000E+000	0.0000000E+000	30.6401	1.68821	59.3599	-0.000967977	-4.72263e-06	2.1642e-09	-4.72479e-06	0.217463	10004.4	4.5846	10008.9

File: 18605_R301_UA696_SOC00_C04.mpt
EC-Lab ASCII FILE
Nb header lines : 65

Potentio Electrochemical Impedance Spectroscopy

Run on channel : 4 (SN 66756)
User :
CE vs. WE compliance from -10 V to 10 V
Electrode connection : standard
Potential control : Ewe
Ewe ctrl range : min = -10.00 V, max = 10.00 V
Safety Limits :
	Do not start on E overload
Acquisition started on : 10/27/2025 16:23:30.033
Technique started on : 10/27/2025 16:23:31.902
Loaded Setting File :  C:\Users\Celltest\OneDrive - store-dot.com\Documents\EC-Lab\Data\@Biologic Test Protocols\anode half cell EIS SOC00.mps
Saved on :
	File : 18605_R301_UA696_SOC00_C04.mpr
	Directory : C:\Users\Celltest\OneDrive - store-dot.com\Documents\EC-Lab\Data\Gyutae\
	Host : 169.254.61.224
Device : VMP-3e (SN .003165)
Address : USB
EC-LAB for windows v11.62 (software)
Internet server v27.00 (firmware)
Command interpretor v12.03 (firmware)
Electrode material :
Initial state :
Electrolyte :
Comments :
Electrode surface area : 0.001 cm²
Characteristic mass : 0.001 g
Equivalent Weight : 0.000 g/eq.
Density : 0.000 g/cm3
Volume (V) : 0.001 cm³
Record Ece
Cycle Definition : Charge/Discharge alternance
Mode                Single sine
E (V)               0.0000
vs.                 Eoc
tE (h:m:s)          0:00:0.0000
record              0
dI                  0.000
unit dI             mA
dt (s)              0.000
fi                  100.000
unit fi             kHz
ff                  10.000
unit ff             mHz
Nd                  6
Points              per decade
spacing             Logarithmic
Va (mV)             5.0
pw                  0.10
Na                  2
corr                0
E range min (V)     -10.000
E range max (V)     10.000
I Range             Auto
Bandwidth           5
nc cycles           0
goto Ns'            0
nr cycles           0
inc. cycle          0

freq/Hz	Re(Z)/Ohm	-Im(Z)/Ohm	|Z|/Ohm	Phase(Z)/deg	time/s	<Ewe>/V	<I>/mA	Cs/µF	Cp/µF	cycle number	I Range	|Ewe|/V	|I|/A	Ns	(Q-Qo)/mA.h	<Ece>/V	|Ece|/V	Phase(Zce)/deg	|Zce|/Ohm	Re(Zce)/Ohm	-Im(Zce)/Ohm	Phase(Zwe-ce)/deg	|Zwe-ce|/Ohm	Re(Zwe-ce)/Ohm	-Im(Zwe-ce)/Ohm	Re(Y)/Ohm-1	Im(Y)/Ohm-1	|Y|/Ohm-1	Phase(Y)/deg	Re(C)/nF	Im(C)/nF	|C|/nF	Phase(C)/deg	Re(M)	Im(M)	|M|	Phase(M)/deg	Re(Permittivity)	Im(Permittivity)	|Permittivity|	Phase(Permittivity)/deg	Re(Resistivity)/Ohm.cm	Im(Resistivity)/Ohm.cm	|Resistivity|/Ohm.cm	Phase(Resistivity)/deg	Re(Conductivity)/mS/cm	Im(Conductivity)/mS/cm	|Conductivity|/mS/cm	Phase(Conductivity)/deg	Tan(Delta)	Loss Angle(Delta)/deg	dq/mA.h	Pwe/W	Pce/W	Pwe-ce/W	<Ewe-Ece>/V	Rwe/Ohm	Rce/Ohm	Rwe-ce/Ohm		Ewe-Ece/V
100004	1.03484	0.411566	1.11368	-21.6882	1.86857	0.21299	0.00751153	3.86691	0.528107	1	9	0.00493344	0.00442985	0	1.04723e-05	-0.000455031	2.79266e-05	72.1359	0.00630418	0.00193388	-0.00600023	-21.3644	1.11328	1.03678	0.405566	0.834359	0.331832	0.897924	21.6882	528.107	1327.87	1429.04	-68.3118	0.0000000E+000	0.0000000E+000	0.0000000E+000	68.3118	0.0000000E+000	0.0000000E+000	0.0000000E+000	-68.3118	0.0000000E+000	0.0000000E+000	0.0000000E+000	-21.6882	0.0000000E+000	0.0000000E+000	0.0000000E+000	21.6882	2.5144	68.3118	1.04723e-05	1.59988e-06	-3.41798e-09	1.6033e-06	0.213445	28355.1	60.5776	28415.7
31621.1	1.40279	0.58333	1.51924	-22.5792	3.02152	0.212976	0.0057958	8.62836	1.27204	1	9	0.00542121	0.00356836	0	4.52038e-06	-0.000225711	1.11132e-05	53.5175	0.00311438	0.00185174	-0.00250408	-22.4653	1.51999	1.40464	0.580826	0.607769	0.252731	0.658222	22.5792	1272.04	3059.01	3312.95	-67.4208	0.0000000E+000	0.0000000E+000	0.0000000E+000	67.4208	0.0000000E+000	0.0000000E+000	0.0000000E+000	-67.4208	0.0000000E+000	0.0000000E+000	0.0000000E+000	-22.5792	0.0000000E+000	0.0000000E+000	0.0000000E+000	22.5792	2.4048	67.4208	5.62588e-06	1.23437e-06	-1.30818e-09	1.23567e-06	0.213202	36746.6	38.944	36785.6
10002.2	1.83483	0.787823	1.99682	-23.2373	4.17254	0.212991	-0.00464746	20.1974	3.14395	1	9	0.00533596	0.00267224	0	1.23991e-06	-0.000149271	9.70934e-06	-77.4536	0.00363341	0.000789288	0.00354665	-23.3218	1.99894	1.83562	0.79137	0.460172	0.197584	0.500797	23.2373	3143.95	7322.24	7968.66	-66.7627	0.0000000E+000	0.0000000E+000	0.0000000E+000	66.7627	0.0000000E+000	0.0000000E+000	0.0000000E+000	-66.7627	0.0000000E+000	0.0000000E+000	0.0000000E+000	-23.2373	0.0000000E+000	0.0000000E+000	0.0000000E+000	23.2373	2.32899	66.7627	-3.31705e-06	-9.89866e-07	6.93733e-10	-9.9056e-07	0.21314	45829.4	32.1189	45861.6
3163.08	2.3346	1.20422	2.62688	-27.2854	5.32067	0.212929	-0.0288161	41.7833	8.78084	1	9	0.00519057	0.00197594	0	-9.83068e-06	-0.000225711	7.25708e-06	-60.7968	0.00367272	0.00179195	0.0032059	-27.3296	2.62994	2.33639	1.20743	0.338323	0.174512	0.380679	27.2854	8780.84	17023.2	19154.4	-62.7146	0.0000000E+000	0.0000000E+000	0.0000000E+000	62.7146	0.0000000E+000	0.0000000E+000	0.0000000E+000	-62.7146	0.0000000E+000	0.0000000E+000	0.0000000E+000	-27.2854	0.0000000E+000	0.0000000E+000	0.0000000E+000	27.2854	1.93867	62.7146	-3.93942e-06	-6.1358e-06	6.50412e-09	-6.1423e-06	0.213155	7389.23	7.83281	7397.07
1000.32	3.09344	2.35357	3.88699	-37.2649	6.91977	0.212951	0.00103849	67.6011	24.7846	1	10	0.00504438	0.00129776	0	-1.42568e-05	-5.37216e-05	8.31186e-06	-54.3362	0.00640477	0.00373416	0.00520357	-37.2925	3.89311	3.09717	2.35878	0.204746	0.155776	0.257269	37.2649	24784.6	32575.9	40932.5	-52.7351	0.0000000E+000	0.0000000E+000	0.0000000E+000	52.7351	0.0000000E+000	0.0000000E+000	0.0000000E+000	-52.7351	0.0000000E+000	0.0000000E+000	0.0000000E+000	-37.2649	0.0000000E+000	0.0000000E+000	0.0000000E+000	37.2649	1.31436	52.7351	4.37297e-09	2.21148e-07	-5.57895e-11	2.21204e-07	0.213005	205058	51.7304	205110
316.316	5.0169	5.06238	7.1272	-45.2585	8.26907	0.212956	0.000143228	99.3905	50.1436	1	10	0.00480099	0.000673615	0	-1.47386e-05	-0.000263931	4.26992e-06	-58.816	0.00633881	0.00328217	0.00542291	-45.2704	7.13336	5.02018	5.0678	0.0987638	0.099659	0.140308	45.2585	50143.6	49693.2	70596	-44.7415	0.0000000E+000	0.0000000E+000	0.0000000E+000	44.7415	0.0000000E+000	0.0000000E+000	0.0000000E+000	-44.7415	0.0000000E+000	0.0000000E+000	0.0000000E+000	-45.2585	0.0000000E+000	0.0000000E+000	0.0000000E+000	45.2585	0.991017	44.7415	4.42806e-07	3.05013e-08	-3.78024e-11	3.05391e-08	0.21322	1.48683e+06	1842.73	1.48867e+06
100.032	10.8489	8.49565	13.7795	-38.0641	9.6168	0.212942	-0.00197925	187.277	71.1887	1	10	0.00474503	0.000344354	0	-1.45605e-05	-0.000225711	7.3677e-06	81.1314	0.0213957	0.00329854	-0.0211399	-37.9864	13.7691	10.8522	8.47451	0.0571371	0.0447435	0.0725716	38.0641	71188.7	90907.5	115464	-51.9359	0.0000000E+000	0.0000000E+000	0.0000000E+000	51.9359	0.0000000E+000	0.0000000E+000	0.0000000E+000	-51.9359	0.0000000E+000	0.0000000E+000	0.0000000E+000	-38.0641	0.0000000E+000	0.0000000E+000	0.0000000E+000	38.0641	1.27699	51.9359	-2.04215e-07	-4.21466e-07	4.4674e-10	-4.21912e-07	0.213168	107587	114.039	107701
[...]
1.00006	26.9293	2.78217	27.0726	-5.89853	19.6698	0.21296	0.00338062	57201.6	604.111	1	12	0.00474146	0.000175139	0	-4.2765e-06	-0.0005888	2.53803e-06	-65.3234	0.0144915	0.00605015	0.0131681	-5.92493	27.08	26.9353	2.79534	0.0367422	0.00379598	0.0369377	5.89853	604111	5.84732e+06	5.87845e+06	-84.1015	0.0000000E+000	0.0000000E+000	0.0000000E+000	84.1015	0.0000000E+000	0.0000000E+000	0.0000000E+000	-84.1015	0.0000000E+000	0.0000000E+000	0.0000000E+000	-5.89853	0.0000000E+000	0.0000000E+000	0.0000000E+000	5.89853	9.67922	84.1015	-8.46896e-07	7.19936e-07	-1.99051e-09	7.21927e-07	0.213548	62994.2	174.169	63168.4
0.316193	28.5427	3.28983	28.7316	-6.57491	34.012	0.212965	-0.0025183	153001	2005.96	1	12	0.00474392	0.000165111	0	-1.86297e-05	2.27182e-05	2.86713e-06	-1.66327	0.0173648	0.0173575	0.000504022	-6.57195	28.7489	28.56	3.29034	0.0345759	0.00398523	0.0348049	6.57491	2.00596e+06	1.74037e+07	1.75189e+07	-83.4251	0.0000000E+000	0.0000000E+000	0.0000000E+000	83.4251	0.0000000E+000	0.0000000E+000	0.0000000E+000	-83.4251	0.0000000E+000	0.0000000E+000	0.0000000E+000	-6.57491	0.0000000E+000	0.0000000E+000	0.0000000E+000	6.57491	8.67601	83.4251	-2.93293e-06	-5.36311e-07	-5.72114e-11	-5.36253e-07	0.212942	84566.8	9.02124	84557.8
0.0999041	30.6305	5.78787	31.1725	-10.7003	79.2199	0.212959	-0.00842582	275244	9488.83	1	12	0.00473833	0.000152003	0	-1.81132e-05	-0.000149271	2.77763e-06	10.6046	0.0182735	0.0179614	-0.00336287	-10.6881	31.1895	30.6484	5.78451	0.0315218	0.00595629	0.0320796	10.7003	9.48883e+06	5.02166e+07	5.11052e+07	-79.2997	0.0000000E+000	0.0000000E+000	0.0000000E+000	79.2997	0.0000000E+000	0.0000000E+000	0.0000000E+000	-79.2997	0.0000000E+000	0.0000000E+000	0.0000000E+000	-10.7003	0.0000000E+000	0.0000000E+000	0.0000000E+000	10.7003	5.29218	79.2997	-8.55143e-06	-1.79435e-06	1.25773e-09	-1.79561e-06	0.213108	25274.5	17.716	25292.2
0.0315922	35.0466	12.7405	37.2905	-19.9777	222.103	0.21296	-0.0144554	395417	46155.9	1	12	0.00474046	0.000127122	0	-0.000613824	-0.000149271	3.61177e-06	-27.7749	0.0284118	0.0251383	0.0132399	-19.9836	37.3187	35.0718	12.7537	0.0252028	0.00916194	0.0268165	19.9777	4.6156e+07	1.26966e+08	1.35096e+08	-70.0223	0.0000000E+000	0.0000000E+000	0.0000000E+000	70.0223	0.0000000E+000	0.0000000E+000	0.0000000E+000	-70.0223	0.0000000E+000	0.0000000E+000	0.0000000E+000	-19.9777	0.0000000E+000	0.0000000E+000	0.0000000E+000	19.9777	2.75081	70.0223	-0.000360947	-3.07842e-06	2.15777e-09	-3.08058e-06	0.213109	14732.2	10.3264	14742.6
0.0100092	45.3981	25.8247	52.2293	-29.6333	673.325	0.212959	-0.0191365	615726	150532	1	12	0.00474095	9.07719e-05	0	-0.00314594	4.18282e-05	2.60089e-06	-27.5982	0.028653	0.0253928	0.013274	-29.6322	52.258	45.4235	25.8379	0.0166421	0.00946685	0.0191463	29.6333	1.50532e+08	2.64625e+08	3.04444e+08	-60.3667	0.0000000E+000	0.0000000E+000	0.0000000E+000	60.3667	0.0000000E+000	0.0000000E+000	0.0000000E+000	-60.3667	0.0000000E+000	0.0000000E+000	0.0000000E+000	-29.6333	0.0000000E+000	0.0000000E+000	0.0000000E+000	29.6333	1.75794	60.3667	-0.0010945	-4.0753e-06	-8.00446e-10	-4.0745e-06	0.212918	11128.4	2.18578	11126.2