Folder: EIS/txt (part 183)

File: 19345_R279_UA714_SOC00_C04.mpt
EC-Lab ASCII FILE
Nb header lines : 65

Potentio Electrochemical Impedance Spectroscopy

Run on channel : 4 (SN 66756)
User :
CE vs. WE compliance from -10 V to 10 V
Electrode connection : standard
Potential control : Ewe
Ewe ctrl range : min = -10.00 V, max = 10.00 V
Safety Limits :
	Do not start on E overload
Acquisition started on : 11/20/2025 15:02:47.228
Technique started on : 11/20/2025 15:02:49.139
Loaded Setting File :  C:\Users\Celltest\OneDrive - store-dot.com\Documents\EC-Lab\Data\@Biologic Test Protocols\anode half cell EIS SOC00.mps
Saved on :
	File : 19345_R279_UA714_SOC00_C04.mpr
	Directory : C:\Users\Celltest\OneDrive - store-dot.com\Documents\EC-Lab\Data\Charmaine\
	Host : 169.254.61.224
Device : VMP-3e (SN .003165)
Address : USB
EC-LAB for windows v11.62 (software)
Internet server v27.00 (firmware)
Command interpretor v12.03 (firmware)
Electrode material :
Initial state :
Electrolyte :
Comments :
Electrode surface area : 0.001 cm²
Characteristic mass : 0.001 g
Equivalent Weight : 0.000 g/eq.
Density : 0.000 g/cm3
Volume (V) : 0.001 cm³
Record Ece
Cycle Definition : Charge/Discharge alternance
Mode                Single sine
E (V)               0.0000
vs.                 Eoc
tE (h:m:s)          0:00:0.0000
record              0
dI                  0.000
unit dI             mA
dt (s)              0.000
fi                  100.000
unit fi             kHz
ff                  10.000
unit ff             mHz
Nd                  6
Points              per decade
spacing             Logarithmic
Va (mV)             5.0
pw                  0.10
Na                  2
corr                0
E range min (V)     -10.000
E range max (V)     10.000
I Range             Auto
Bandwidth           5
nc cycles           0
goto Ns'            0
nr cycles           0
inc. cycle          0

freq/Hz	Re(Z)/Ohm	-Im(Z)/Ohm	|Z|/Ohm	Phase(Z)/deg	time/s	<Ewe>/V	<I>/mA	Cs/µF	Cp/µF	cycle number	I Range	|Ewe|/V	|I|/A	Ns	(Q-Qo)/mA.h	<Ece>/V	|Ece|/V	Phase(Zce)/deg	|Zce|/Ohm	Re(Zce)/Ohm	-Im(Zce)/Ohm	Phase(Zwe-ce)/deg	|Zwe-ce|/Ohm	Re(Zwe-ce)/Ohm	-Im(Zwe-ce)/Ohm	Re(Y)/Ohm-1	Im(Y)/Ohm-1	|Y|/Ohm-1	Phase(Y)/deg	Re(C)/nF	Im(C)/nF	|C|/nF	Phase(C)/deg	Re(M)	Im(M)	|M|	Phase(M)/deg	Re(Permittivity)	Im(Permittivity)	|Permittivity|	Phase(Permittivity)/deg	Re(Resistivity)/Ohm.cm	Im(Resistivity)/Ohm.cm	|Resistivity|/Ohm.cm	Phase(Resistivity)/deg	Re(Conductivity)/mS/cm	Im(Conductivity)/mS/cm	|Conductivity|/mS/cm	Phase(Conductivity)/deg	Tan(Delta)	Loss Angle(Delta)/deg	dq/mA.h	Pwe/W	Pce/W	Pwe-ce/W	<Ewe-Ece>/V	Rwe/Ohm	Rce/Ohm	Rwe-ce/Ohm		Ewe-Ece/V
100004	1.32073	0.589296	1.44624	-24.0459	1.91056	0.263303	-0.0343361	2.70066	0.448392	1	9	0.00472137	0.00326459	0	-8.8643e-06	1.33066e-05	2.57401e-05	94.2524	0.00788466	-0.000584647	-0.00786295	-23.7701	1.44252	1.32015	0.581433	0.631445	0.281743	0.691449	24.0459	448.392	1004.94	1100.43	-65.9541	0.0000000E+000	0.0000000E+000	0.0000000E+000	65.9541	0.0000000E+000	0.0000000E+000	0.0000000E+000	-65.9541	0.0000000E+000	0.0000000E+000	0.0000000E+000	-24.0459	0.0000000E+000	0.0000000E+000	0.0000000E+000	24.0459	2.24121	65.9541	-8.8643e-06	-9.04078e-06	-4.56897e-10	-9.04033e-06	0.263289	7668.39	0.38754	7668
31621.1	1.83582	0.744498	1.98104	-22.0745	3.43152	0.263318	-0.0336648	6.7605	0.954819	1	9	0.00514312	0.00259617	0	-2.21444e-05	-8.22432e-05	1.05407e-05	41.4311	0.0040601	0.00304407	-0.00268664	-21.9695	1.98285	1.83886	0.741812	0.467783	0.189705	0.504786	22.0745	954.819	2354.44	2540.68	-67.9255	0.0000000E+000	0.0000000E+000	0.0000000E+000	67.9255	0.0000000E+000	0.0000000E+000	0.0000000E+000	-67.9255	0.0000000E+000	0.0000000E+000	0.0000000E+000	-22.0745	0.0000000E+000	0.0000000E+000	0.0000000E+000	22.0745	2.46585	67.9255	-5.79153e-07	-8.86455e-06	2.7687e-09	-8.86732e-06	0.263401	7821.78	2.443	7824.22
10002.2	2.38066	0.928314	2.55525	-21.3028	4.45653	0.263308	-0.0338513	17.1407	2.26231	1	9	0.00493692	0.00193207	0	-3.16657e-05	-0.000216013	1.74629e-05	-103.522	0.00903843	-0.0021133	0.0087879	-21.5035	2.55649	2.37855	0.937101	0.364611	0.142177	0.391351	21.3028	2262.31	5801.68	6227.16	-68.6972	0.0000000E+000	0.0000000E+000	0.0000000E+000	68.6972	0.0000000E+000	0.0000000E+000	0.0000000E+000	-68.6972	0.0000000E+000	0.0000000E+000	0.0000000E+000	-21.3028	0.0000000E+000	0.0000000E+000	0.0000000E+000	21.3028	2.5645	68.6972	-2.21153e-06	-8.91332e-06	7.31231e-09	-8.92063e-06	0.263524	7778.38	6.38123	7784.77
3163.08	2.99973	1.37705	3.3007	-24.6579	5.35361	0.263116	-0.0629432	36.5393	6.35984	1	9	0.00456803	0.00138396	0	-4.25467e-05	-0.000196903	4.50275e-06	-35.1923	0.00325354	0.00265886	0.00187509	-24.6682	3.3039	3.00239	1.37893	0.27534	0.126397	0.302966	24.6579	6359.84	13854.1	15244.2	-65.3421	0.0000000E+000	0.0000000E+000	0.0000000E+000	65.3421	0.0000000E+000	0.0000000E+000	0.0000000E+000	-65.3421	0.0000000E+000	0.0000000E+000	0.0000000E+000	-24.6579	0.0000000E+000	0.0000000E+000	0.0000000E+000	24.6579	2.17837	65.3421	-6.43746e-06	-1.65613e-05	1.23937e-08	-1.65737e-05	0.263313	4180.21	3.12826	4183.34
1000.32	3.8426	2.52961	4.60049	-33.3572	6.95281	0.263245	-0.0148521	62.8967	19.0163	1	10	0.00460799	0.00100163	0	-4.68813e-05	-0.000311563	6.99189e-06	30.0995	0.00698051	0.00603922	-0.00350075	-33.2795	4.60361	3.84864	2.52611	0.181559	0.119521	0.217368	33.3572	19016.3	28886.7	34584.2	-56.6428	0.0000000E+000	0.0000000E+000	0.0000000E+000	56.6428	0.0000000E+000	0.0000000E+000	0.0000000E+000	-56.6428	0.0000000E+000	0.0000000E+000	0.0000000E+000	-33.3572	0.0000000E+000	0.0000000E+000	0.0000000E+000	33.3572	1.51905	56.6428	-1.27071e-06	-3.90972e-06	4.62735e-09	-3.91435e-06	0.263556	17724.4	20.9777	17745.4
316.316	5.61033	5.43639	7.81218	-44.0979	8.30307	0.263245	-0.0144865	92.5526	44.8193	1	10	0.00451627	0.000578107	0	-5.14464e-05	-0.000349783	1.04387e-05	40.5201	0.0180567	0.0137263	-0.0117317	-43.9661	7.81389	5.62405	5.42465	0.0919273	0.0890772	0.128005	44.0979	44819.3	46253.4	64406.1	-45.9021	0.0000000E+000	0.0000000E+000	0.0000000E+000	45.9021	0.0000000E+000	0.0000000E+000	0.0000000E+000	-45.9021	0.0000000E+000	0.0000000E+000	0.0000000E+000	-44.0979	0.0000000E+000	0.0000000E+000	0.0000000E+000	44.0979	1.032	45.9021	-1.31707e-06	-3.81351e-06	5.06714e-09	-3.81857e-06	0.263595	18171.7	24.1454	18195.9
100.032	11.2678	10.8223	15.6233	-43.8446	9.86185	0.263236	-0.0147775	147.015	70.5435	1	10	0.00499453	0.000319686	0	-5.7476e-05	-0.000559992	6.84321e-06	33.4678	0.0214061	0.0178569	-0.0118048	-43.768	15.628	11.2857	10.8105	0.0461633	0.044338	0.0640071	43.8446	70543.5	73447.7	101838	-46.1554	0.0000000E+000	0.0000000E+000	0.0000000E+000	46.1554	0.0000000E+000	0.0000000E+000	0.0000000E+000	-46.1554	0.0000000E+000	0.0000000E+000	0.0000000E+000	-43.8446	0.0000000E+000	0.0000000E+000	0.0000000E+000	43.8446	1.04117	46.1554	-2.00156e-06	-3.88997e-06	8.27528e-09	-3.89824e-06	0.263796	17813.3	37.8949	17851.2
[...]
1.00006	37.6022	3.07128	37.7274	-4.66945	19.5988	0.263282	0.000275286	51817.1	343.398	1	12	0.00498486	0.000132128	0	-5.83955e-05	-0.000235123	3.09963e-06	-41.5351	0.0234593	0.0175604	0.0155553	-4.69081	37.7462	37.6198	3.08684	0.0264179	0.00215777	0.0265059	4.66945	343398	4.20428e+06	4.21828e+06	-85.3306	0.0000000E+000	0.0000000E+000	0.0000000E+000	85.3306	0.0000000E+000	0.0000000E+000	0.0000000E+000	-85.3306	0.0000000E+000	0.0000000E+000	0.0000000E+000	-4.66945	0.0000000E+000	0.0000000E+000	0.0000000E+000	4.66945	12.2432	85.3306	4.42741e-06	7.24777e-08	-6.4726e-11	7.25424e-08	0.263517	956394	854.104	957248
0.316193	39.6695	3.19878	39.7983	-4.6101	33.9411	0.263289	0.000998665	157356	1016.54	1	12	0.00498072	0.000125149	0	-5.56018e-05	-2.49133e-05	1.60037e-06	9.03697	0.0127878	0.012629	-0.0020086	-4.60576	39.8107	39.6822	3.19677	0.0250454	0.00201955	0.0251267	4.6101	1.01653e+06	1.26065e+07	1.26475e+07	-85.3899	0.0000000E+000	0.0000000E+000	0.0000000E+000	85.3899	0.0000000E+000	0.0000000E+000	0.0000000E+000	-85.3899	0.0000000E+000	0.0000000E+000	0.0000000E+000	-4.6101	0.0000000E+000	0.0000000E+000	0.0000000E+000	4.6101	12.4015	85.3899	-4.322e-06	2.62938e-07	-2.48801e-11	2.62963e-07	0.263314	263641	24.9466	263666
0.0999041	42.0969	4.09487	42.2956	-5.55582	79.1501	0.26328	-0.000375721	389042	3646.58	1	12	0.00499039	0.000117988	0	-0.000107042	-0.000235123	2.7533e-06	15.9029	0.0233354	0.0224422	-0.00639407	-5.54426	42.3174	42.1194	4.08847	0.023532	0.00228902	0.0236431	5.55582	3.64658e+06	3.74884e+07	3.76653e+07	-84.4442	0.0000000E+000	0.0000000E+000	0.0000000E+000	84.4442	0.0000000E+000	0.0000000E+000	0.0000000E+000	-84.4442	0.0000000E+000	0.0000000E+000	0.0000000E+000	-5.55582	0.0000000E+000	0.0000000E+000	0.0000000E+000	5.55582	10.2804	84.4442	-1.80581e-05	-9.89198e-08	8.83405e-11	-9.90082e-08	0.263515	700733	625.791	701359
0.0315922	45.0652	7.7173	45.7212	-9.7175	222.035	0.263277	-0.000901984	652792	18598.2	1	12	0.00498908	0.00010912	0	-4.01508e-06	0.000127966	2.25867e-06	-7.4081	0.020699	0.0205263	0.00266885	-9.71645	45.7419	45.0857	7.71997	0.0215579	0.00369173	0.0218717	9.7175	1.85982e+07	1.08604e+08	1.10185e+08	-80.2825	0.0000000E+000	0.0000000E+000	0.0000000E+000	80.2825	0.0000000E+000	0.0000000E+000	0.0000000E+000	-80.2825	0.0000000E+000	0.0000000E+000	0.0000000E+000	-9.7175	0.0000000E+000	0.0000000E+000	0.0000000E+000	9.7175	5.8395	80.2825	7.82573e-05	-2.37471e-07	-1.15424e-10	-2.37356e-07	0.263149	291886	141.872	291744
0.0100092	50.6189	17.5914	53.5885	-19.1637	673.257	0.263277	0.000499765	903902	97404.5	1	12	0.00498904	9.3099e-05	0	0.000138112	0.000242626	1.60656e-06	-5.75128	0.0172565	0.0171696	0.00172928	-19.1594	53.6053	50.6361	17.5931	0.0176266	0.00612572	0.0186607	19.1637	9.74045e+07	2.80279e+08	2.96722e+08	-70.8363	0.0000000E+000	0.0000000E+000	0.0000000E+000	70.8363	0.0000000E+000	0.0000000E+000	0.0000000E+000	-70.8363	0.0000000E+000	0.0000000E+000	0.0000000E+000	-19.1637	0.0000000E+000	0.0000000E+000	0.0000000E+000	19.1637	2.87748	70.8363	-5.49171e-05	1.31576e-07	1.21256e-10	1.31455e-07	0.263034	526801	485.48	526315

File: 19346_R279_UA714_SOC00_C05.mpt
EC-Lab ASCII FILE
Nb header lines : 65

Potentio Electrochemical Impedance Spectroscopy

Run on channel : 5 (SN 65912)
User :
CE vs. WE compliance from -10 V to 10 V
Electrode connection : standard
Potential control : Ewe
Ewe ctrl range : min = -10.00 V, max = 10.00 V
Safety Limits :
	Do not start on E overload
Acquisition started on : 11/20/2025 15:02:57.166
Technique started on : 11/20/2025 15:02:59.220
Loaded Setting File :  C:\Users\Celltest\OneDrive - store-dot.com\Documents\EC-Lab\Data\@Biologic Test Protocols\anode half cell EIS SOC00.mps
Saved on :
	File : 19346_R279_UA714_SOC00_C05.mpr
	Directory : C:\Users\Celltest\OneDrive - store-dot.com\Documents\EC-Lab\Data\Charmaine\
	Host : 169.254.61.224
Device : VMP-3e (SN .003165)
Address : USB
EC-LAB for windows v11.62 (software)
Internet server v27.00 (firmware)
Command interpretor v12.03 (firmware)
Electrode material :
Initial state :
Electrolyte :
Comments :
Electrode surface area : 0.001 cm²
Characteristic mass : 0.001 g
Equivalent Weight : 0.000 g/eq.
Density : 0.000 g/cm3
Volume (V) : 0.001 cm³
Record Ece
Cycle Definition : Charge/Discharge alternance
Mode                Single sine
E (V)               0.0000
vs.                 Eoc
tE (h:m:s)          0:00:0.0000
record              0
dI                  0.000
unit dI             mA
dt (s)              0.000
fi                  100.000
unit fi             kHz
ff                  10.000
unit ff             mHz
Nd                  6
Points              per decade
spacing             Logarithmic
Va (mV)             5.0
pw                  0.10
Na                  2
corr                0
E range min (V)     -10.000
E range max (V)     10.000
I Range             Auto
Bandwidth           5
nc cycles           0
goto Ns'            0
nr cycles           0
inc. cycle          0

freq/Hz	Re(Z)/Ohm	-Im(Z)/Ohm	|Z|/Ohm	Phase(Z)/deg	time/s	<Ewe>/V	<I>/mA	Cs/µF	Cp/µF	cycle number	I Range	|Ewe|/V	|I|/A	Ns	(Q-Qo)/mA.h	<Ece>/V	|Ece|/V	Phase(Zce)/deg	|Zce|/Ohm	Re(Zce)/Ohm	-Im(Zce)/Ohm	Phase(Zwe-ce)/deg	|Zwe-ce|/Ohm	Re(Zwe-ce)/Ohm	-Im(Zwe-ce)/Ohm	Re(Y)/Ohm-1	Im(Y)/Ohm-1	|Y|/Ohm-1	Phase(Y)/deg	Re(C)/nF	Im(C)/nF	|C|/nF	Phase(C)/deg	Re(M)	Im(M)	|M|	Phase(M)/deg	Re(Permittivity)	Im(Permittivity)	|Permittivity|	Phase(Permittivity)/deg	Re(Resistivity)/Ohm.cm	Im(Resistivity)/Ohm.cm	|Resistivity|/Ohm.cm	Phase(Resistivity)/deg	Re(Conductivity)/mS/cm	Im(Conductivity)/mS/cm	|Conductivity|/mS/cm	Phase(Conductivity)/deg	Tan(Delta)	Loss Angle(Delta)/deg	dq/mA.h	Pwe/W	Pce/W	Pwe-ce/W	<Ewe-Ece>/V	Rwe/Ohm	Rce/Ohm	Rwe-ce/Ohm		Ewe-Ece/V
100004	1.26492	0.582207	1.39248	-24.7152	2.05353	0.258423	0.00724026	2.73355	0.477863	1	9	0.0049434	0.00355007	0	-1.00409e-06	-9.38465e-06	4.30959e-05	84.7021	0.0121395	0.00112089	-0.0120876	-24.2427	1.38849	1.26605	0.570119	0.652359	0.300261	0.718143	24.7152	477.863	1038.22	1142.92	-65.2848	0.0000000E+000	0.0000000E+000	0.0000000E+000	65.2848	0.0000000E+000	0.0000000E+000	0.0000000E+000	-65.2848	0.0000000E+000	0.0000000E+000	0.0000000E+000	-24.7152	0.0000000E+000	0.0000000E+000	0.0000000E+000	24.7152	2.17264	65.2848	-1.00409e-06	1.87105e-06	-6.79473e-11	1.87112e-06	0.258432	35692.5	1.29618	35693.8
31621.1	1.78613	0.755689	1.93941	-22.9326	3.32853	0.258393	-0.00206971	6.66039	1.01122	1	9	0.00544029	0.00280512	0	5.96116e-06	-0.000200297	1.85261e-05	51.5689	0.0066044	0.00410512	-0.0051736	-22.7448	1.94119	1.79024	0.750515	0.474867	0.20091	0.51562	22.9326	1011.22	2390.09	2595.21	-67.0674	0.0000000E+000	0.0000000E+000	0.0000000E+000	67.0674	0.0000000E+000	0.0000000E+000	0.0000000E+000	-67.0674	0.0000000E+000	0.0000000E+000	0.0000000E+000	-22.9326	0.0000000E+000	0.0000000E+000	0.0000000E+000	22.9326	2.36358	67.0674	-4.49027e-06	-5.348e-07	4.14556e-10	-5.35214e-07	0.258594	124845	96.7753	124942
10002.2	2.34112	0.933872	2.52051	-21.747	4.47953	0.25838	-0.00158562	17.0387	2.33902	1	9	0.0051149	0.00202931	0	7.81098e-06	4.7889e-05	9.06635e-06	35.6767	0.0044677	0.00362921	-0.00260561	-21.6615	2.52292	2.34475	0.931266	0.368508	0.146998	0.396745	21.747	2339.02	5863.68	6312.99	-68.253	0.0000000E+000	0.0000000E+000	0.0000000E+000	68.253	0.0000000E+000	0.0000000E+000	0.0000000E+000	-68.253	0.0000000E+000	0.0000000E+000	0.0000000E+000	-21.747	0.0000000E+000	0.0000000E+000	0.0000000E+000	21.747	2.5069	68.253	1.1984e-06	-4.09692e-07	-7.59337e-11	-4.09616e-07	0.258332	162952	30.2021	162922
3163.08	2.95178	1.3557	3.24822	-24.6685	5.37668	0.258264	-0.0433687	37.1146	6.46522	1	9	0.00540246	0.0016632	0	2.66676e-06	0.000105163	9.99438e-06	-140.904	0.00600911	-0.00466363	0.00378946	-24.7637	3.24557	2.94712	1.35949	0.279765	0.128491	0.307861	24.6685	6465.22	14076.8	15490.5	-65.3315	0.0000000E+000	0.0000000E+000	0.0000000E+000	65.3315	0.0000000E+000	0.0000000E+000	0.0000000E+000	-65.3315	0.0000000E+000	0.0000000E+000	0.0000000E+000	-24.6685	0.0000000E+000	0.0000000E+000	0.0000000E+000	24.6685	2.1773	65.3315	-3.04396e-06	-1.12006e-05	-4.56077e-09	-1.1196e-05	0.258158	5955.07	2.42485	5952.65
1000.32	3.76107	2.47921	4.50468	-33.392	6.97577	0.258331	-0.0123936	64.1752	19.4387	1	10	0.00531419	0.0011797	0	1.36843e-06	-6.66583e-05	1.38053e-05	-8.51091	0.0117024	0.0115735	0.00173193	-33.3295	4.5153	3.77264	2.48095	0.185346	0.122176	0.221991	33.392	19438.7	29489.3	35319.7	-56.608	0.0000000E+000	0.0000000E+000	0.0000000E+000	56.608	0.0000000E+000	0.0000000E+000	0.0000000E+000	-56.608	0.0000000E+000	0.0000000E+000	0.0000000E+000	-33.392	0.0000000E+000	0.0000000E+000	0.0000000E+000	33.392	1.51704	56.608	-1.13279e-06	-3.20165e-06	8.26138e-10	-3.20248e-06	0.258397	20843.8	5.37843	20849.2
316.316	5.60816	5.26975	7.69557	-43.2181	8.32502	0.258326	-0.0124607	95.4792	44.7721	1	10	0.00517263	0.000672156	0	-3.39724e-06	0.000200619	5.90332e-06	-56.4117	0.00878266	0.00485875	0.00731626	-43.233	7.70412	5.61302	5.27707	0.0946976	0.0889834	0.129945	43.2181	44772.1	47647.3	65382	-46.7819	0.0000000E+000	0.0000000E+000	0.0000000E+000	46.7819	0.0000000E+000	0.0000000E+000	0.0000000E+000	-46.7819	0.0000000E+000	0.0000000E+000	0.0000000E+000	-43.2181	0.0000000E+000	0.0000000E+000	0.0000000E+000	43.2181	1.06422	46.7819	-1.28774e-06	-3.21892e-06	-2.49985e-09	-3.21642e-06	0.258126	20731.3	16.1001	20715.2
100.032	11.3182	9.94436	15.0662	-41.3031	9.67285	0.258327	-0.0119171	159.994	69.7024	1	10	0.00512574	0.000340213	0	-7.01377e-06	4.7889e-05	7.20182e-06	-9.11903	0.0211685	0.020901	0.00335492	-41.2603	15.0842	11.3391	9.94772	0.0498617	0.0438094	0.0663735	41.3031	69702.5	79331.9	105603	-48.6969	0.0000000E+000	0.0000000E+000	0.0000000E+000	48.6969	0.0000000E+000	0.0000000E+000	0.0000000E+000	-48.6969	0.0000000E+000	0.0000000E+000	0.0000000E+000	-41.3031	0.0000000E+000	0.0000000E+000	0.0000000E+000	41.3031	1.13815	48.6969	-1.60545e-06	-3.07849e-06	-5.70696e-10	-3.07792e-06	0.258279	21677	4.01852	21673
[...]
1.00006	33.3501	2.89007	33.4751	-4.9528	19.7278	0.258344	-0.00368579	55066	410.447	1	12	0.0051254	0.000153111	0	-1.72993e-05	0.000276984	2.80442e-06	24.2358	0.0183163	0.016702	-0.00751871	-4.93752	33.4911	33.3668	2.88256	0.0297614	0.00257908	0.0298729	4.9528	410447	4.73637e+06	4.75412e+06	-85.0472	0.0000000E+000	0.0000000E+000	0.0000000E+000	85.0472	0.0000000E+000	0.0000000E+000	0.0000000E+000	-85.0472	0.0000000E+000	0.0000000E+000	0.0000000E+000	-4.9528	0.0000000E+000	0.0000000E+000	0.0000000E+000	4.9528	11.5395	85.0472	1.81995e-06	-9.52202e-07	-1.0209e-09	-9.51181e-07	0.258067	70092.1	75.1491	70016.9
0.316193	35.2264	2.85409	35.3418	-4.63207	34.07	0.258342	-0.00204096	176360	1150.16	1	12	0.0051241	0.000144987	0	-2.64092e-05	-2.84759e-05	2.90456e-06	-25.0524	0.0200332	0.0181485	0.008483	-4.64339	35.3606	35.2445	2.86257	0.0282027	0.00228502	0.0282951	4.63207	1.15016e+06	1.41957e+07	1.42423e+07	-85.3679	0.0000000E+000	0.0000000E+000	0.0000000E+000	85.3679	0.0000000E+000	0.0000000E+000	0.0000000E+000	-85.3679	0.0000000E+000	0.0000000E+000	0.0000000E+000	-4.63207	0.0000000E+000	0.0000000E+000	0.0000000E+000	4.63207	12.3424	85.3679	-1.05301e-05	-5.27265e-07	5.81181e-11	-5.27324e-07	0.25837	126578	13.9522	126592
0.0999041	37.2601	3.80715	37.4541	-5.83411	79.2791	0.258359	-0.00188702	418443	4323.53	1	12	0.00512829	0.000136922	0	-0.000112337	-0.000238479	2.16384e-06	-29.4944	0.0158034	0.0137554	0.00778065	-5.8438	37.4686	37.2739	3.81493	0.0265611	0.00271395	0.0266993	5.83411	4.32353e+06	4.23138e+07	4.25341e+07	-84.1659	0.0000000E+000	0.0000000E+000	0.0000000E+000	84.1659	0.0000000E+000	0.0000000E+000	0.0000000E+000	-84.1659	0.0000000E+000	0.0000000E+000	0.0000000E+000	-5.83411	0.0000000E+000	0.0000000E+000	0.0000000E+000	5.83411	9.78687	84.1659	-3.26519e-05	-4.87528e-07	4.50015e-10	-4.87978e-07	0.258597	136914	126.379	137040
0.0315922	39.9274	7.59005	40.6424	-10.7633	222.163	0.258353	-0.00139556	663736	23148.6	1	12	0.00512431	0.000126083	0	-2.73366e-05	0.000238801	1.0018e-06	3.38682	0.00794556	0.00793168	-0.000469398	-10.7605	40.6501	39.9354	7.58958	0.0241719	0.00459499	0.0246048	10.7633	2.31486e+07	1.21773e+08	1.23954e+08	-79.2367	0.0000000E+000	0.0000000E+000	0.0000000E+000	79.2367	0.0000000E+000	0.0000000E+000	0.0000000E+000	-79.2367	0.0000000E+000	0.0000000E+000	0.0000000E+000	-10.7633	0.0000000E+000	0.0000000E+000	0.0000000E+000	10.7633	5.2605	79.2367	8.22291e-05	-3.60546e-07	-3.33261e-10	-3.60213e-07	0.258114	185125	171.115	184954
0.0100092	45.3368	17.1786	48.4823	-20.7522	673.386	0.258347	0.000472747	925624	116210	1	12	0.00512855	0.000105782	0	0.00013246	-0.000162114	2.93626e-06	-25.1845	0.0277577	0.0251191	0.0118119	-20.7547	48.51	45.362	17.1904	0.0192879	0.00730838	0.0206261	20.7522	1.1621e+08	3.06695e+08	3.27974e+08	-69.2478	0.0000000E+000	0.0000000E+000	0.0000000E+000	69.2478	0.0000000E+000	0.0000000E+000	0.0000000E+000	-69.2478	0.0000000E+000	0.0000000E+000	0.0000000E+000	-20.7522	0.0000000E+000	0.0000000E+000	0.0000000E+000	20.7522	2.63915	69.2478	-6.34454e-05	1.22133e-07	-7.66391e-11	1.2221e-07	0.258509	546481	342.92	546824