Folder: EIS/txt (part 25)

File: 17454_R281_UA646_SOC00_C01.mpt
EC-Lab ASCII FILE
Nb header lines : 63

Potentio Electrochemical Impedance Spectroscopy

Run on channel : 1 (SN 66354)
User :
CE vs. WE compliance from -10 V to 10 V
Electrode connection : standard
Potential control : Ewe
Ewe ctrl range : min = -10.00 V, max = 10.00 V
Safety Limits :
	Do not start on E overload
Acquisition started on : 09/11/2025 16:15:27.841
Loaded Setting File :  C:\Users\Celltest\OneDrive - store-dot.com\Documents\EC-Lab\Data\Gyutae\EIS_SOC0_C01.mpr
Saved on :
	File : 17454_C01.mpr
	Directory : C:\Users\Celltest\OneDrive - store-dot.com\Documents\EC-Lab\Data\John\R281\
	Host : 169.254.61.224
Device : VMP-3e (SN .003165)
Address : USB
EC-LAB for windows v11.62 (software)
Internet server v27.00 (firmware)
Command interpretor v12.03 (firmware)
Electrode material :
Initial state :
Electrolyte :
Comments :
Electrode surface area : 0.001 cm²
Characteristic mass : 0.001 g
Equivalent Weight : 0.000 g/eq.
Density : 0.000 g/cm3
Volume (V) : 0.001 cm³
Cycle Definition : Charge/Discharge alternance
Mode                Single sine
E (V)               0.0000
vs.                 Eoc
tE (h:m:s)          0:00:0.0000
record              0
dI                  0.000
unit dI             mA
dt (s)              0.000
fi                  100.000
unit fi             kHz
ff                  10.000
unit ff             mHz
Nd                  6
Points              per decade
spacing             Logarithmic
Va (mV)             5.0
pw                  0.10
Na                  2
corr                0
E range min (V)     -10.000
E range max (V)     10.000
I Range             Auto
Bandwidth           5
nc cycles           0
goto Ns'            0
nr cycles           0
inc. cycle          0

freq/Hz	Re(Z)/Ohm	-Im(Z)/Ohm	|Z|/Ohm	Phase(Z)/deg	time/s	<Ewe>/V	<I>/mA	Cs/µF	Cp/µF	cycle number	I Range	|Ewe|/V	|I|/A	Ns	(Q-Qo)/mA.h	Re(Y)/Ohm-1	Im(Y)/Ohm-1	|Y|/Ohm-1	Phase(Y)/deg	Re(C)/nF	Im(C)/nF	|C|/nF	Phase(C)/deg	Re(M)	Im(M)	|M|	Phase(M)/deg	Re(Permittivity)	Im(Permittivity)	|Permittivity|	Phase(Permittivity)/deg	Re(Resistivity)/Ohm.cm	Im(Resistivity)/Ohm.cm	|Resistivity|/Ohm.cm	Phase(Resistivity)/deg	Re(Conductivity)/mS/cm	Im(Conductivity)/mS/cm	|Conductivity|/mS/cm	Phase(Conductivity)/deg	Tan(Delta)	Loss Angle(Delta)/deg	dq/mA.h	Pwe/W	Rwe/Ohm
100004	2.01737	0.343941	2.04648	-9.67529	2.06849	0.296243	0.0336175	4.62722	0.130699	1	9	0.00455772	0.0022271	0	4.01284e-07	0.481693	0.0821235	0.488643	9.67529	130.699	766.61	777.671	-80.3247	0.0000000E+000	0.0000000E+000	0.0000000E+000	80.3247	0.0000000E+000	0.0000000E+000	0.0000000E+000	-80.3247	0.0000000E+000	0.0000000E+000	0.0000000E+000	-9.67529	0.0000000E+000	0.0000000E+000	0.0000000E+000	9.67529	5.86547	80.3247	4.01284e-07	9.95893e-06	8812.16
46420.4	2.18825	0.403172	2.22508	-10.4393	3.22449	0.296246	0.0388331	8.50397	0.279196	1	9	0.0051034	0.00229358	0	7.80351e-06	0.441982	0.0814323	0.449421	10.4393	279.195	1515.36	1540.87	-79.5607	0.0000000E+000	0.0000000E+000	0.0000000E+000	79.5607	0.0000000E+000	0.0000000E+000	0.0000000E+000	-79.5607	0.0000000E+000	0.0000000E+000	0.0000000E+000	-10.4393	0.0000000E+000	0.0000000E+000	0.0000000E+000	10.4393	5.4276	79.5607	3.05864e-06	1.15041e-05	7628.69
21544.7	2.37079	0.519254	2.42698	-12.354	4.09849	0.296238	0.0352939	14.2266	0.651218	1	9	0.00475091	0.00195753	0	1.88584e-05	0.402493	0.0881549	0.412034	12.354	651.218	2973.3	3043.78	-77.646	0.0000000E+000	0.0000000E+000	0.0000000E+000	77.646	0.0000000E+000	0.0000000E+000	0.0000000E+000	-77.646	0.0000000E+000	0.0000000E+000	0.0000000E+000	-12.354	0.0000000E+000	0.0000000E+000	0.0000000E+000	12.354	4.56575	77.646	3.93618e-06	1.04554e-05	8393.45
10002.2	2.61195	0.670054	2.69652	-14.3881	4.83248	0.296246	0.0376782	23.7473	1.46631	1	9	0.00452297	0.00167733	0	2.55257e-05	0.359216	0.0921514	0.370848	14.3881	1466.31	5715.83	5900.92	-75.6119	0.0000000E+000	0.0000000E+000	0.0000000E+000	75.6119	0.0000000E+000	0.0000000E+000	0.0000000E+000	-75.6119	0.0000000E+000	0.0000000E+000	0.0000000E+000	-14.3881	0.0000000E+000	0.0000000E+000	0.0000000E+000	14.3881	3.89811	75.6119	2.01083e-06	1.1162e-05	7862.55
4641.49	2.9348	0.882644	3.06465	-16.7387	5.8587	0.29635	0.103749	38.8488	3.22245	1	9	0.00478664	0.00156189	0	4.16177e-05	0.312475	0.0939772	0.326301	16.7387	3222.45	10714.7	11188.8	-73.2613	0.0000000E+000	0.0000000E+000	0.0000000E+000	73.2613	0.0000000E+000	0.0000000E+000	0.0000000E+000	-73.2613	0.0000000E+000	0.0000000E+000	0.0000000E+000	-16.7387	0.0000000E+000	0.0000000E+000	0.0000000E+000	16.7387	3.32501	73.2613	1.29834e-05	3.07459e-05	2856.42
2155.69	3.37206	1.18429	3.57398	-19.3516	6.7927	0.296346	0.100452	62.3412	6.84523	1	9	0.00471796	0.00132008	0	6.60903e-05	0.263992	0.0927159	0.2798	19.3516	6845.23	19490.6	20657.7	-70.6484	0.0000000E+000	0.0000000E+000	0.0000000E+000	70.6484	0.0000000E+000	0.0000000E+000	0.0000000E+000	-70.6484	0.0000000E+000	0.0000000E+000	0.0000000E+000	-19.3516	0.0000000E+000	0.0000000E+000	0.0000000E+000	19.3516	2.84732	70.6484	1.32786e-05	2.97685e-05	2950.13
1000.32	3.94904	1.61788	4.26761	-22.2784	7.98367	0.296286	-0.00927306	98.3408	14.1338	1	10	0.00476489	0.00111652	0	6.92853e-05	0.216832	0.0888338	0.234323	22.2784	14133.8	34498.8	37281.8	-67.7216	0.0000000E+000	0.0000000E+000	0.0000000E+000	67.7216	0.0000000E+000	0.0000000E+000	0.0000000E+000	-67.7216	0.0000000E+000	0.0000000E+000	0.0000000E+000	-22.2784	0.0000000E+000	0.0000000E+000	0.0000000E+000	22.2784	2.44087	67.7216	-1.89793e-06	-2.74748e-06	31951.3
463.961	4.65622	2.26983	5.18001	-25.9885	8.91821	0.29629	-0.00887614	151.128	29.0183	1	10	0.0047189	0.000910983	0	6.68434e-05	0.173529	0.0845926	0.19305	25.9885	29018.3	59526.6	66223	-64.0115	0.0000000E+000	0.0000000E+000	0.0000000E+000	64.0115	0.0000000E+000	0.0000000E+000	0.0000000E+000	-64.0115	0.0000000E+000	0.0000000E+000	0.0000000E+000	-25.9885	0.0000000E+000	0.0000000E+000	0.0000000E+000	25.9885	2.05135	64.0115	-8.13855e-07	-2.62991e-06	33380.5
215.345	5.70602	3.37233	6.62807	-30.5836	9.85245	0.29628	-0.00844569	219.157	56.7339	1	10	0.00469545	0.000708419	0	6.3743e-05	0.129885	0.0767638	0.150874	30.5836	56733.9	95994.4	111506	-59.4164	0.0000000E+000	0.0000000E+000	0.0000000E+000	59.4164	0.0000000E+000	0.0000000E+000	0.0000000E+000	-59.4164	0.0000000E+000	0.0000000E+000	0.0000000E+000	-30.5836	0.0000000E+000	0.0000000E+000	0.0000000E+000	30.5836	1.69201	59.4164	-1.71587e-06	-2.50229e-06	35080.6
100.032	7.57449	4.96929	9.05907	-33.2671	10.7837	0.29628	-0.00866745	320.175	96.3403	1	10	0.00468952	0.00051766	0	6.23944e-05	0.0922967	0.0605518	0.110387	33.2671	96340.3	146848	175629	-56.7329	0.0000000E+000	0.0000000E+000	0.0000000E+000	56.7329	0.0000000E+000	0.0000000E+000	0.0000000E+000	-56.7329	0.0000000E+000	0.0000000E+000	0.0000000E+000	-33.2671	0.0000000E+000	0.0000000E+000	0.0000000E+000	33.2671	1.52426	56.7329	-5.46004e-07	-2.56799e-06	34183.1
46.4415	10.6492	6.52381	12.4886	-31.4921	11.7175	0.296274	-0.0118242	525.306	143.346	1	10	0.00467955	0.000374705	0	6.06589e-05	0.0682792	0.0418285	0.0800729	31.4921	143346	233992	274409	-58.5079	0.0000000E+000	0.0000000E+000	0.0000000E+000	58.5079	0.0000000E+000	0.0000000E+000	0.0000000E+000	-58.5079	0.0000000E+000	0.0000000E+000	0.0000000E+000	-31.4921	0.0000000E+000	0.0000000E+000	0.0000000E+000	31.4921	1.63236	58.5079	-1.37249e-06	-3.5032e-06	25056.7
[...]
1.00006	26.5941	3.74657	26.8567	-8.01903	21.0402	0.296332	-0.00587494	42477.5	826.646	1	12	0.00468421	0.000174415	0	4.87722e-05	0.0368705	0.0051943	0.0372346	8.01903	826646	5.86775e+06	5.9257e+06	-81.981	0.0000000E+000	0.0000000E+000	0.0000000E+000	81.981	0.0000000E+000	0.0000000E+000	0.0000000E+000	-81.981	0.0000000E+000	0.0000000E+000	0.0000000E+000	-8.01903	0.0000000E+000	0.0000000E+000	0.0000000E+000	8.01903	7.09826	81.981	1.75399e-06	-1.74093e-06	50440.1
0.464091	27.9594	3.28189	28.1514	-6.69476	28.7249	0.296338	-0.00432259	104495	1420.17	1	12	0.00468726	0.000166502	0	4.40365e-05	0.03528	0.00414118	0.0355222	6.69476	1.42017e+06	1.20989e+07	1.2182e+07	-83.3052	0.0000000E+000	0.0000000E+000	0.0000000E+000	83.3052	0.0000000E+000	0.0000000E+000	0.0000000E+000	-83.3052	0.0000000E+000	0.0000000E+000	0.0000000E+000	-6.69476	0.0000000E+000	0.0000000E+000	0.0000000E+000	6.69476	8.51932	83.3052	-5.79253e-06	-1.28095e-06	68555.7
0.215268	29.0628	3.50962	29.274	-6.88568	45.2048	0.296333	-0.00354208	210659	3027.87	1	12	0.00468616	0.000160079	0	-5.06308e-06	0.0339136	0.0040954	0.03416	6.88568	3.02787e+06	2.50735e+07	2.52557e+07	-83.1143	0.0000000E+000	0.0000000E+000	0.0000000E+000	83.1143	0.0000000E+000	0.0000000E+000	0.0000000E+000	-83.1143	0.0000000E+000	0.0000000E+000	0.0000000E+000	-6.88568	0.0000000E+000	0.0000000E+000	0.0000000E+000	6.88568	8.28091	83.1143	-3.1348e-05	-1.04963e-06	83660.7
0.0999041	30.6706	4.61458	31.0158	-8.55632	80.6101	0.296334	-0.0034988	345227	7641.93	1	12	0.00468521	0.000151059	0	-7.88003e-05	0.0318828	0.00479696	0.0322416	8.55632	7.64193e+06	5.07917e+07	5.13634e+07	-81.4437	0.0000000E+000	0.0000000E+000	0.0000000E+000	81.4437	0.0000000E+000	0.0000000E+000	0.0000000E+000	-81.4437	0.0000000E+000	0.0000000E+000	0.0000000E+000	-8.55632	0.0000000E+000	0.0000000E+000	0.0000000E+000	8.55632	6.64645	81.4437	-3.37534e-05	-1.03681e-06	84696
0.0464052	32.8131	6.45764	33.4425	-11.1335	156.846	0.296331	-0.00285722	531104	19802.9	1	12	0.00468574	0.000140113	0	-5.83618e-05	0.0293393	0.00577398	0.029902	11.1335	1.98029e+07	1.00624e+08	1.02554e+08	-78.8665	0.0000000E+000	0.0000000E+000	0.0000000E+000	78.8665	0.0000000E+000	0.0000000E+000	0.0000000E+000	-78.8665	0.0000000E+000	0.0000000E+000	0.0000000E+000	-11.1335	0.0000000E+000	0.0000000E+000	0.0000000E+000	11.1335	5.08129	78.8665	3.44521e-05	-8.46683e-07	103713
0.0215268	35.8733	8.79643	36.9361	-13.7776	321.076	0.296331	-0.000519933	840494	47670.1	1	12	0.00468721	0.000126901	0	0.000125049	0.0262948	0.00644771	0.0270738	13.7776	4.76701e+07	1.94407e+08	2.00166e+08	-76.2224	0.0000000E+000	0.0000000E+000	0.0000000E+000	76.2224	0.0000000E+000	0.0000000E+000	0.0000000E+000	-76.2224	0.0000000E+000	0.0000000E+000	0.0000000E+000	-13.7776	0.0000000E+000	0.0000000E+000	0.0000000E+000	13.7776	4.07817	76.2224	0.000100132	-1.54072e-07	569940
0.0100092	39.0768	13.4124	41.3145	-18.9439	674.292	0.296333	0.000534841	1.18554e+06	124947	1	12	0.00468662	0.000113438	0	3.47503e-05	0.0228936	0.00785783	0.0242046	18.9439	1.24947e+08	3.64029e+08	3.84875e+08	-71.0561	0.0000000E+000	0.0000000E+000	0.0000000E+000	71.0561	0.0000000E+000	0.0000000E+000	0.0000000E+000	-71.0561	0.0000000E+000	0.0000000E+000	0.0000000E+000	-18.9439	0.0000000E+000	0.0000000E+000	0.0000000E+000	18.9439	2.91347	71.0561	-0.00013185	1.58491e-07	554058

File: 17455_R281_UA646_SOC00_C02.mpt
EC-Lab ASCII FILE
Nb header lines : 63

Potentio Electrochemical Impedance Spectroscopy

Run on channel : 2 (SN 66139)
User :
CE vs. WE compliance from -10 V to 10 V
Electrode connection : standard
Potential control : Ewe
Ewe ctrl range : min = -10.00 V, max = 10.00 V
Safety Limits :
	Do not start on E overload
Acquisition started on : 09/11/2025 16:15:40.713
Loaded Setting File :  C:\Users\Celltest\OneDrive - store-dot.com\Documents\EC-Lab\Data\Charmaine\R279\17382_C01.mpr
Saved on :
	File : 17455_C02.mpr
	Directory : C:\Users\Celltest\OneDrive - store-dot.com\Documents\EC-Lab\Data\John\R281\
	Host : 169.254.61.224
Device : VMP-3e (SN .003165)
Address : USB
EC-LAB for windows v11.62 (software)
Internet server v27.00 (firmware)
Command interpretor v12.03 (firmware)
Electrode material :
Initial state :
Electrolyte :
Comments :
Electrode surface area : 0.001 cm²
Characteristic mass : 0.001 g
Equivalent Weight : 0.000 g/eq.
Density : 0.000 g/cm3
Volume (V) : 0.001 cm³
Cycle Definition : Charge/Discharge alternance
Mode                Single sine
E (V)               0.0000
vs.                 Eoc
tE (h:m:s)          0:00:0.0000
record              0
dI                  0.000
unit dI             mA
dt (s)              0.000
fi                  100.000
unit fi             kHz
ff                  10.000
unit ff             mHz
Nd                  6
Points              per decade
spacing             Logarithmic
Va (mV)             5.0
pw                  0.10
Na                  2
corr                0
E range min (V)     -10.000
E range max (V)     10.000
I Range             Auto
Bandwidth           5
nc cycles           0
goto Ns'            0
nr cycles           0
inc. cycle          0

freq/Hz	Re(Z)/Ohm	-Im(Z)/Ohm	|Z|/Ohm	Phase(Z)/deg	time/s	<Ewe>/V	<I>/mA	Cs/µF	Cp/µF	cycle number	I Range	|Ewe|/V	|I|/A	Ns	(Q-Qo)/mA.h	Re(Y)/Ohm-1	Im(Y)/Ohm-1	|Y|/Ohm-1	Phase(Y)/deg	Re(C)/nF	Im(C)/nF	|C|/nF	Phase(C)/deg	Re(M)	Im(M)	|M|	Phase(M)/deg	Re(Permittivity)	Im(Permittivity)	|Permittivity|	Phase(Permittivity)/deg	Re(Resistivity)/Ohm.cm	Im(Resistivity)/Ohm.cm	|Resistivity|/Ohm.cm	Phase(Resistivity)/deg	Re(Conductivity)/mS/cm	Im(Conductivity)/mS/cm	|Conductivity|/mS/cm	Phase(Conductivity)/deg	Tan(Delta)	Loss Angle(Delta)/deg	dq/mA.h	Pwe/W	Rwe/Ohm
100004	2.02229	0.332473	2.04944	-9.33616	1.8655	0.294314	-0.0138532	4.78682	0.125977	1	9	0.00459179	0.00224051	0	-6.82165e-06	0.481475	0.0791567	0.487939	9.33616	125.977	766.264	776.55	-80.6638	0.0000000E+000	0.0000000E+000	0.0000000E+000	80.6638	0.0000000E+000	0.0000000E+000	0.0000000E+000	-80.6638	0.0000000E+000	0.0000000E+000	0.0000000E+000	-9.33616	0.0000000E+000	0.0000000E+000	0.0000000E+000	9.33616	6.08256	80.6638	-6.82165e-06	-4.07719e-06	21245.2
46420.4	2.19522	0.430181	2.23697	-11.0873	3.0215	0.294318	-0.0132945	7.97005	0.294742	1	9	0.00508108	0.00227141	0	-2.13787e-05	0.438689	0.0859667	0.447033	11.0873	294.742	1504.07	1532.68	-78.9127	0.0000000E+000	0.0000000E+000	0.0000000E+000	78.9127	0.0000000E+000	0.0000000E+000	0.0000000E+000	-78.9127	0.0000000E+000	0.0000000E+000	0.0000000E+000	-11.0873	0.0000000E+000	0.0000000E+000	0.0000000E+000	11.0873	5.10301	78.9127	-7.09798e-06	-3.91281e-06	22138.3
21544.7	2.3955	0.555872	2.45915	-13.0642	3.89547	0.294317	-0.011544	13.2894	0.679026	1	9	0.00478745	0.00194679	0	-2.26577e-05	0.39612	0.0919192	0.406645	13.0642	679.026	2926.22	3003.97	-76.9358	0.0000000E+000	0.0000000E+000	0.0000000E+000	76.9358	0.0000000E+000	0.0000000E+000	0.0000000E+000	-76.9358	0.0000000E+000	0.0000000E+000	0.0000000E+000	-13.0642	0.0000000E+000	0.0000000E+000	0.0000000E+000	13.0642	4.30944	76.9358	-2.43345e-06	-3.39759e-06	25495.3
10002.2	2.66464	0.719751	2.76013	-15.1156	4.62848	0.294321	-0.0071862	22.1076	1.5033	1	9	0.00451358	0.00163528	0	-2.49775e-05	0.349767	0.0944762	0.362302	15.1156	1503.3	5565.47	5764.93	-74.8844	0.0000000E+000	0.0000000E+000	0.0000000E+000	74.8844	0.0000000E+000	0.0000000E+000	0.0000000E+000	-74.8844	0.0000000E+000	0.0000000E+000	0.0000000E+000	-15.1156	0.0000000E+000	0.0000000E+000	0.0000000E+000	15.1156	3.70217	74.8844	-6.84009e-07	-2.11505e-06	40956.4
4641.49	3.01721	0.960233	3.16632	-17.6538	5.65467	0.29442	0.0421088	35.7097	3.2842	1	9	0.00477518	0.00150812	0	-2.4796e-05	0.300951	0.0957783	0.315824	17.6538	3284.2	10319.5	10829.5	-72.3462	0.0000000E+000	0.0000000E+000	0.0000000E+000	72.3462	0.0000000E+000	0.0000000E+000	0.0000000E+000	-72.3462	0.0000000E+000	0.0000000E+000	0.0000000E+000	-17.6538	0.0000000E+000	0.0000000E+000	0.0000000E+000	17.6538	3.14216	72.3462	5.25406e-06	1.23977e-05	6991.89
2155.69	3.47886	1.29639	3.71256	-20.4378	6.8427	0.294348	-0.0162417	56.9506	6.94422	1	10	0.00483356	0.00130195	0	-2.01485e-05	0.252401	0.0940567	0.269356	20.4378	6944.23	18634.8	19886.6	-69.5622	0.0000000E+000	0.0000000E+000	0.0000000E+000	69.5622	0.0000000E+000	0.0000000E+000	0.0000000E+000	-69.5622	0.0000000E+000	0.0000000E+000	0.0000000E+000	-20.4378	0.0000000E+000	0.0000000E+000	0.0000000E+000	20.4378	2.68349	69.5622	4.58167e-07	-4.78071e-06	18123
1000.32	4.09057	1.74622	4.4477	-23.1171	7.77867	0.294347	-0.0163274	91.1133	14.0446	1	10	0.00475165	0.00106834	0	-2.39278e-05	0.206782	0.0882729	0.224835	23.1171	14044.6	32899.8	35772.2	-66.8829	0.0000000E+000	0.0000000E+000	0.0000000E+000	66.8829	0.0000000E+000	0.0000000E+000	0.0000000E+000	-66.8829	0.0000000E+000	0.0000000E+000	0.0000000E+000	-23.1171	0.0000000E+000	0.0000000E+000	0.0000000E+000	23.1171	2.34253	66.8829	-1.69554e-06	-4.80591e-06	18027.8
463.961	4.86677	2.45092	5.44908	-26.73	8.71322	0.294338	-0.0166608	139.962	28.3154	1	10	0.00470773	0.000863949	0	-2.74691e-05	0.163906	0.0825436	0.183517	26.73	28315.4	56225.5	62952.9	-63.27	0.0000000E+000	0.0000000E+000	0.0000000E+000	63.27	0.0000000E+000	0.0000000E+000	0.0000000E+000	-63.27	0.0000000E+000	0.0000000E+000	0.0000000E+000	-26.73	0.0000000E+000	0.0000000E+000	0.0000000E+000	26.73	1.98569	63.27	-2.37028e-06	-4.90391e-06	17666.5
215.345	5.9829	3.63642	7.00133	-31.2914	9.64745	0.294339	-0.0163609	203.241	54.8276	1	10	0.00468975	0.000669837	0	-3.1304e-05	0.122053	0.0741845	0.14283	31.2914	54827.6	90206.2	105561	-58.7086	0.0000000E+000	0.0000000E+000	0.0000000E+000	58.7086	0.0000000E+000	0.0000000E+000	0.0000000E+000	-58.7086	0.0000000E+000	0.0000000E+000	0.0000000E+000	-31.2914	0.0000000E+000	0.0000000E+000	0.0000000E+000	31.2914	1.64527	58.7086	-1.58083e-06	-4.81566e-06	17990.4
100.032	7.95825	5.39813	9.61632	-34.1493	10.5777	0.294345	-0.0160443	294.739	92.8767	1	10	0.0046789	0.000486558	0	-3.55518e-05	0.0860597	0.0583748	0.10399	34.1493	92876.7	136925	165452	-55.8507	0.0000000E+000	0.0000000E+000	0.0000000E+000	55.8507	0.0000000E+000	0.0000000E+000	0.0000000E+000	-55.8507	0.0000000E+000	0.0000000E+000	0.0000000E+000	-34.1493	0.0000000E+000	0.0000000E+000	0.0000000E+000	34.1493	1.47426	55.8507	-2.14676e-06	-4.72255e-06	18345.8
46.4415	11.3229	7.25295	13.4467	-32.6419	11.5105	0.294331	-0.0185998	472.497	137.467	1	10	0.00466898	0.000347222	0	-3.98147e-05	0.0626221	0.040113	0.0743679	32.6419	137467	214606	254858	-57.3581	0.0000000E+000	0.0000000E+000	0.0000000E+000	57.3581	0.0000000E+000	0.0000000E+000	0.0000000E+000	-57.3581	0.0000000E+000	0.0000000E+000	0.0000000E+000	-32.6419	0.0000000E+000	0.0000000E+000	0.0000000E+000	32.6419	1.56114	57.3581	-2.36538e-06	-5.4745e-06	15824.5
[...]
1.00006	29.1987	4.24552	29.5058	-8.27288	20.8313	0.294381	-0.00871475	37485.3	776.086	1	12	0.00467317	0.000158382	0	-7.00347e-05	0.033539	0.0048766	0.0338917	8.27288	776086	5.33756e+06	5.39368e+06	-81.7271	0.0000000E+000	0.0000000E+000	0.0000000E+000	81.7271	0.0000000E+000	0.0000000E+000	0.0000000E+000	-81.7271	0.0000000E+000	0.0000000E+000	0.0000000E+000	-8.27288	0.0000000E+000	0.0000000E+000	0.0000000E+000	8.27288	6.87754	81.7271	-1.30212e-05	-2.56545e-06	33779.6
0.464091	30.7773	3.71024	31.0001	-6.87391	28.5159	0.294384	-0.00857724	92430.4	1324.01	1	12	0.00467324	0.000150749	0	-9.85257e-05	0.032026	0.00386078	0.0322579	6.87391	1.32401e+06	1.0983e+07	1.10625e+07	-83.1261	0.0000000E+000	0.0000000E+000	0.0000000E+000	83.1261	0.0000000E+000	0.0000000E+000	0.0000000E+000	-83.1261	0.0000000E+000	0.0000000E+000	0.0000000E+000	-6.87391	0.0000000E+000	0.0000000E+000	0.0000000E+000	6.87391	8.29523	83.1261	-1.44149e-05	-2.525e-06	34321.5
0.215268	32.0244	4.00893	32.2743	-7.13538	44.9958	0.294379	-0.00759975	184422	2845.47	1	12	0.0046741	0.000144824	0	-0.000112238	0.0307444	0.0038487	0.0309844	7.13538	2.84547e+06	2.27304e+07	2.29078e+07	-82.8646	0.0000000E+000	0.0000000E+000	0.0000000E+000	82.8646	0.0000000E+000	0.0000000E+000	0.0000000E+000	-82.8646	0.0000000E+000	0.0000000E+000	0.0000000E+000	-7.13538	0.0000000E+000	0.0000000E+000	0.0000000E+000	7.13538	7.98826	82.8646	-3.50076e-06	-2.23721e-06	38735.4
0.0999041	33.7124	5.06198	34.0903	-8.53927	80.4011	0.294368	-0.00512033	314714	6938.97	1	12	0.00467227	0.000137056	0	-0.000119068	0.0290087	0.0043557	0.0293339	8.53927	6.93898e+06	4.6213e+07	4.67311e+07	-81.4607	0.0000000E+000	0.0000000E+000	0.0000000E+000	81.4607	0.0000000E+000	0.0000000E+000	0.0000000E+000	-81.4607	0.0000000E+000	0.0000000E+000	0.0000000E+000	-8.53927	0.0000000E+000	0.0000000E+000	0.0000000E+000	8.53927	6.65993	81.4607	-7.10095e-06	-1.50726e-06	57490
0.0464052	36.2144	7.03462	36.8913	-10.9928	156.638	0.294369	-0.00225629	487543	17727.4	1	12	0.00467361	0.000126686	0	-0.000227497	0.0266093	0.00516883	0.0271067	10.9928	1.77274e+07	9.12613e+07	9.29672e+07	-79.0072	0.0000000E+000	0.0000000E+000	0.0000000E+000	79.0072	0.0000000E+000	0.0000000E+000	0.0000000E+000	-79.0072	0.0000000E+000	0.0000000E+000	0.0000000E+000	-10.9928	0.0000000E+000	0.0000000E+000	0.0000000E+000	10.9928	5.14803	79.0072	-7.85971e-05	-6.64183e-07	130466
0.0215268	39.5027	9.36233	40.597	-13.3334	320.867	0.29437	-0.0015393	789690	41998.9	1	12	0.00467024	0.000115039	0	-0.000550117	0.0239684	0.00568063	0.0246324	13.3334	4.19989e+07	1.77207e+08	1.82116e+08	-76.6666	0.0000000E+000	0.0000000E+000	0.0000000E+000	76.6666	0.0000000E+000	0.0000000E+000	0.0000000E+000	-76.6666	0.0000000E+000	0.0000000E+000	0.0000000E+000	-13.3334	0.0000000E+000	0.0000000E+000	0.0000000E+000	13.3334	4.21932	76.6666	-0.000183205	-4.53125e-07	191236
0.0100092	43.1249	13.9414	45.3224	-17.915	674.082	0.294367	-0.00151854	1.14055e+06	107920	1	12	0.00467387	0.000103125	0	-0.000766785	0.0209943	0.00678706	0.0220641	17.915	1.0792e+08	3.33829e+08	3.5084e+08	-72.085	0.0000000E+000	0.0000000E+000	0.0000000E+000	72.085	0.0000000E+000	0.0000000E+000	0.0000000E+000	-72.085	0.0000000E+000	0.0000000E+000	0.0000000E+000	-17.915	0.0000000E+000	0.0000000E+000	0.0000000E+000	17.915	3.09329	72.085	-4.79502e-05	-4.47008e-07	193849