Folder: EIS/txt (part 2)

File: 14954_R243_UA603_SOC00_C01.mpt
EC-Lab ASCII FILE
Nb header lines : 63

Potentio Electrochemical Impedance Spectroscopy

Run on channel : 1 (SN 66354)
User :
CE vs. WE compliance from -10 V to 10 V
Electrode connection : standard
Potential control : Ewe
Ewe ctrl range : min = -10.00 V, max = 10.00 V
Safety Limits :
	Do not start on E overload
Acquisition started on : 09/22/2025 10:43:15.806
Loaded Setting File :  C:\Users\Celltest\OneDrive - store-dot.com\Documents\EC-Lab\Data\txt_done\14380_R229_UA592_SOC00_C01.mpr
Saved on :
	File : 14954_R243_UA603_SOC00_C01.mpr
	Directory : C:\Users\Celltest\OneDrive - store-dot.com\Documents\EC-Lab\Data\Anna\
	Host : 169.254.61.224
Device : VMP-3e (SN .003165)
Address : USB
EC-LAB for windows v11.62 (software)
Internet server v27.00 (firmware)
Command interpretor v12.03 (firmware)
Electrode material :
Initial state :
Electrolyte :
Comments :
Electrode surface area : 0.001 cm²
Characteristic mass : 0.001 g
Equivalent Weight : 0.000 g/eq.
Density : 0.000 g/cm3
Volume (V) : 0.001 cm³
Cycle Definition : Charge/Discharge alternance
Mode                Single sine
E (V)               0.0000
vs.                 Eoc
tE (h:m:s)          0:00:0.0000
record              0
dI                  0.000
unit dI             mA
dt (s)              0.000
fi                  100.000
unit fi             kHz
ff                  10.000
unit ff             mHz
Nd                  6
Points              per decade
spacing             Logarithmic
Va (mV)             5.0
pw                  0.10
Na                  2
corr                0
E range min (V)     -10.000
E range max (V)     10.000
I Range             Auto
Bandwidth           5
nc cycles           0
goto Ns'            0
nr cycles           0
inc. cycle          0

freq/Hz	Re(Z)/Ohm	-Im(Z)/Ohm	|Z|/Ohm	Phase(Z)/deg	time/s	<Ewe>/V	<I>/mA	Cs/µF	Cp/µF	cycle number	I Range	|Ewe|/V	|I|/A	Ns	(Q-Qo)/mA.h	Re(Y)/Ohm-1	Im(Y)/Ohm-1	|Y|/Ohm-1	Phase(Y)/deg	Re(C)/nF	Im(C)/nF	|C|/nF	Phase(C)/deg	Re(M)	Im(M)	|M|	Phase(M)/deg	Re(Permittivity)	Im(Permittivity)	|Permittivity|	Phase(Permittivity)/deg	Re(Resistivity)/Ohm.cm	Im(Resistivity)/Ohm.cm	|Resistivity|/Ohm.cm	Phase(Resistivity)/deg	Re(Conductivity)/mS/cm	Im(Conductivity)/mS/cm	|Conductivity|/mS/cm	Phase(Conductivity)/deg	Tan(Delta)	Loss Angle(Delta)/deg	dq/mA.h	Pwe/W	Rwe/Ohm
100004	3.82255	0.525279	3.85847	-7.82434	2.02448	0.362677	-0.0187618	3.0298	0.0561517	1	10	0.00492545	0.00127653	0	-2.52424e-06	0.256757	0.0352825	0.25917	7.82434	56.1517	408.626	412.466	-82.1757	0.0000000E+000	0.0000000E+000	0.0000000E+000	82.1757	0.0000000E+000	0.0000000E+000	0.0000000E+000	-82.1757	0.0000000E+000	0.0000000E+000	0.0000000E+000	-7.82434	0.0000000E+000	0.0000000E+000	0.0000000E+000	7.82434	7.27719	82.1757	-2.52424e-06	-6.8045e-06	19330.6
46420.4	4.02471	0.562404	4.06381	-7.95488	2.89849	0.362681	-0.0175431	6.09626	0.11676	1	10	0.00534154	0.00131442	0	-3.72849e-06	0.243707	0.034055	0.246075	7.95488	116.76	835.563	843.681	-82.0451	0.0000000E+000	0.0000000E+000	0.0000000E+000	82.0451	0.0000000E+000	0.0000000E+000	0.0000000E+000	-82.0451	0.0000000E+000	0.0000000E+000	0.0000000E+000	-7.95488	0.0000000E+000	0.0000000E+000	0.0000000E+000	7.95488	7.15626	82.0451	-3.22186e-07	-6.36255e-06	20673.6
21544.7	4.26495	0.667569	4.31688	-8.89602	3.77248	0.362675	-0.0170009	11.0658	0.264629	1	10	0.00524967	0.00121608	0	-8.76548e-06	0.228862	0.0358226	0.231649	8.89602	264.629	1690.65	1711.24	-81.104	0.0000000E+000	0.0000000E+000	0.0000000E+000	81.104	0.0000000E+000	0.0000000E+000	0.0000000E+000	-81.104	0.0000000E+000	0.0000000E+000	0.0000000E+000	-8.89602	0.0000000E+000	0.0000000E+000	0.0000000E+000	8.89602	6.38877	81.104	-2.9676e-06	-6.16578e-06	21332.7
10002.2	4.56713	0.83579	4.64297	-10.3704	4.64748	0.362681	-0.0167605	19.0382	0.61692	1	10	0.00509825	0.00109806	0	-1.36387e-05	0.211861	0.0387708	0.215379	10.3704	616.92	3371.12	3427.11	-79.6295	0.0000000E+000	0.0000000E+000	0.0000000E+000	79.6295	0.0000000E+000	0.0000000E+000	0.0000000E+000	-79.6295	0.0000000E+000	0.0000000E+000	0.0000000E+000	-10.3704	0.0000000E+000	0.0000000E+000	0.0000000E+000	10.3704	5.46444	79.6295	-1.56277e-06	-6.07871e-06	21639.1
4641.49	4.96264	1.10533	5.08425	-12.5565	5.67271	0.362737	-0.000192374	31.0221	1.46623	1	10	0.00524665	0.00103194	0	-1.13286e-05	0.191982	0.0427601	0.196686	12.5565	1466.23	6582.99	6744.3	-77.4435	0.0000000E+000	0.0000000E+000	0.0000000E+000	77.4435	0.0000000E+000	0.0000000E+000	0.0000000E+000	-77.4435	0.0000000E+000	0.0000000E+000	0.0000000E+000	-12.5565	0.0000000E+000	0.0000000E+000	0.0000000E+000	12.5565	4.48974	77.4435	7.75701e-07	-6.97811e-08	1.88559e+06
2155.69	5.47787	1.48355	5.67521	-15.1537	6.6067	0.362749	0.000159823	49.7658	3.40074	1	10	0.00527863	0.00093012	0	-1.14984e-05	0.170078	0.0460616	0.176205	15.1537	3400.74	12556.9	13009.2	-74.8463	0.0000000E+000	0.0000000E+000	0.0000000E+000	74.8463	0.0000000E+000	0.0000000E+000	0.0000000E+000	-74.8463	0.0000000E+000	0.0000000E+000	0.0000000E+000	-15.1537	0.0000000E+000	0.0000000E+000	0.0000000E+000	15.1537	3.6924	74.8463	-1.49469e-07	5.79755e-08	2.26969e+06
1000.32	6.17416	2.0175	6.49543	-18.0956	7.54367	0.362744	0.000519466	78.862	7.60815	1	10	0.00524265	0.000807129	0	-1.13367e-05	0.14634	0.0478187	0.153954	18.0956	7608.15	23283.3	24494.8	-71.9044	0.0000000E+000	0.0000000E+000	0.0000000E+000	71.9044	0.0000000E+000	0.0000000E+000	0.0000000E+000	-71.9044	0.0000000E+000	0.0000000E+000	0.0000000E+000	-18.0956	0.0000000E+000	0.0000000E+000	0.0000000E+000	18.0956	3.06031	71.9044	-5.36433e-07	1.88433e-07	698301
463.961	7.06614	2.86085	7.62331	-22.0414	8.4782	0.362742	9.27264e-05	119.907	16.8868	1	10	0.00521588	0.000684201	0	-1.145e-05	0.121589	0.0492276	0.131177	22.0414	16886.8	41709.4	44998.2	-67.9586	0.0000000E+000	0.0000000E+000	0.0000000E+000	67.9586	0.0000000E+000	0.0000000E+000	0.0000000E+000	-67.9586	0.0000000E+000	0.0000000E+000	0.0000000E+000	-22.0414	0.0000000E+000	0.0000000E+000	0.0000000E+000	22.0414	2.46994	67.9586	-1.05793e-07	3.36358e-08	3.91196e+06
215.345	8.32427	4.25768	9.34993	-27.0887	9.41243	0.362731	-0.000483088	173.586	35.995	1	10	0.00519191	0.000555288	0	-1.21645e-05	0.0952202	0.048703	0.106953	27.0887	35995	70374.5	79045.6	-62.9113	0.0000000E+000	0.0000000E+000	0.0000000E+000	62.9113	0.0000000E+000	0.0000000E+000	0.0000000E+000	-62.9113	0.0000000E+000	0.0000000E+000	0.0000000E+000	-27.0887	0.0000000E+000	0.0000000E+000	0.0000000E+000	27.0887	1.95512	62.9113	-2.63663e-07	-1.75231e-07	750860
100.032	10.5742	6.49673	12.4105	-31.5665	10.3437	0.362739	0.000463551	244.899	67.1117	1	10	0.00519456	0.000418563	0	-1.14852e-05	0.0686543	0.042181	0.080577	31.5665	67111.7	109232	128201	-58.4335	0.0000000E+000	0.0000000E+000	0.0000000E+000	58.4335	0.0000000E+000	0.0000000E+000	0.0000000E+000	-58.4335	0.0000000E+000	0.0000000E+000	0.0000000E+000	-31.5665	0.0000000E+000	0.0000000E+000	0.0000000E+000	31.5665	1.62761	58.4335	4.68502e-07	1.68148e-07	782522
[...]
0.464091	34.1835	2.41895	34.269	-4.0477	28.2868	0.362771	-0.00307283	141772	706.383	1	12	0.00518713	0.000151365	0	-3.87542e-05	0.0291081	0.00205979	0.0291809	4.0477	706383	9.98231e+06	1.00073e+07	-85.9523	0.0000000E+000	0.0000000E+000	0.0000000E+000	85.9523	0.0000000E+000	0.0000000E+000	0.0000000E+000	-85.9523	0.0000000E+000	0.0000000E+000	0.0000000E+000	-4.0477	0.0000000E+000	0.0000000E+000	0.0000000E+000	4.0477	14.1316	85.9523	-8.4504e-06	-1.11474e-06	118058
0.215268	34.9597	2.79121	35.071	-4.56485	44.7667	0.362776	-0.00302514	264880	1677.79	1	12	0.00518596	0.00014787	0	-3.29808e-05	0.0284231	0.00226932	0.0285136	4.56485	1.67779e+06	2.10142e+07	2.10811e+07	-85.4351	0.0000000E+000	0.0000000E+000	0.0000000E+000	85.4351	0.0000000E+000	0.0000000E+000	0.0000000E+000	-85.4351	0.0000000E+000	0.0000000E+000	0.0000000E+000	-4.56485	0.0000000E+000	0.0000000E+000	0.0000000E+000	4.56485	12.5249	85.4351	8.02564e-06	-1.09745e-06	119920
0.0999041	36.1829	3.97741	36.4009	-6.27306	80.1721	0.362777	-0.00141194	400531	4782.05	1	12	0.00518727	0.000142504	0	4.67223e-06	0.0273074	0.00300177	0.0274719	6.27306	4.78205e+06	4.35028e+07	4.37648e+07	-83.7269	0.0000000E+000	0.0000000E+000	0.0000000E+000	83.7269	0.0000000E+000	0.0000000E+000	0.0000000E+000	-83.7269	0.0000000E+000	0.0000000E+000	0.0000000E+000	-6.27306	0.0000000E+000	0.0000000E+000	0.0000000E+000	6.27306	9.0971	83.7269	1.97699e-05	-5.12219e-07	256935
0.0464052	38.1726	6.49498	38.7212	-9.65625	156.408	0.36277	0.000114044	528051	14857	1	12	0.00518593	0.00013393	0	-2.7317e-05	0.0254597	0.0043319	0.0258256	9.65625	1.4857e+07	8.73186e+07	8.85736e+07	-80.3438	0.0000000E+000	0.0000000E+000	0.0000000E+000	80.3438	0.0000000E+000	0.0000000E+000	0.0000000E+000	-80.3438	0.0000000E+000	0.0000000E+000	0.0000000E+000	-9.65625	0.0000000E+000	0.0000000E+000	0.0000000E+000	9.65625	5.87726	80.3438	-3.8257e-05	4.13716e-08	3.18097e+06
0.0215268	41.1821	10.1646	42.418	-13.8647	320.638	0.362769	-0.000245963	727360	41766.9	1	12	0.00518664	0.000122275	0	-0.00029421	0.022888	0.00564925	0.0235749	13.8647	4.17669e+07	1.69219e+08	1.74297e+08	-76.1353	0.0000000E+000	0.0000000E+000	0.0000000E+000	76.1353	0.0000000E+000	0.0000000E+000	0.0000000E+000	-76.1353	0.0000000E+000	0.0000000E+000	0.0000000E+000	-13.8647	0.0000000E+000	0.0000000E+000	0.0000000E+000	13.8647	4.05151	76.1353	-0.000161776	-8.92276e-08	1.47489e+06
0.0146812	43.3065	12.9544	45.2025	-16.6536	463.834	0.362767	-0.000699636	836840	68730.7	1	12	0.00518764	0.000114764	0	-0.000447203	0.0211947	0.00634003	0.0221227	16.6536	6.87307e+07	2.29767e+08	2.39826e+08	-73.3464	0.0000000E+000	0.0000000E+000	0.0000000E+000	73.3464	0.0000000E+000	0.0000000E+000	0.0000000E+000	-73.3464	0.0000000E+000	0.0000000E+000	0.0000000E+000	-16.6536	0.0000000E+000	0.0000000E+000	0.0000000E+000	16.6536	3.343	73.3464	-0.000152992	-2.53805e-07	518508

0.0100092	45.4822	16.7696	48.4752	-20.2393	673.854	0.362761	-0.000807301	948199	113476	1	12	0.00518884	0.000107041	0	-0.000468825	0.0193554	0.00713647	0.0206291	20.2393	1.13476e+08	3.07768e+08	3.28022e+08	-69.7607	0.0000000E+000	0.0000000E+000	0.0000000E+000	69.7607	0.0000000E+000	0.0000000E+000	0.0000000E+000	-69.7607	0.0000000E+000	0.0000000E+000	0.0000000E+000	-20.2393	0.0000000E+000	0.0000000E+000	0.0000000E+000	20.2393	2.71218	69.7607	-2.16225e-05	-2.92858e-07	449350

File: 14955_R243_UA603_SOC00_C02.mpt
EC-Lab ASCII FILE
Nb header lines : 63

Potentio Electrochemical Impedance Spectroscopy

Run on channel : 2 (SN 66139)
User :
CE vs. WE compliance from -10 V to 10 V
Electrode connection : standard
Potential control : Ewe
Ewe ctrl range : min = -10.00 V, max = 10.00 V
Safety Limits :
	Do not start on E overload
Acquisition started on : 09/22/2025 10:43:31.075
Loaded Setting File :  C:\Users\Celltest\OneDrive - store-dot.com\Documents\EC-Lab\Data\Gyutae\17737_R277_UA674_SOC00_C01.mpr
Saved on :
	File : 14955_R243_UA603_SOC00_C02.mpr
	Directory : C:\Users\Celltest\OneDrive - store-dot.com\Documents\EC-Lab\Data\Anna\
	Host : 169.254.61.224
Device : VMP-3e (SN .003165)
Address : USB
EC-LAB for windows v11.62 (software)
Internet server v27.00 (firmware)
Command interpretor v12.03 (firmware)
Electrode material :
Initial state :
Electrolyte :
Comments :
Electrode surface area : 0.001 cm²
Characteristic mass : 0.001 g
Equivalent Weight : 0.000 g/eq.
Density : 0.000 g/cm3
Volume (V) : 0.001 cm³
Cycle Definition : Charge/Discharge alternance
Mode                Single sine
E (V)               0.0000
vs.                 Eoc
tE (h:m:s)          0:00:0.0000
record              0
dI                  0.000
unit dI             mA
dt (s)              0.000
fi                  100.000
unit fi             kHz
ff                  10.000
unit ff             mHz
Nd                  6
Points              per decade
spacing             Logarithmic
Va (mV)             5.0
pw                  0.10
Na                  2
corr                0
E range min (V)     -10.000
E range max (V)     10.000
I Range             Auto
Bandwidth           5
nc cycles           0
goto Ns'            0
nr cycles           0
inc. cycle          0

freq/Hz	Re(Z)/Ohm	-Im(Z)/Ohm	|Z|/Ohm	Phase(Z)/deg	time/s	<Ewe>/V	<I>/mA	Cs/µF	Cp/µF	cycle number	I Range	|Ewe|/V	|I|/A	Ns	(Q-Qo)/mA.h	Re(Y)/Ohm-1	Im(Y)/Ohm-1	|Y|/Ohm-1	Phase(Y)/deg	Re(C)/nF	Im(C)/nF	|C|/nF	Phase(C)/deg	Re(M)	Im(M)	|M|	Phase(M)/deg	Re(Permittivity)	Im(Permittivity)	|Permittivity|	Phase(Permittivity)/deg	Re(Resistivity)/Ohm.cm	Im(Resistivity)/Ohm.cm	|Resistivity|/Ohm.cm	Phase(Resistivity)/deg	Re(Conductivity)/mS/cm	Im(Conductivity)/mS/cm	|Conductivity|/mS/cm	Phase(Conductivity)/deg	Tan(Delta)	Loss Angle(Delta)/deg	dq/mA.h	Pwe/W	Rwe/Ohm
100004	5.28596	1.0074	5.3811	-10.7901	1.82349	0.385549	-0.00617244	1.5798	0.0553688	1	10	0.0048515	0.000901582	0	-3.76695e-06	0.18255	0.0347905	0.185836	10.7901	55.3688	290.527	295.756	-79.2099	0.0000000E+000	0.0000000E+000	0.0000000E+000	79.2099	0.0000000E+000	0.0000000E+000	0.0000000E+000	-79.2099	0.0000000E+000	0.0000000E+000	0.0000000E+000	-10.7901	0.0000000E+000	0.0000000E+000	0.0000000E+000	10.7901	5.24712	79.2099	-3.76695e-06	-2.37978e-06	62463
46420.4	5.7532	1.19051	5.87509	-11.6912	2.69749	0.385537	-0.00599363	2.8799	0.118255	1	10	0.00540588	0.000920137	0	-4.94107e-06	0.166679	0.034491	0.17021	11.6912	118.255	571.469	583.576	-78.3088	0.0000000E+000	0.0000000E+000	0.0000000E+000	78.3088	0.0000000E+000	0.0000000E+000	0.0000000E+000	-78.3088	0.0000000E+000	0.0000000E+000	0.0000000E+000	-11.6912	0.0000000E+000	0.0000000E+000	0.0000000E+000	11.6912	4.83253	78.3088	2.95243e-07	-2.31076e-06	64324.4
21544.7	6.31097	1.44104	6.4734	-12.8623	3.57148	0.385532	-0.00577384	5.12631	0.254033	1	10	0.00538862	0.000832425	0	-5.92526e-06	0.150602	0.0343882	0.154478	12.8623	254.033	1112.53	1141.16	-77.1377	0.0000000E+000	0.0000000E+000	0.0000000E+000	77.1377	0.0000000E+000	0.0000000E+000	0.0000000E+000	-77.1377	0.0000000E+000	0.0000000E+000	0.0000000E+000	-12.8623	0.0000000E+000	0.0000000E+000	0.0000000E+000	12.8623	4.37947	77.1377	-4.80937e-08	-2.226e-06	66772.2
10002.2	7.02337	1.78096	7.24566	-14.229	4.44548	0.385533	-0.00563974	8.93447	0.539788	1	10	0.00534666	0.000737913	0	-8.8106e-06	0.13378	0.0339234	0.138014	14.229	539.788	2128.7	2196.07	-75.771	0.0000000E+000	0.0000000E+000	0.0000000E+000	75.771	0.0000000E+000	0.0000000E+000	0.0000000E+000	-75.771	0.0000000E+000	0.0000000E+000	0.0000000E+000	-14.229	0.0000000E+000	0.0000000E+000	0.0000000E+000	14.229	3.94358	75.771	-1.14742e-06	-2.1743e-06	68360.1
4641.49	7.91262	2.22787	8.22028	-15.7251	5.69469	0.385544	-0.00399692	15.3912	1.13053	1	10	0.00521637	0.000634573	0	-8.90516e-06	0.117097	0.0329699	0.12165	15.7251	1130.53	4015.23	4171.35	-74.2749	0.0000000E+000	0.0000000E+000	0.0000000E+000	74.2749	0.0000000E+000	0.0000000E+000	0.0000000E+000	-74.2749	0.0000000E+000	0.0000000E+000	0.0000000E+000	-15.7251	0.0000000E+000	0.0000000E+000	0.0000000E+000	15.7251	3.55165	74.2749	-1.2336e-06	-1.54099e-06	96460.3
2155.69	9.02412	2.82852	9.45702	-17.4031	6.8517	0.38554	-0.00458551	26.102	2.33499	1	10	0.00532605	0.000563185	0	-1.01391e-05	0.100901	0.0316265	0.105742	17.4031	2334.99	7449.55	7806.92	-72.5969	0.0000000E+000	0.0000000E+000	0.0000000E+000	72.5969	0.0000000E+000	0.0000000E+000	0.0000000E+000	-72.5969	0.0000000E+000	0.0000000E+000	0.0000000E+000	-17.4031	0.0000000E+000	0.0000000E+000	0.0000000E+000	17.4031	3.1904	72.5969	-1.04329e-06	-1.76789e-06	84077.9
1000.32	10.4484	3.58966	11.0478	-18.9608	7.78768	0.385534	-0.00410682	44.3229	4.67932	1	10	0.00532979	0.00048243	0	-1.11605e-05	0.0856045	0.0294104	0.0905157	18.9608	4679.32	13620	14401.4	-71.0392	0.0000000E+000	0.0000000E+000	0.0000000E+000	71.0392	0.0000000E+000	0.0000000E+000	0.0000000E+000	-71.0392	0.0000000E+000	0.0000000E+000	0.0000000E+000	-18.9608	0.0000000E+000	0.0000000E+000	0.0000000E+000	18.9608	2.91068	71.0392	-4.96512e-07	-1.58332e-06	93876.5
463.961	12.2076	4.60358	13.0468	-20.6618	8.72219	0.385537	-0.00358902	74.5149	9.2774	1	10	0.00524066	0.000401682	0	-1.202e-05	0.0717171	0.027045	0.0766471	20.6618	9277.41	24601.5	26292.7	-69.3382	0.0000000E+000	0.0000000E+000	0.0000000E+000	69.3382	0.0000000E+000	0.0000000E+000	0.0000000E+000	-69.3382	0.0000000E+000	0.0000000E+000	0.0000000E+000	-20.6618	0.0000000E+000	0.0000000E+000	0.0000000E+000	20.6618	2.65177	69.3382	-6.69178e-07	-1.3837e-06	107421
215.345	14.4834	6.07648	15.7064	-22.7604	9.65643	0.385533	-0.00418505	121.628	18.2047	1	10	0.00518905	0.000330378	0	-1.30446e-05	0.0587105	0.0246319	0.0636683	22.7604	18204.7	43391.2	47055.4	-67.2396	0.0000000E+000	0.0000000E+000	0.0000000E+000	67.2396	0.0000000E+000	0.0000000E+000	0.0000000E+000	-67.2396	0.0000000E+000	0.0000000E+000	0.0000000E+000	-22.7604	0.0000000E+000	0.0000000E+000	0.0000000E+000	22.7604	2.38351	67.2396	-3.84039e-07	-1.61348e-06	92121.4
100.032	17.9648	8.16073	19.7315	-24.4305	10.5877	0.385536	-0.00422976	194.963	33.3497	1	10	0.00516611	0.000261821	0	-1.41651e-05	0.0461427	0.0209609	0.0506805	24.4305	33349.7	73415	80634.7	-65.5695	0.0000000E+000	0.0000000E+000	0.0000000E+000	65.5695	0.0000000E+000	0.0000000E+000	0.0000000E+000	-65.5695	0.0000000E+000	0.0000000E+000	0.0000000E+000	-24.4305	0.0000000E+000	0.0000000E+000	0.0000000E+000	24.4305	2.20137	65.5695	-5.51635e-07	-1.63072e-06	91148.6
[...]
0.464091	38.4636	2.21822	38.5275	-3.30063	28.2299	0.385563	-0.00267276	154601	512.484	1	12	0.00515564	0.000133817	0	-3.7406e-05	0.0259124	0.00149439	0.0259555	3.30063	512484	8.88639e+06	8.90116e+06	-86.6994	0.0000000E+000	0.0000000E+000	0.0000000E+000	86.6994	0.0000000E+000	0.0000000E+000	0.0000000E+000	-86.6994	0.0000000E+000	0.0000000E+000	0.0000000E+000	-3.30063	0.0000000E+000	0.0000000E+000	0.0000000E+000	3.30063	17.3398	86.6994	-1.13316e-05	-1.03052e-06	144256
0.215268	39.3636	2.86322	39.4676	-4.16024	44.71	0.385562	-0.0028063	258218	1358.99	1	12	0.00515738	0.000130674	0	-7.16091e-05	0.0252705	0.00183812	0.0253372	4.16024	1.35899e+06	1.86833e+07	1.87327e+07	-85.8398	0.0000000E+000	0.0000000E+000	0.0000000E+000	85.8398	0.0000000E+000	0.0000000E+000	0.0000000E+000	-85.8398	0.0000000E+000	0.0000000E+000	0.0000000E+000	-4.16024	0.0000000E+000	0.0000000E+000	0.0000000E+000	4.16024	13.748	85.8398	-1.73358e-05	-1.082e-06	137392
0.0999041	40.6432	4.48733	40.8901	-6.30039	80.1166	0.385566	-0.00276127	355017	4275.5	1	12	0.00515489	0.000126067	0	-7.18904e-05	0.0243081	0.0026838	0.0244558	6.30039	4.2755e+06	3.87246e+07	3.89599e+07	-83.6996	0.0000000E+000	0.0000000E+000	0.0000000E+000	83.6996	0.0000000E+000	0.0000000E+000	0.0000000E+000	-83.6996	0.0000000E+000	0.0000000E+000	0.0000000E+000	-6.30039	0.0000000E+000	0.0000000E+000	0.0000000E+000	6.30039	9.05733	83.6996	8.84533e-06	-1.06465e-06	139634
0.0464052	42.8309	6.87838	43.3797	-9.12345	156.352	0.385559	-0.00122896	498617	12536.2	1	12	0.00515447	0.000118822	0	1.81967e-06	0.0227606	0.00365522	0.0230523	9.12345	1.25362e+07	7.80617e+07	7.90619e+07	-80.8765	0.0000000E+000	0.0000000E+000	0.0000000E+000	80.8765	0.0000000E+000	0.0000000E+000	0.0000000E+000	-80.8765	0.0000000E+000	0.0000000E+000	0.0000000E+000	-9.12345	0.0000000E+000	0.0000000E+000	0.0000000E+000	9.12345	6.22689	80.8765	4.63382e-05	-4.73837e-07	313727
0.0215268	46.0608	11.1955	47.4019	-13.6614	320.583	0.385556	0.000202656	660383	36837.9	1	12	0.00515496	0.00010875	0	-5.6905e-06	0.0204994	0.00498257	0.0210962	13.6614	3.68379e+07	1.51559e+08	1.55972e+08	-76.3386	0.0000000E+000	0.0000000E+000	0.0000000E+000	76.3386	0.0000000E+000	0.0000000E+000	0.0000000E+000	-76.3386	0.0000000E+000	0.0000000E+000	0.0000000E+000	-13.6614	0.0000000E+000	0.0000000E+000	0.0000000E+000	13.6614	4.11421	76.3386	-3.84454e-05	7.81352e-08	1.90252e+06
0.0146812	47.8699	14.0983	49.9028	-16.4104	463.779	0.385566	0.000229905	768938	61372.9	1	12	0.00515545	0.00010331	0	-0.000161748	0.0192226	0.00566132	0.0200389	16.4104	6.13729e+07	2.08388e+08	2.17237e+08	-73.5896	0.0000000E+000	0.0000000E+000	0.0000000E+000	73.5896	0.0000000E+000	0.0000000E+000	0.0000000E+000	-73.5896	0.0000000E+000	0.0000000E+000	0.0000000E+000	-16.4104	0.0000000E+000	0.0000000E+000	0.0000000E+000	16.4104	3.39543	73.5896	-0.000156058	8.86434e-08	1.67707e+06

0.0100092	50.211	17.6937	53.2373	-19.4117	673.8	0.385563	-0.00011861	898678	99267.5	1	12	0.00515546	9.68391e-05	0	-0.000443397	0.017716	0.00624288	0.0187838	19.4117	9.92675e+07	2.81701e+08	2.9868e+08	-70.5883	0.0000000E+000	0.0000000E+000	0.0000000E+000	70.5883	0.0000000E+000	0.0000000E+000	0.0000000E+000	-70.5883	0.0000000E+000	0.0000000E+000	0.0000000E+000	-19.4117	0.0000000E+000	0.0000000E+000	0.0000000E+000	19.4117	2.8378	70.5883	-0.000281649	-4.57317e-08	3.25067e+06