Folder: EIS/txt (part 3)

File: 14956_R243_UA603_SOC00_C03.mpt
EC-Lab ASCII FILE
Nb header lines : 63

Potentio Electrochemical Impedance Spectroscopy

Run on channel : 3 (SN 65921)
User :
CE vs. WE compliance from -10 V to 10 V
Electrode connection : standard
Potential control : Ewe
Ewe ctrl range : min = -10.00 V, max = 10.00 V
Safety Limits :
	Do not start on E overload
Acquisition started on : 09/22/2025 10:43:40.735
Loaded Setting File :  C:\Users\Celltest\OneDrive - store-dot.com\Documents\EC-Lab\Data\Gyutae\17738_R277_UA674_SOC00_C02.mpr
Saved on :
	File : 14956_R243_UA603_SOC00_C03.mpr
	Directory : C:\Users\Celltest\OneDrive - store-dot.com\Documents\EC-Lab\Data\Anna\
	Host : 169.254.61.224
Device : VMP-3e (SN .003165)
Address : USB
EC-LAB for windows v11.62 (software)
Internet server v27.00 (firmware)
Command interpretor v12.03 (firmware)
Electrode material :
Initial state :
Electrolyte :
Comments :
Electrode surface area : 0.001 cm²
Characteristic mass : 0.001 g
Equivalent Weight : 0.000 g/eq.
Density : 0.000 g/cm3
Volume (V) : 0.001 cm³
Cycle Definition : Charge/Discharge alternance
Mode                Single sine
E (V)               0.0000
vs.                 Eoc
tE (h:m:s)          0:00:0.0000
record              0
dI                  0.000
unit dI             mA
dt (s)              0.000
fi                  100.000
unit fi             kHz
ff                  10.000
unit ff             mHz
Nd                  6
Points              per decade
spacing             Logarithmic
Va (mV)             5.0
pw                  0.10
Na                  2
corr                0
E range min (V)     -10.000
E range max (V)     10.000
I Range             Auto
Bandwidth           5
nc cycles           0
goto Ns'            0
nr cycles           0
inc. cycle          0

freq/Hz	Re(Z)/Ohm	-Im(Z)/Ohm	|Z|/Ohm	Phase(Z)/deg	time/s	<Ewe>/V	<I>/mA	Cs/µF	Cp/µF	cycle number	I Range	|Ewe|/V	|I|/A	Ns	(Q-Qo)/mA.h	Re(Y)/Ohm-1	Im(Y)/Ohm-1	|Y|/Ohm-1	Phase(Y)/deg	Re(C)/nF	Im(C)/nF	|C|/nF	Phase(C)/deg	Re(M)	Im(M)	|M|	Phase(M)/deg	Re(Permittivity)	Im(Permittivity)	|Permittivity|	Phase(Permittivity)/deg	Re(Resistivity)/Ohm.cm	Im(Resistivity)/Ohm.cm	|Resistivity|/Ohm.cm	Phase(Resistivity)/deg	Re(Conductivity)/mS/cm	Im(Conductivity)/mS/cm	|Conductivity|/mS/cm	Phase(Conductivity)/deg	Tan(Delta)	Loss Angle(Delta)/deg	dq/mA.h	Pwe/W	Rwe/Ohm
100004	5.28971	1.23032	5.4309	-13.0935	2.02549	0.291812	-0.00407256	1.29356	0.0663862	1	10	0.00477534	0.00087929	0	-1.65152e-06	0.179344	0.0417132	0.184131	13.0935	66.3862	285.425	293.043	-76.9065	0.0000000E+000	0.0000000E+000	0.0000000E+000	76.9065	0.0000000E+000	0.0000000E+000	0.0000000E+000	-76.9065	0.0000000E+000	0.0000000E+000	0.0000000E+000	-13.0935	0.0000000E+000	0.0000000E+000	0.0000000E+000	13.0935	4.29946	76.9065	-1.65152e-06	-1.18842e-06	71653.1
46420.4	5.87099	1.46747	6.05161	-14.0337	3.04049	0.291796	-0.00345729	2.33638	0.137385	1	10	0.00508094	0.000839602	0	-2.83709e-06	0.160313	0.0400708	0.165245	14.0337	137.385	549.644	566.554	-75.9663	0.0000000E+000	0.0000000E+000	0.0000000E+000	75.9663	0.0000000E+000	0.0000000E+000	0.0000000E+000	-75.9663	0.0000000E+000	0.0000000E+000	0.0000000E+000	-14.0337	0.0000000E+000	0.0000000E+000	0.0000000E+000	14.0337	4.00076	75.9663	6.58581e-07	-1.00882e-06	84400
21544.7	6.58322	1.78028	6.81969	-15.1323	4.05648	0.291794	-0.00280289	4.14947	0.282773	1	10	0.00508526	0.000745673	0	-3.96461e-06	0.14155	0.0382788	0.146634	15.1323	282.773	1045.66	1083.22	-74.8677	0.0000000E+000	0.0000000E+000	0.0000000E+000	74.8677	0.0000000E+000	0.0000000E+000	0.0000000E+000	-74.8677	0.0000000E+000	0.0000000E+000	0.0000000E+000	-15.1323	0.0000000E+000	0.0000000E+000	0.0000000E+000	15.1323	3.69787	74.8677	-9.25217e-07	-8.17865e-07	104105
10002.2	7.47538	2.20905	7.79495	-16.463	4.93048	0.291791	-0.0027078	7.20307	0.5785	1	10	0.0054715	0.00070193	0	-5.532e-06	0.123029	0.0363563	0.128288	16.463	578.5	1957.63	2041.32	-73.537	0.0000000E+000	0.0000000E+000	0.0000000E+000	73.537	0.0000000E+000	0.0000000E+000	0.0000000E+000	-73.537	0.0000000E+000	0.0000000E+000	0.0000000E+000	-16.463	0.0000000E+000	0.0000000E+000	0.0000000E+000	16.463	3.38398	73.537	-9.08958e-07	-7.90112e-07	107760
4641.49	8.57253	2.76041	9.006	-17.8489	6.18069	0.291803	-0.00082285	12.422	1.167	1	10	0.00523449	0.000581223	0	-5.1523e-06	0.105693	0.0340337	0.111037	17.8489	1167	3624.16	3807.42	-72.1511	0.0000000E+000	0.0000000E+000	0.0000000E+000	72.1511	0.0000000E+000	0.0000000E+000	0.0000000E+000	-72.1511	0.0000000E+000	0.0000000E+000	0.0000000E+000	-17.8489	0.0000000E+000	0.0000000E+000	0.0000000E+000	17.8489	3.10553	72.1511	-7.76824e-07	-2.4011e-07	354624
2155.69	9.95256	3.46671	10.539	-19.2044	7.33769	0.291795	-0.000746413	21.2969	2.30435	1	10	0.00545367	0.000517473	0	-5.16762e-06	0.089605	0.0312115	0.0948853	19.2044	2304.35	6615.55	7005.4	-70.7956	0.0000000E+000	0.0000000E+000	0.0000000E+000	70.7956	0.0000000E+000	0.0000000E+000	0.0000000E+000	-70.7956	0.0000000E+000	0.0000000E+000	0.0000000E+000	-19.2044	0.0000000E+000	0.0000000E+000	0.0000000E+000	19.2044	2.8709	70.7956	-5.31095e-07	-2.17799e-07	390930
1000.32	11.6628	4.43481	12.4775	-20.8194	8.27366	0.291809	-0.000746414	35.8762	4.5321	1	10	0.00542641	0.000434895	0	-5.34114e-06	0.0749112	0.0284852	0.0801442	20.8194	4532.1	11918.7	12751.3	-69.1806	0.0000000E+000	0.0000000E+000	0.0000000E+000	69.1806	0.0000000E+000	0.0000000E+000	0.0000000E+000	-69.1806	0.0000000E+000	0.0000000E+000	0.0000000E+000	-20.8194	0.0000000E+000	0.0000000E+000	0.0000000E+000	20.8194	2.62983	69.1806	2.04651e-07	-2.17811e-07	390949
463.961	13.9158	5.72525	15.0475	-22.3633	9.2082	0.291792	-0.000451833	59.9162	8.67371	1	10	0.00530991	0.000352876	0	-5.22995e-06	0.061458	0.0252852	0.0664562	22.3633	8673.71	21082.3	22796.8	-67.6367	0.0000000E+000	0.0000000E+000	0.0000000E+000	67.6367	0.0000000E+000	0.0000000E+000	0.0000000E+000	-67.6367	0.0000000E+000	0.0000000E+000	0.0000000E+000	-22.3633	0.0000000E+000	0.0000000E+000	0.0000000E+000	22.3633	2.4306	67.6367	-2.04644e-07	-1.31841e-07	645795
215.345	17.0648	7.42477	18.61	-23.5135	10.1414	0.2918	-0.000226237	99.5413	15.8444	1	10	0.0052522	0.000282224	0	-5.04415e-06	0.0492726	0.0214382	0.0537344	23.5135	15844.4	36416	39713.6	-66.4865	0.0000000E+000	0.0000000E+000	0.0000000E+000	66.4865	0.0000000E+000	0.0000000E+000	0.0000000E+000	-66.4865	0.0000000E+000	0.0000000E+000	0.0000000E+000	-23.5135	0.0000000E+000	0.0000000E+000	0.0000000E+000	23.5135	2.29836	66.4865	2.03622e-07	-6.60158e-08	1.2898e+06
100.032	21.4789	8.98849	23.2838	-22.7084	11.3267	0.291796	-0.00625717	177.009	26.3792	1	11	0.00523874	0.000224995	0	-5.7423e-06	0.0396191	0.0165798	0.0429484	22.7084	26379.2	63035.5	68332.5	-67.2916	0.0000000E+000	0.0000000E+000	0.0000000E+000	67.2916	0.0000000E+000	0.0000000E+000	0.0000000E+000	-67.2916	0.0000000E+000	0.0000000E+000	0.0000000E+000	-22.7084	0.0000000E+000	0.0000000E+000	0.0000000E+000	22.7084	2.38959	67.2916	-6.26053e-07	-1.82581e-06	46633.8
46.4415	27.1843	9.33944	28.7439	-18.9607	12.2606	0.291802	-0.00608899	366.938	38.7386	1	11	0.0052176	0.00018152	0	-6.99835e-06	0.0329024	0.0113039	0.03479	18.9607	38738.6	112756	119225	-71.0393	0.0000000E+000	0.0000000E+000	0.0000000E+000	71.0393	0.0000000E+000	0.0000000E+000	0.0000000E+000	-71.0393	0.0000000E+000	0.0000000E+000	0.0000000E+000	-18.9607	0.0000000E+000	0.0000000E+000	0.0000000E+000	18.9607	2.9107	71.0393	-6.66929e-07	-1.77678e-06	47922.9
[...]
1.00006	38.0574	1.68221	38.0946	-2.53093	21.0232	0.291828	-0.00451997	94604.7	184.479	1	12	0.00521683	0.000136944	0	-1.97348e-05	0.0262249	0.00115919	0.0262505	2.53093	184478	4.17355e+06	4.17762e+06	-87.4691	0.0000000E+000	0.0000000E+000	0.0000000E+000	87.4691	0.0000000E+000	0.0000000E+000	0.0000000E+000	-87.4691	0.0000000E+000	0.0000000E+000	0.0000000E+000	-2.53093	0.0000000E+000	0.0000000E+000	0.0000000E+000	2.53093	22.6235	87.4691	-7.58429e-08	-1.31906e-06	64564.3
0.464091	38.5518	1.8986	38.5985	-2.81943	28.7079	0.291833	-0.00377047	180627	437.029	1	12	0.00521963	0.000135229	0	-1.49865e-05	0.0258764	0.00127436	0.0259077	2.81943	437029	8.87403e+06	8.88479e+06	-87.1806	0.0000000E+000	0.0000000E+000	0.0000000E+000	87.1806	0.0000000E+000	0.0000000E+000	0.0000000E+000	-87.1806	0.0000000E+000	0.0000000E+000	0.0000000E+000	-2.81943	0.0000000E+000	0.0000000E+000	0.0000000E+000	2.81943	20.3054	87.1806	2.34226e-06	-1.10035e-06	77399.6
0.215268	39.3706	2.78571	39.469	-4.04728	45.1878	0.291823	-0.00222771	265403	1322.1	1	12	0.00521629	0.000132162	0	-3.32268e-05	0.0252732	0.00178823	0.0253363	4.04728	1.3221e+06	1.86853e+07	1.8732e+07	-85.9527	0.0000000E+000	0.0000000E+000	0.0000000E+000	85.9527	0.0000000E+000	0.0000000E+000	0.0000000E+000	-85.9527	0.0000000E+000	0.0000000E+000	0.0000000E+000	-4.04728	0.0000000E+000	0.0000000E+000	0.0000000E+000	4.04728	14.1331	85.9527	-1.47925e-05	-6.50095e-07	130997
0.0999041	40.6908	4.28389	40.9157	-6.0099	80.5932	0.291824	-0.00170453	371876	4076.57	1	12	0.00521964	0.000127571	0	-0.000107961	0.0243061	0.00255893	0.0244405	6.0099	4.07657e+06	3.87216e+07	3.89356e+07	-83.9901	0.0000000E+000	0.0000000E+000	0.0000000E+000	83.9901	0.0000000E+000	0.0000000E+000	0.0000000E+000	-83.9901	0.0000000E+000	0.0000000E+000	0.0000000E+000	-6.0099	0.0000000E+000	0.0000000E+000	0.0000000E+000	6.0099	9.49857	83.9901	-4.42867e-05	-4.97422e-07	171205
0.0464052	42.9452	7.053	43.5205	-9.32659	156.829	0.291824	-0.00211203	486272	12771.5	1	12	0.00522034	0.000119951	0	-0.000181648	0.0226739	0.0037238	0.0229777	9.32659	1.27715e+07	7.77644e+07	7.88061e+07	-80.6734	0.0000000E+000	0.0000000E+000	0.0000000E+000	80.6734	0.0000000E+000	0.0000000E+000	0.0000000E+000	-80.6734	0.0000000E+000	0.0000000E+000	0.0000000E+000	-9.32659	0.0000000E+000	0.0000000E+000	0.0000000E+000	9.32659	6.08892	80.6734	-2.64864e-05	-6.16341e-07	138172
0.0215268	45.5938	11.238	46.9584	-13.8463	321.059	0.291825	-0.0012097	657888	37679.4	1	12	0.00521895	0.00011114	0	-4.08795e-05	0.0206766	0.00509639	0.0212954	13.8463	3.76794e+07	1.52869e+08	1.57445e+08	-76.1537	0.0000000E+000	0.0000000E+000	0.0000000E+000	76.1537	0.0000000E+000	0.0000000E+000	0.0000000E+000	-76.1537	0.0000000E+000	0.0000000E+000	0.0000000E+000	-13.8463	0.0000000E+000	0.0000000E+000	0.0000000E+000	13.8463	4.05711	76.1537	0.00010871	-3.53022e-07	241237
0.0100092	50.0596	18.5858	53.3985	-20.3686	674.273	0.291826	-3.6757e-05	855542	103644	1	12	0.00522114	9.77768e-05	0	0.000221483	0.0175562	0.00651813	0.0187271	20.3686	1.03644e+08	2.79159e+08	2.97778e+08	-69.6314	0.0000000E+000	0.0000000E+000	0.0000000E+000	69.6314	0.0000000E+000	0.0000000E+000	0.0000000E+000	-69.6314	0.0000000E+000	0.0000000E+000	0.0000000E+000	-20.3686	0.0000000E+000	0.0000000E+000	0.0000000E+000	20.3686	2.69344	69.6314	0.000103244	-1.07266e-08	7.93932e+06

File: 14957_R243_UA603_SOC00_C04.mpt
EC-Lab ASCII FILE
Nb header lines : 63

Potentio Electrochemical Impedance Spectroscopy

Run on channel : 4 (SN 66756)
User :
CE vs. WE compliance from -10 V to 10 V
Electrode connection : standard
Potential control : Ewe
Ewe ctrl range : min = -10.00 V, max = 10.00 V
Safety Limits :
	Do not start on E overload
Acquisition started on : 09/22/2025 10:43:56.297
Loaded Setting File :  C:\Users\Celltest\OneDrive - store-dot.com\Documents\EC-Lab\Data\Gyutae\17739_R277_UA674_SOC00_C03.mpr
Saved on :
	File : 14957_R243_UA603_SOC00_C04.mpr
	Directory : C:\Users\Celltest\OneDrive - store-dot.com\Documents\EC-Lab\Data\Anna\
	Host : 169.254.61.224
Device : VMP-3e (SN .003165)
Address : USB
EC-LAB for windows v11.62 (software)
Internet server v27.00 (firmware)
Command interpretor v12.03 (firmware)
Electrode material :
Initial state :
Electrolyte :
Comments :
Electrode surface area : 0.001 cm²
Characteristic mass : 0.001 g
Equivalent Weight : 0.000 g/eq.
Density : 0.000 g/cm3
Volume (V) : 0.001 cm³
Cycle Definition : Charge/Discharge alternance
Mode                Single sine
E (V)               0.0000
vs.                 Eoc
tE (h:m:s)          0:00:0.0000
record              0
dI                  0.000
unit dI             mA
dt (s)              0.000
fi                  100.000
unit fi             kHz
ff                  10.000
unit ff             mHz
Nd                  6
Points              per decade
spacing             Logarithmic
Va (mV)             5.0
pw                  0.10
Na                  2
corr                0
E range min (V)     -10.000
E range max (V)     10.000
I Range             Auto
Bandwidth           5
nc cycles           0
goto Ns'            0
nr cycles           0
inc. cycle          0

freq/Hz	Re(Z)/Ohm	-Im(Z)/Ohm	|Z|/Ohm	Phase(Z)/deg	time/s	<Ewe>/V	<I>/mA	Cs/µF	Cp/µF	cycle number	I Range	|Ewe|/V	|I|/A	Ns	(Q-Qo)/mA.h	Re(Y)/Ohm-1	Im(Y)/Ohm-1	|Y|/Ohm-1	Phase(Y)/deg	Re(C)/nF	Im(C)/nF	|C|/nF	Phase(C)/deg	Re(M)	Im(M)	|M|	Phase(M)/deg	Re(Permittivity)	Im(Permittivity)	|Permittivity|	Phase(Permittivity)/deg	Re(Resistivity)/Ohm.cm	Im(Resistivity)/Ohm.cm	|Resistivity|/Ohm.cm	Phase(Resistivity)/deg	Re(Conductivity)/mS/cm	Im(Conductivity)/mS/cm	|Conductivity|/mS/cm	Phase(Conductivity)/deg	Tan(Delta)	Loss Angle(Delta)/deg	dq/mA.h	Pwe/W	Rwe/Ohm
100004	8.59201	2.42591	8.92791	-15.7668	1.86447	0.644227	-0.0225568	0.656038	0.0484372	1	10	0.00459749	0.000514957	0	-2.64982e-06	0.107794	0.0304351	0.112008	15.7668	48.4372	171.553	178.26	-74.2332	0.0000000E+000	0.0000000E+000	0.0000000E+000	74.2332	0.0000000E+000	0.0000000E+000	0.0000000E+000	-74.2332	0.0000000E+000	0.0000000E+000	0.0000000E+000	-15.7668	0.0000000E+000	0.0000000E+000	0.0000000E+000	15.7668	3.54176	74.2332	-2.64982e-06	-1.45317e-05	28560.3
46420.4	9.72094	3.25895	10.2527	-18.5338	2.7385	0.644267	-0.0220756	1.05204	0.106296	1	10	0.00523528	0.000510626	0	-6.84983e-06	0.092477	0.031003	0.0975355	18.5338	106.296	317.063	334.406	-71.4662	0.0000000E+000	0.0000000E+000	0.0000000E+000	71.4662	0.0000000E+000	0.0000000E+000	0.0000000E+000	-71.4662	0.0000000E+000	0.0000000E+000	0.0000000E+000	-18.5338	0.0000000E+000	0.0000000E+000	0.0000000E+000	18.5338	2.98284	71.4662	-1.28867e-06	-1.42226e-05	29184.6
21544.7	11.2874	4.38587	12.1096	-21.2343	3.61248	0.64423	-0.023618	1.68432	0.220942	1	10	0.00517103	0.00042702	0	-1.17556e-05	0.0769727	0.0299087	0.0825792	21.2343	220.942	568.613	610.03	-68.7657	0.0000000E+000	0.0000000E+000	0.0000000E+000	68.7657	0.0000000E+000	0.0000000E+000	0.0000000E+000	-68.7657	0.0000000E+000	0.0000000E+000	0.0000000E+000	-21.2343	0.0000000E+000	0.0000000E+000	0.0000000E+000	21.2343	2.57359	68.7657	-2.65268e-06	-1.52154e-05	27277.1
10002.2	13.509	5.79459	14.6993	-23.2166	4.3455	0.644228	-0.0236217	2.746	0.426728	1	10	0.00500093	0.000340215	0	-1.55921e-05	0.0625213	0.0268181	0.0680303	23.2166	426.728	994.836	1082.5	-66.7834	0.0000000E+000	0.0000000E+000	0.0000000E+000	66.7834	0.0000000E+000	0.0000000E+000	0.0000000E+000	-66.7834	0.0000000E+000	0.0000000E+000	0.0000000E+000	-23.2166	0.0000000E+000	0.0000000E+000	0.0000000E+000	23.2166	2.33131	66.7834	-2.22113e-06	-1.52178e-05	27272.7
4641.49	16.5455	7.66353	18.2341	-24.8526	5.19468	0.644466	0.00168751	4.47439	0.790353	1	10	0.00494883	0.000271404	0	-1.61945e-05	0.0497634	0.0230493	0.0548422	24.8526	790.353	1706.37	1880.52	-65.1474	0.0000000E+000	0.0000000E+000	0.0000000E+000	65.1474	0.0000000E+000	0.0000000E+000	0.0000000E+000	-65.1474	0.0000000E+000	0.0000000E+000	0.0000000E+000	-24.8526	0.0000000E+000	0.0000000E+000	0.0000000E+000	24.8526	2.159	65.1474	4.11335e-08	1.08754e-06	381903
2155.69	20.7198	9.82931	22.9331	-25.3793	6.12868	0.644466	0.00189267	7.51123	1.37985	1	10	0.00490285	0.00021379	0	-1.59328e-05	0.0393968	0.0186895	0.0436052	25.3793	1379.85	2908.67	3219.38	-64.6207	0.0000000E+000	0.0000000E+000	0.0000000E+000	64.6207	0.0000000E+000	0.0000000E+000	0.0000000E+000	-64.6207	0.0000000E+000	0.0000000E+000	0.0000000E+000	-25.3793	0.0000000E+000	0.0000000E+000	0.0000000E+000	25.3793	2.10796	64.6207	3.01857e-07	1.21976e-06	340507
1000.32	26.198	12.0847	28.8509	-24.7631	7.06567	0.64447	0.00138909	13.1657	2.30993	1	10	0.00487407	0.00016894	0	-1.56925e-05	0.0314738	0.0145183	0.034661	24.7631	2309.93	5007.61	5514.7	-65.2369	0.0000000E+000	0.0000000E+000	0.0000000E+000	65.2369	0.0000000E+000	0.0000000E+000	0.0000000E+000	-65.2369	0.0000000E+000	0.0000000E+000	0.0000000E+000	-24.7631	0.0000000E+000	0.0000000E+000	0.0000000E+000	24.7631	2.16786	65.2369	1.45744e-07	8.95228e-07	463950
463.961	32.9306	14.0695	35.8102	-23.1345	8.25422	0.64448	-0.00345717	24.3815	3.7636	1	11	0.00489909	0.000136807	0	-1.64011e-05	0.0256794	0.0109715	0.027925	23.1345	3763.6	8808.94	9579.25	-66.8655	0.0000000E+000	0.0000000E+000	0.0000000E+000	66.8655	0.0000000E+000	0.0000000E+000	0.0000000E+000	-66.8655	0.0000000E+000	0.0000000E+000	0.0000000E+000	-23.1345	0.0000000E+000	0.0000000E+000	0.0000000E+000	23.1345	2.34056	66.8655	-3.47253e-07	-2.22807e-06	186419
215.345	40.5861	15.3605	43.3956	-20.7299	9.18841	0.644421	-0.00317568	48.1152	6.02837	1	11	0.00487847	0.000112419	0	-1.72282e-05	0.021552	0.00815668	0.0230438	20.7299	6028.37	15928.4	17031	-69.27	0.0000000E+000	0.0000000E+000	0.0000000E+000	69.27	0.0000000E+000	0.0000000E+000	0.0000000E+000	-69.27	0.0000000E+000	0.0000000E+000	0.0000000E+000	-20.7299	0.0000000E+000	0.0000000E+000	0.0000000E+000	20.7299	2.64225	69.27	-4.65285e-07	-2.04647e-06	202924
100.032	48.531	16.3304	51.2049	-18.5978	10.1197	0.644425	-0.00320795	97.428	9.9096	1	11	0.00486455	9.50018e-05	0	-1.80869e-05	0.0185096	0.00622838	0.0195294	18.5978	9909.6	29449.5	31072	-71.4022	0.0000000E+000	0.0000000E+000	0.0000000E+000	71.4022	0.0000000E+000	0.0000000E+000	0.0000000E+000	-71.4022	0.0000000E+000	0.0000000E+000	0.0000000E+000	-18.5978	0.0000000E+000	0.0000000E+000	0.0000000E+000	18.5978	2.97181	71.4022	-4.16648e-07	-2.06728e-06	200884
[...]
1.00006	86.1901	6.51634	86.4361	-4.32358	19.4543	0.644472	-0.00140742	24422.4	138.805	1	12	0.00487407	5.63893e-05	0	-2.09574e-05	0.0115363	0.000872195	0.0115692	4.32358	138805	1.83594e+06	1.84118e+06	-85.6764	0.0000000E+000	0.0000000E+000	0.0000000E+000	85.6764	0.0000000E+000	0.0000000E+000	0.0000000E+000	-85.6764	0.0000000E+000	0.0000000E+000	0.0000000E+000	-4.32358	0.0000000E+000	0.0000000E+000	0.0000000E+000	4.32358	13.2268	85.6764	4.92382e-07	-9.07042e-07	457911
0.464091	88.6098	6.7372	88.8656	-4.34796	27.1396	0.644489	-0.00103962	50902.4	292.57	1	12	0.00488371	5.49562e-05	0	-2.61721e-05	0.0112206	0.000853124	0.011253	4.34796	292570	3.84797e+06	3.85908e+06	-85.652	0.0000000E+000	0.0000000E+000	0.0000000E+000	85.652	0.0000000E+000	0.0000000E+000	0.0000000E+000	-85.652	0.0000000E+000	0.0000000E+000	0.0000000E+000	-4.34796	0.0000000E+000	0.0000000E+000	0.0000000E+000	4.34796	13.1523	85.652	-4.05588e-06	-6.70023e-07	619928
0.215268	91.3022	7.88251	91.6419	-4.93436	43.6179	0.644489	-0.00109834	93794.2	693.934	1	12	0.0048734	5.31787e-05	0	-4.17375e-05	0.0108716	0.000938592	0.010912	4.93436	693934	8.03775e+06	8.06765e+06	-85.0656	0.0000000E+000	0.0000000E+000	0.0000000E+000	85.0656	0.0000000E+000	0.0000000E+000	0.0000000E+000	-85.0656	0.0000000E+000	0.0000000E+000	0.0000000E+000	-4.93436	0.0000000E+000	0.0000000E+000	0.0000000E+000	4.93436	11.5829	85.0656	-8.45387e-06	-7.0787e-07	586784
0.0999041	95.0876	11.5249	95.7835	-6.91073	79.0235	0.644479	-0.00122516	138229	2001.22	1	12	0.00486278	5.07685e-05	0	-4.83582e-05	0.0103644	0.0012562	0.0104402	6.91073	2.00122e+06	1.65112e+07	1.66321e+07	-83.0893	0.0000000E+000	0.0000000E+000	0.0000000E+000	83.0893	0.0000000E+000	0.0000000E+000	0.0000000E+000	-83.0893	0.0000000E+000	0.0000000E+000	0.0000000E+000	-6.91073	0.0000000E+000	0.0000000E+000	0.0000000E+000	6.91073	8.25059	83.0893	-1.05296e-07	-7.89588e-07	526038
0.0464052	101.16	16.7365	102.535	-9.39432	155.26	0.644476	-0.00072493	204922	5459.81	1	12	0.00486714	4.74683e-05	0	-2.16186e-05	0.009622	0.00159193	0.0097528	9.39432	5.45981e+06	3.30004e+07	3.3449e+07	-80.6057	0.0000000E+000	0.0000000E+000	0.0000000E+000	80.6057	0.0000000E+000	0.0000000E+000	0.0000000E+000	-80.6057	0.0000000E+000	0.0000000E+000	0.0000000E+000	-9.39432	0.0000000E+000	0.0000000E+000	0.0000000E+000	9.39432	6.04423	80.6057	1.86971e-05	-4.672e-07	889018
0.0215268	110.01	25.5284	112.934	-13.0645	319.488	0.644482	-0.00014197	289612	14798.5	1	12	0.00486816	4.31064e-05	0	-9.95701e-06	0.00862557	0.0020016	0.00885476	13.0645	1.47985e+07	6.37718e+07	6.54663e+07	-76.9355	0.0000000E+000	0.0000000E+000	0.0000000E+000	76.9355	0.0000000E+000	0.0000000E+000	0.0000000E+000	-76.9355	0.0000000E+000	0.0000000E+000	0.0000000E+000	-13.0645	0.0000000E+000	0.0000000E+000	0.0000000E+000	13.0645	4.30933	76.9355	-5.8612e-06	-9.14969e-08	4.53957e+06
0.0100092	120.676	38.8022	126.761	-17.8247	672.704	0.644477	-9.98283e-05	409794	38397.9	1	12	0.00486557	3.83838e-05	0	-0.00017708	0.00751018	0.00241483	0.00788887	17.8247	3.83979e+07	1.19419e+08	1.2544e+08	-72.1753	0.0000000E+000	0.0000000E+000	0.0000000E+000	72.1753	0.0000000E+000	0.0000000E+000	0.0000000E+000	-72.1753	0.0000000E+000	0.0000000E+000	0.0000000E+000	-17.8247	0.0000000E+000	0.0000000E+000	0.0000000E+000	17.8247	3.11003	72.1753	-0.000113893	-6.4337e-08	6.45586e+06