Folder: EIS/txt (part 177)

File: 19191_R297_UC94_SOC50_C08.mpt
EC-Lab ASCII FILE
Nb header lines : 65

Potentio Electrochemical Impedance Spectroscopy

Run on channel : 8 (SN 65398)
Grouped channel(s) : 5, 6, 7, 8
User :
CE vs. WE compliance from -10 V to 10 V
Electrode connection : standard
Potential control : Ewe
Ewe ctrl range : min = -10.00 V, max = 10.00 V
Safety Limits :
	Do not start on E overload
Acquisition started on : 11/11/2025 16:20:58.367
Loaded Setting File :  C:\Users\Celltest\OneDrive - store-dot.com\Documents\EC-Lab\Data\@Biologic Test Protocols\cathode half cell EIS SOC50.mps
Saved on :
	File : 19187_R297_UC94_SOC50_C08.mpr
	Directory : C:\Users\Celltest\OneDrive - store-dot.com\Documents\EC-Lab\Data\Michael\
	Host : 169.254.61.224
Device : VMP-3e (SN .003165)
Address : USB
EC-LAB for windows v11.62 (software)
Internet server v27.00 (firmware)
Command interpretor v12.03 (firmware)
Electrode material :
Initial state :
Electrolyte :
Comments :
Electrode surface area : 0.001 cm²
Characteristic mass : 0.001 g
Equivalent Weight : 0.000 g/eq.
Density : 0.000 g/cm3
Volume (V) : 0.001 cm³
Record Ece
Cycle Definition : Charge/Discharge alternance
Mode                Multi sine
E (V)               0.0000
vs.                 Eoc
tE (h:m:s)          0:00:0.0000
record              0
dI                  0.000
unit dI             mA
dt (s)              0.000
fi                  1.000
unit fi             MHz
ff                  0.100
unit ff             mHz
Nd                  10
Points              per decade
spacing             Logarithmic
Va (mV)             5.0
pw                  0.10
Na                  2
corr                0
E range min (V)     -10.000
E range max (V)     10.000
I Range             Auto
Bandwidth           5
nc cycles           0
goto Ns'            0
nr cycles           0
inc. cycle          0

freq/Hz	Re(Z)/Ohm	-Im(Z)/Ohm	|Z|/Ohm	Phase(Z)/deg	time/s	<Ewe>/V	<I>/mA	Cs/µF	Cp/µF	cycle number	I Range	|Ewe|/V	|I|/A	Ns	(Q-Qo)/mA.h	<Ece>/V	|Ece|/V	Phase(Zce)/deg	|Zce|/Ohm	Re(Zce)/Ohm	-Im(Zce)/Ohm	Phase(Zwe-ce)/deg	|Zwe-ce|/Ohm	Re(Zwe-ce)/Ohm	-Im(Zwe-ce)/Ohm	Re(Y)/Ohm-1	Im(Y)/Ohm-1	|Y|/Ohm-1	Phase(Y)/deg	Re(C)/nF	Im(C)/nF	|C|/nF	Phase(C)/deg	Re(M)	Im(M)	|M|	Phase(M)/deg	Re(Permittivity)	Im(Permittivity)	|Permittivity|	Phase(Permittivity)/deg	Re(Resistivity)/Ohm.cm	Im(Resistivity)/Ohm.cm	|Resistivity|/Ohm.cm	Phase(Resistivity)/deg	Re(Conductivity)/mS/cm	Im(Conductivity)/mS/cm	|Conductivity|/mS/cm	Phase(Conductivity)/deg	Tan(Delta)	Loss Angle(Delta)/deg	dq/mA.h	Pwe/W	Pce/W	Pwe-ce/W	<Ewe-Ece>/V	Rwe/Ohm	Rce/Ohm	Rwe-ce/Ohm		Ewe-Ece/V
1.00002e+06	1.05998	-0.282746	1.09704	14.9356	2.69356	3.881	-0.0603397	-0.562881	-0.0373903	1	9	0.000245267	0.00022357	0	-1.71198e-05	0.000420472	0.00020112	1.25335	0.899582	0.899367	-0.0196769	8.77427	1.98255	1.95935	-0.302422	0.880744	-0.234935	0.91154	-14.9356	-37.3903	140.172	145.073	-104.936	0.0000000E+000	0.0000000E+000	0.0000000E+000	104.936	0.0000000E+000	0.0000000E+000	0.0000000E+000	-104.936	0.0000000E+000	0.0000000E+000	0.0000000E+000	14.9356	0.0000000E+000	0.0000000E+000	0.0000000E+000	-14.9356	3.74889	75.0644	-1.71198e-05	-0.000234178	-2.53712e-08	-0.000234153	3.88058	64319.1	6.96842	64312.2
251206	0.787481	0.178524	0.807464	-12.7732	4.99253	3.88056	-0.0773782	3.54889	0.173476	1	9	0.00218758	0.0027092	0	-6.28513e-05	0.00015324	7.66528e-05	83.9033	0.0282935	0.00300496	-0.0281335	-10.7718	0.804665	0.790486	0.150391	1.2078	0.273811	1.23845	12.7732	173.476	765.216	784.633	-77.2268	0.0000000E+000	0.0000000E+000	0.0000000E+000	77.2268	0.0000000E+000	0.0000000E+000	0.0000000E+000	-77.2268	0.0000000E+000	0.0000000E+000	0.0000000E+000	-12.7732	0.0000000E+000	0.0000000E+000	0.0000000E+000	12.7732	4.41107	77.2268	-5.87022e-06	-0.000300271	-1.18574e-08	-0.000300259	3.8804	50150.5	1.9804	50148.5
63093.8	1.05239	0.439045	1.1403	-22.6453	7.29454	3.8805	-0.0402876	5.74545	0.85173	1	9	0.00528592	0.00463554	0	-5.6836e-05	0.00015324	4.14209e-05	85.6152	0.0089355	0.000683157	-0.00890935	-22.2179	1.13753	1.05308	0.430136	0.809352	0.337652	0.87696	22.6453	851.73	2041.6	2212.14	-67.3547	0.0000000E+000	0.0000000E+000	0.0000000E+000	67.3547	0.0000000E+000	0.0000000E+000	0.0000000E+000	-67.3547	0.0000000E+000	0.0000000E+000	0.0000000E+000	-22.6453	0.0000000E+000	0.0000000E+000	0.0000000E+000	22.6453	2.397	67.3547	-1.31561e-05	-0.000156336	-6.17364e-09	-0.00015633	3.88035	96320.2	3.80364	96316.4
15847.7	1.51968	0.775726	1.70621	-27.0422	9.59252	3.88049	-0.0463888	12.9463	2.67606	1	9	0.00498542	0.00292192	0	-6.13176e-05	9.59754e-05	5.31934e-06	-100.213	0.00182049	-0.000322783	0.00179165	-27.1007	1.70674	1.51935	0.777517	0.522016	0.266466	0.586093	27.0422	2676.06	5242.5	5886.01	-62.9578	0.0000000E+000	0.0000000E+000	0.0000000E+000	62.9578	0.0000000E+000	0.0000000E+000	0.0000000E+000	-62.9578	0.0000000E+000	0.0000000E+000	0.0000000E+000	-27.0422	0.0000000E+000	0.0000000E+000	0.0000000E+000	27.0422	1.95904	62.9578	-3.81671e-06	-0.000180011	-4.45218e-09	-0.000180007	3.88039	83651.4	2.06894	83649.4
3983.6	2.32213	1.32652	2.67431	-29.7372	11.567	3.88029	-0.129685	30.1183	7.41025	1	9	0.00491563	0.00183809	0	-9.16744e-05	7.68873e-05	9.2595e-06	61.5288	0.00503756	0.00240149	-0.00442831	-29.6293	2.67421	2.32453	1.32209	0.324685	0.185476	0.373928	29.7372	7410.25	12972	14939.4	-60.2628	0.0000000E+000	0.0000000E+000	0.0000000E+000	60.2628	0.0000000E+000	0.0000000E+000	0.0000000E+000	-60.2628	0.0000000E+000	0.0000000E+000	0.0000000E+000	-29.7372	0.0000000E+000	0.0000000E+000	0.0000000E+000	29.7372	1.75055	60.2628	-1.12331e-05	-0.000503214	-9.9711e-09	-0.000503204	3.88021	29921	0.592879	29920.4
1000.32	3.73056	2.30641	4.38595	-31.7264	14.4408	3.8804	-0.0467374	68.9833	19.0761	1	10	0.00485587	0.00110714	0	-0.00010921	-0.000171257	2.4969e-05	-19.4872	0.0225527	0.0212608	0.00752348	-31.6642	4.408	3.75182	2.31394	0.19393	0.119897	0.228001	31.7264	19076.1	30855.1	36275.8	-58.2736	0.0000000E+000	0.0000000E+000	0.0000000E+000	58.2736	0.0000000E+000	0.0000000E+000	0.0000000E+000	-58.2736	0.0000000E+000	0.0000000E+000	0.0000000E+000	-31.7264	0.0000000E+000	0.0000000E+000	0.0000000E+000	31.7264	1.61747	58.2736	-5.49042e-06	-0.00018136	8.00412e-09	-0.000181368	3.88057	83025.7	3.66425	83029.3
251.044	6.70793	3.25995	7.45812	-25.9191	17.141	3.8804	-0.0453275	194.473	37.1554	1	10	0.00474235	0.000635864	0	-0.000141627	5.3507e-07	7.74644e-06	-34.0352	0.0121825	0.0100956	0.00681859	-25.9322	7.47018	6.71802	3.26677	0.120595	0.0586074	0.134082	25.9191	37155.4	76453.8	85004.2	-64.0809	0.0000000E+000	0.0000000E+000	0.0000000E+000	64.0809	0.0000000E+000	0.0000000E+000	0.0000000E+000	-64.0809	0.0000000E+000	0.0000000E+000	0.0000000E+000	-25.9191	0.0000000E+000	0.0000000E+000	0.0000000E+000	25.9191	2.05768	64.0809	-5.97203e-06	-0.000175889	-2.42534e-11	-0.000175889	3.8804	85608.1	0.0118045	85608.1
[...]
0.0602816	13.2256	2.42143	13.4455	-10.3751	240.55	3.88045	-0.0178361	1.09035e+06	35363.4	1	11	0.00521722	0.000388028	0	-0.00304567	7.68873e-05	7.4022e-07	-3.63482	0.00190764	0.00190381	0.000120939	-10.3742	13.4474	13.2275	2.42155	0.0731584	0.0133943	0.0743745	10.3751	3.53634e+07	1.93152e+08	1.96363e+08	-79.6249	0.0000000E+000	0.0000000E+000	0.0000000E+000	79.6249	0.0000000E+000	0.0000000E+000	0.0000000E+000	-79.6249	0.0000000E+000	0.0000000E+000	0.0000000E+000	-10.3751	0.0000000E+000	0.0000000E+000	0.0000000E+000	10.3751	5.46192	79.6249	0.000000000000000E+000	-6.9212e-05	-1.37137e-09	-6.92106e-05	3.88037	217562	4.31077	217557
0.00796479	17.3331	4.4504	17.8953	-14.4001	20329.5	3.8805	-0.000976533	4.49001e+06	277694	1	11	0.00521199	0.000291249	0	-0.0380766	0.00015324	3.34693e-07	-59.7139	0.00114916	0.000579545	0.000992325	-14.4027	17.8961	17.3337	4.45139	0.054125	0.013897	0.0558806	14.4001	2.77694e+08	1.08154e+09	1.11662e+09	-75.5999	0.0000000E+000	0.0000000E+000	0.0000000E+000	75.5999	0.0000000E+000	0.0000000E+000	0.0000000E+000	-75.5999	0.0000000E+000	0.0000000E+000	0.0000000E+000	-14.4001	0.0000000E+000	0.0000000E+000	0.0000000E+000	14.4001	3.89472	75.5999	-0.0350309	-3.78944e-06	-1.49643e-10	-3.78929e-06	3.88035	3.97376e+06	156.922	3.9736e+06
0.0019912	20.162	7.68389	21.5765	-20.8622	20329.5	3.8805	-0.000976533	1.04022e+07	1.31924e+06	1	11	0.00522693	0.00024225	0	-0.0380766	0.00015324	8.79958e-07	59.0907	0.00363243	0.00186591	-0.00311656	-20.8528	21.5772	20.1638	7.68077	0.0433081	0.0165051	0.0463467	20.8622	1.31924e+09	3.46159e+09	3.70446e+09	-69.1377	0.0000000E+000	0.0000000E+000	0.0000000E+000	69.1377	0.0000000E+000	0.0000000E+000	0.0000000E+000	-69.1377	0.0000000E+000	0.0000000E+000	0.0000000E+000	-20.8622	0.0000000E+000	0.0000000E+000	0.0000000E+000	20.8622	2.62393	69.1377	0.000000000000000E+000	-3.78944e-06	-1.49643e-10	-3.78929e-06	3.88035	3.97376e+06	156.922	3.9736e+06
0.000497799	21.4408	20.9461	29.9741	-44.3313	20329.5	3.8805	-0.000976533	1.52638e+07	7.45378e+06	1	11	0.00522858	0.000174437	0	-0.0380766	0.00015324	1.31153e-06	11.9152	0.00751867	0.00735668	-0.00155234	-44.3193	29.9783	21.4482	20.9445	0.0238643	0.0233137	0.0333622	44.3313	7.45378e+09	7.62983e+09	1.06665e+10	-45.6687	0.0000000E+000	0.0000000E+000	0.0000000E+000	45.6687	0.0000000E+000	0.0000000E+000	0.0000000E+000	-45.6687	0.0000000E+000	0.0000000E+000	0.0000000E+000	-44.3313	0.0000000E+000	0.0000000E+000	0.0000000E+000	44.3313	1.02362	45.6687	0.000000000000000E+000	-3.78944e-06	-1.49643e-10	-3.78929e-06	3.88035	3.97376e+06	156.922	3.9736e+06
9.95598e-05	19.8762	141.884	143.27	-82.0255	20329.5	3.8805	-0.000976533	1.12668e+07	1.105e+07	1	11	0.00523055	3.65084e-05	0	-0.0380766	0.00015324	3.77354e-06	-43.9333	0.103361	0.074435	0.0717138	-82	143.351	19.9507	141.956	0.000968336	0.00691235	0.00697985	82.0255	1.105e+10	1.54797e+09	1.11579e+10	-7.97454	0.0000000E+000	0.0000000E+000	0.0000000E+000	7.97454	0.0000000E+000	0.0000000E+000	0.0000000E+000	-7.97454	0.0000000E+000	0.0000000E+000	0.0000000E+000	-82.0255	0.0000000E+000	0.0000000E+000	0.0000000E+000	82.0255	0.140088	7.97455	0.000000000000000E+000	-3.78944e-06	-1.49643e-10	-3.78929e-06	3.88035	3.97376e+06	156.922	3.9736e+06

File: 19254_UA646_UC61_FC_SOC0_C01.mpt
EC-Lab ASCII FILE
Nb header lines : 65

Potentio Electrochemical Impedance Spectroscopy

Run on channel : 1 (SN 66354)
User :
CE vs. WE compliance from -10 V to 10 V
Electrode connection : standard
Potential control : Ewe
Ewe ctrl range : min = -5.00 V, max = 5.00 V
Safety Limits :
	Do not start on E overload
Acquisition started on : 12/11/2025 11:03:24.246
Technique started on : 12/11/2025 11:03:26.940
Loaded Setting File :  C:\Users\Celltest\OneDrive - store-dot.com\Documents\EC-Lab\Data\@Biologic Test Protocols\cathode half cell EIS SOC50.mps
Saved on :
	File : 19254_UA646_UC61_FC_SOC0_C01.mpr
	Directory : C:\Users\Celltest\OneDrive - store-dot.com\Documents\EC-Lab\Data\John\
	Host : 169.254.61.224
Device : VMP-3e (SN .003165)
Address : USB
EC-LAB for windows v11.62 (software)
Internet server v27.00 (firmware)
Command interpretor v12.03 (firmware)
Electrode material :
Initial state :
Electrolyte :
Comments :
Electrode surface area : 0.001 cm²
Characteristic mass : 0.001 g
Equivalent Weight : 0.000 g/eq.
Density : 0.000 g/cm3
Volume (V) : 0.001 cm³
Record Ece
Cycle Definition : Charge/Discharge alternance
Mode                Multi sine
E (V)               0.0000
vs.                 Eoc
tE (h:m:s)          0:00:0.0000
record              0
dI                  0.000
unit dI             mA
dt (s)              0.000
fi                  1.000
unit fi             MHz
ff                  0.100
unit ff             mHz
Nd                  10
Points              per decade
spacing             Logarithmic
Va (mV)             5.0
pw                  0.10
Na                  2
corr                0
E range min (V)     -5.000
E range max (V)     5.000
I Range             Auto
Bandwidth           5
nc cycles           0
goto Ns'            0
nr cycles           0
inc. cycle          0

freq/Hz	Re(Z)/Ohm	-Im(Z)/Ohm	|Z|/Ohm	Phase(Z)/deg	time/s	<Ewe>/V	<I>/mA	Cs/µF	Cp/µF	cycle number	I Range	|Ewe|/V	|I|/A	Ns	(Q-Qo)/mA.h	<Ece>/V	|Ece|/V	Phase(Zce)/deg	|Zce|/Ohm	Re(Zce)/Ohm	-Im(Zce)/Ohm	Phase(Zwe-ce)/deg	|Zwe-ce|/Ohm	Re(Zwe-ce)/Ohm	-Im(Zwe-ce)/Ohm	Re(Y)/Ohm-1	Im(Y)/Ohm-1	|Y|/Ohm-1	Phase(Y)/deg	Re(C)/nF	Im(C)/nF	|C|/nF	Phase(C)/deg	Re(M)	Im(M)	|M|	Phase(M)/deg	Re(Permittivity)	Im(Permittivity)	|Permittivity|	Phase(Permittivity)/deg	Re(Resistivity)/Ohm.cm	Im(Resistivity)/Ohm.cm	|Resistivity|/Ohm.cm	Phase(Resistivity)/deg	Re(Conductivity)/mS/cm	Im(Conductivity)/mS/cm	|Conductivity|/mS/cm	Phase(Conductivity)/deg	Tan(Delta)	Loss Angle(Delta)/deg	dq/mA.h	Pwe/W	Pce/W	Pwe-ce/W	<Ewe-Ece>/V	Rwe/Ohm	Rce/Ohm	Rwe-ce/Ohm		Ewe-Ece/V
1.00002e+06	2.1512	2.70742	3.458	-51.5308	2.69356	2.64991	0.00455386	0.0587837	0.0360344	1	10	0.000231253	6.68747e-05	0	6.77408e-07	-0.000254775	0.000191658	-75.2464	2.86592	0.729843	2.77143	-62.2625	6.19017	2.88104	5.47885	0.1799	0.226415	0.289184	51.5308	36.0344	28.6314	46.0243	-38.4692	0.0000000E+000	0.0000000E+000	0.0000000E+000	38.4692	0.0000000E+000	0.0000000E+000	0.0000000E+000	-38.4692	0.0000000E+000	0.0000000E+000	0.0000000E+000	-51.5308	0.0000000E+000	0.0000000E+000	0.0000000E+000	51.5308	0.794558	38.4692	6.77408e-07	1.20673e-05	-1.16021e-09	1.20685e-05	2.65017	581905	55.9471	581961
251206	1.55215	0.46023	1.61894	-16.5157	5.39652	2.64955	0.041534	1.37662	0.111251	1	9	0.00417658	0.00257982	0	2.96565e-05	0.000107694	6.09328e-05	106.783	0.023619	-0.00682006	-0.0226129	-15.8114	1.6061	1.54533	0.437617	0.592203	0.175595	0.617688	16.5157	111.251	375.198	391.344	-73.4843	0.0000000E+000	0.0000000E+000	0.0000000E+000	73.4843	0.0000000E+000	0.0000000E+000	0.0000000E+000	-73.4843	0.0000000E+000	0.0000000E+000	0.0000000E+000	-16.5157	0.0000000E+000	0.0000000E+000	0.0000000E+000	16.5157	3.37255	73.4843	4.99765e-06	0.000110046	4.47296e-09	0.000110042	2.64944	63792.2	2.59291	63789.6
63093.8	2.14378	0.708794	2.25792	-18.2953	7.69455	2.64952	0.0574789	3.55888	0.3507	1	9	0.00544599	0.00241195	0	6.55476e-05	0.000432008	2.29527e-05	87.3544	0.00951622	0.000439256	-0.00950607	-18.0625	2.25537	2.14422	0.699288	0.420498	0.139028	0.442885	18.2953	350.7	1060.71	1117.18	-71.7047	0.0000000E+000	0.0000000E+000	0.0000000E+000	71.7047	0.0000000E+000	0.0000000E+000	0.0000000E+000	-71.7047	0.0000000E+000	0.0000000E+000	0.0000000E+000	-18.2953	0.0000000E+000	0.0000000E+000	0.0000000E+000	18.2953	3.02455	71.7047	7.47413e-06	0.000152292	2.48313e-08	0.000152267	2.64909	46095.6	7.51595	46088.1
15847.7	2.87265	0.911419	3.01377	-17.6029	10.1185	2.6495	0.0535671	11.0189	1.00775	1	9	0.00489174	0.00162313	0	0.000105304	0.000432008	1.06181e-05	-34.7478	0.00654175	0.00537514	0.00372857	-17.6395	3.02002	2.87802	0.915147	0.316274	0.100346	0.331811	17.6029	1007.75	3176.27	3332.31	-72.3971	0.0000000E+000	0.0000000E+000	0.0000000E+000	72.3971	0.0000000E+000	0.0000000E+000	0.0000000E+000	-72.3971	0.0000000E+000	0.0000000E+000	0.0000000E+000	-17.6029	0.0000000E+000	0.0000000E+000	0.0000000E+000	17.6029	3.15184	72.3971	5.91405e-06	0.000141926	2.31414e-08	0.000141903	2.64907	49461.3	8.0648	49453.3
3983.6	3.68124	1.07038	3.8337	-16.2126	11.8411	2.64926	-0.0105476	37.3255	2.90968	1	9	0.00476854	0.00124385	0	0.000125253	5.0462e-05	1.19207e-05	60.4298	0.00958372	0.00472947	-0.00833546	-16.0734	3.83593	3.68597	1.06205	0.250471	0.0728285	0.260844	16.2126	2909.69	10007	10421.4	-73.7874	0.0000000E+000	0.0000000E+000	0.0000000E+000	73.7874	0.0000000E+000	0.0000000E+000	0.0000000E+000	-73.7874	0.0000000E+000	0.0000000E+000	0.0000000E+000	-16.2126	0.0000000E+000	0.0000000E+000	0.0000000E+000	16.2126	3.43919	73.7874	-1.38965e-06	-2.79433e-05	-5.32253e-10	-2.79427e-05	2.64921	251172	4.78423	251167
1000.32	4.56498	1.65483	4.85566	-19.9258	14.6778	2.64948	-0.0109017	96.1454	11.167	1	10	0.00475317	0.000978891	0	0.000122255	0.000107694	8.47336e-06	12.6557	0.00865608	0.00844577	-0.00189648	-19.8709	4.86296	4.57342	1.65293	0.193616	0.0701868	0.205945	19.9258	11167	30805.1	32766.7	-70.0742	0.0000000E+000	0.0000000E+000	0.0000000E+000	70.0742	0.0000000E+000	0.0000000E+000	0.0000000E+000	-70.0742	0.0000000E+000	0.0000000E+000	0.0000000E+000	-19.9258	0.0000000E+000	0.0000000E+000	0.0000000E+000	19.9258	2.75858	70.0742	-5.46047e-07	-2.88839e-05	-1.17405e-09	-2.88827e-05	2.64937	243033	9.87861	243023
251.044	6.20234	3.37915	7.06312	-28.5824	17.3791	2.64947	-0.0122844	187.613	42.9421	1	10	0.00470474	0.0006661	0	0.000113746	6.95394e-05	3.76033e-06	-23.0531	0.00564529	0.00519447	0.00221061	-28.5779	7.06874	6.20754	3.38136	0.124326	0.0677351	0.14158	28.5824	42942.1	78819.2	89758	-61.4176	0.0000000E+000	0.0000000E+000	0.0000000E+000	61.4176	0.0000000E+000	0.0000000E+000	0.0000000E+000	-61.4176	0.0000000E+000	0.0000000E+000	0.0000000E+000	-28.5824	0.0000000E+000	0.0000000E+000	0.0000000E+000	28.5824	1.83547	61.4176	-9.29625e-07	-3.25473e-05	-8.54252e-10	-3.25464e-05	2.6494	215677	5.66077	215671
[...]
0.0602816	39.7505	16.5271	43.0494	-22.5761	240.736	2.64946	-0.0184941	159749	23545	1	11	0.00502986	0.000116839	0	-0.00126675	-4.49245e-05	6.77548e-07	-34.2808	0.00579897	0.00479162	0.00326627	-22.5777	43.055	39.7553	16.5304	0.0214491	0.00891792	0.0232292	22.5761	2.3545e+07	5.66297e+07	6.13294e+07	-67.4239	0.0000000E+000	0.0000000E+000	0.0000000E+000	67.4239	0.0000000E+000	0.0000000E+000	0.0000000E+000	-67.4239	0.0000000E+000	0.0000000E+000	0.0000000E+000	-22.5761	0.0000000E+000	0.0000000E+000	0.0000000E+000	22.5761	2.40517	67.4239	0.000000000000000E+000	-4.89995e-05	8.3084e-10	-4.90003e-05	2.6495	143259	2.42912	143262
0.00796479	68.5668	60.158	91.2162	-41.2625	20329.6	2.64942	-0.00318609	332164	144476	1	11	0.00502189	5.50548e-05	0	-0.0392235	0.000412931	1.99157e-06	-1.95488	0.0361743	0.0361533	0.00123399	-41.2481	91.2442	68.603	60.1593	0.00824081	0.00723018	0.010963	41.2625	1.44476e+08	1.64671e+08	2.19065e+08	-48.7375	0.0000000E+000	0.0000000E+000	0.0000000E+000	48.7375	0.0000000E+000	0.0000000E+000	0.0000000E+000	-48.7375	0.0000000E+000	0.0000000E+000	0.0000000E+000	-41.2625	0.0000000E+000	0.0000000E+000	0.0000000E+000	41.2625	1.13978	48.7375	-0.0379568	-8.44129e-06	-1.31564e-09	-8.43997e-06	2.649	831556	129.604	831426
0.0019912	113.115	161.924	197.521	-55.0632	20329.6	2.64942	-0.00318609	493621	331736	1	11	0.00503456	2.54888e-05	0	-0.0392235	0.000412931	9.88133e-07	-19.0425	0.0387674	0.0366459	0.0126486	-55.0566	197.552	113.151	161.937	0.0028993	0.00415037	0.00506276	55.0632	3.31736e+08	2.31739e+08	4.04663e+08	-34.9368	0.0000000E+000	0.0000000E+000	0.0000000E+000	34.9368	0.0000000E+000	0.0000000E+000	0.0000000E+000	-34.9368	0.0000000E+000	0.0000000E+000	0.0000000E+000	-55.0632	0.0000000E+000	0.0000000E+000	0.0000000E+000	55.0632	0.698564	34.9368	0.000000000000000E+000	-8.44129e-06	-1.31564e-09	-8.43997e-06	2.649	831556	129.604	831426
0.000497799	250.297	452.414	517.037	-61.0465	20329.6	2.64942	-0.00318609	706692	541077	1	11	0.00503733	9.74269e-06	0	-0.0392235	0.000412931	9.55425e-07	14.6406	0.0980659	0.0948817	-0.0247867	-61.036	517.061	250.392	452.389	0.000936296	0.00169236	0.0019341	61.0465	5.41077e+08	2.9935e+08	6.18364e+08	-28.9535	0.0000000E+000	0.0000000E+000	0.0000000E+000	28.9535	0.0000000E+000	0.0000000E+000	0.0000000E+000	-28.9535	0.0000000E+000	0.0000000E+000	0.0000000E+000	-61.0465	0.0000000E+000	0.0000000E+000	0.0000000E+000	61.0465	0.553249	28.9535	0.000000000000000E+000	-8.44129e-06	-1.31564e-09	-8.43997e-06	2.649	831556	129.604	831426
9.95598e-05	-937.042	1294.18	1597.8	-125.906	20329.6	2.64942	-0.00318609	1.23521e+06	810379	1	11	0.00504068	3.15477e-06	0	-0.0392235	0.000412931	2.23585e-06	-107.709	0.708721	-0.215576	0.675139	-125.898	1598.47	-937.258	1294.86	-0.000367042	0.000506935	0.000625861	125.906	8.10379e+08	-5.86748e+08	1.00049e+09	35.9061	0.0000000E+000	0.0000000E+000	0.0000000E+000	-35.9061	0.0000000E+000	0.0000000E+000	0.0000000E+000	35.9061	0.0000000E+000	0.0000000E+000	0.0000000E+000	-125.906	0.0000000E+000	0.0000000E+000	0.0000000E+000	125.906	0.724042	35.9061	0.000000000000000E+000	-8.44129e-06	-1.31564e-09	-8.43997e-06	2.649	831556	129.604	831426