Folder: EIS/txt (part 94)

File: 18485_R301_UA694_SOC00_C07.mpt
EC-Lab ASCII FILE
Nb header lines : 65

Potentio Electrochemical Impedance Spectroscopy

Run on channel : 7 (SN 66126)
User :
CE vs. WE compliance from -10 V to 10 V
Electrode connection : standard
Potential control : Ewe
Ewe ctrl range : min = -10.00 V, max = 10.00 V
Safety Limits :
	Do not start on E overload
Acquisition started on : 10/21/2025 09:26:52.819
Technique started on : 10/21/2025 09:26:54.730
Loaded Setting File :  C:\Users\Celltest\OneDrive - store-dot.com\Documents\EC-Lab\Data\@Biologic Test Protocols\anode half cell EIS SOC00.mps
Saved on :
	File : 18485_R301_UA694_SOC00_C07.mpr
	Directory : C:\Users\Celltest\OneDrive - store-dot.com\Documents\EC-Lab\Data\Gyutae\
	Host : 169.254.61.224
Device : VMP-3e (SN .003165)
Address : USB
EC-LAB for windows v11.62 (software)
Internet server v27.00 (firmware)
Command interpretor v12.03 (firmware)
Electrode material :
Initial state :
Electrolyte :
Comments :
Electrode surface area : 0.001 cm²
Characteristic mass : 0.001 g
Equivalent Weight : 0.000 g/eq.
Density : 0.000 g/cm3
Volume (V) : 0.001 cm³
Record Ece
Cycle Definition : Charge/Discharge alternance
Mode                Single sine
E (V)               0.0000
vs.                 Eoc
tE (h:m:s)          0:00:0.0000
record              0
dI                  0.000
unit dI             mA
dt (s)              0.000
fi                  100.000
unit fi             kHz
ff                  10.000
unit ff             mHz
Nd                  6
Points              per decade
spacing             Logarithmic
Va (mV)             5.0
pw                  0.10
Na                  2
corr                0
E range min (V)     -10.000
E range max (V)     10.000
I Range             Auto
Bandwidth           5
nc cycles           0
goto Ns'            0
nr cycles           0
inc. cycle          0

freq/Hz	Re(Z)/Ohm	-Im(Z)/Ohm	|Z|/Ohm	Phase(Z)/deg	time/s	<Ewe>/V	<I>/mA	Cs/µF	Cp/µF	cycle number	I Range	|Ewe|/V	|I|/A	Ns	(Q-Qo)/mA.h	<Ece>/V	|Ece|/V	Phase(Zce)/deg	|Zce|/Ohm	Re(Zce)/Ohm	-Im(Zce)/Ohm	Phase(Zwe-ce)/deg	|Zwe-ce|/Ohm	Re(Zwe-ce)/Ohm	-Im(Zwe-ce)/Ohm	Re(Y)/Ohm-1	Im(Y)/Ohm-1	|Y|/Ohm-1	Phase(Y)/deg	Re(C)/nF	Im(C)/nF	|C|/nF	Phase(C)/deg	Re(M)	Im(M)	|M|	Phase(M)/deg	Re(Permittivity)	Im(Permittivity)	|Permittivity|	Phase(Permittivity)/deg	Re(Resistivity)/Ohm.cm	Im(Resistivity)/Ohm.cm	|Resistivity|/Ohm.cm	Phase(Resistivity)/deg	Re(Conductivity)/mS/cm	Im(Conductivity)/mS/cm	|Conductivity|/mS/cm	Phase(Conductivity)/deg	Tan(Delta)	Loss Angle(Delta)/deg	dq/mA.h	Pwe/W	Pce/W	Pwe-ce/W	<Ewe-Ece>/V	Rwe/Ohm	Rce/Ohm	Rwe-ce/Ohm		Ewe-Ece/V
100004	1.31819	0.514654	1.4151	-21.3268	1.91051	0.266032	0.0652449	3.09235	0.409021	1	9	0.00463261	0.0032737	0	7.38736e-07	-0.000135842	4.10539e-05	83.7588	0.0125405	0.00136334	-0.0124662	-20.8354	1.41189	1.31956	0.502187	0.658273	0.257005	0.706664	21.3268	409.021	1047.63	1124.65	-68.6732	0.0000000E+000	0.0000000E+000	0.0000000E+000	68.6732	0.0000000E+000	0.0000000E+000	0.0000000E+000	-68.6732	0.0000000E+000	0.0000000E+000	0.0000000E+000	-21.3268	0.0000000E+000	0.0000000E+000	0.0000000E+000	21.3268	2.56132	68.6732	7.38736e-07	1.73573e-05	-8.863e-09	1.73661e-05	0.266168	4077.44	2.08203	4079.52
31621.1	1.78555	0.780816	1.94881	-23.6196	3.43353	0.266023	0.0620054	6.44605	1.03479	1	9	0.00514412	0.00263962	0	2.74476e-05	-4.04649e-05	1.74054e-05	53.9684	0.00659389	0.00387874	-0.00533243	-23.4305	1.95024	1.78943	0.775484	0.470146	0.205594	0.513134	23.6196	1034.79	2366.33	2582.7	-66.3804	0.0000000E+000	0.0000000E+000	0.0000000E+000	66.3804	0.0000000E+000	0.0000000E+000	0.0000000E+000	-66.3804	0.0000000E+000	0.0000000E+000	0.0000000E+000	-23.6196	0.0000000E+000	0.0000000E+000	0.0000000E+000	23.6196	2.28677	66.3804	1.30192e-05	1.64949e-05	-2.50904e-09	1.64974e-05	0.266063	4290.32	0.652603	4290.97
10002.2	2.40195	1.07097	2.62989	-24.0309	4.33653	0.266022	0.0564572	14.8575	2.46391	1	9	0.00501509	0.00190696	0	4.79021e-05	-0.000460124	7.52266e-06	-34.9818	0.00394485	0.00323215	0.00226165	-24.0472	2.63376	2.40518	1.07323	0.347287	0.154846	0.380244	24.0309	2463.91	5526.01	6050.43	-65.9691	0.0000000E+000	0.0000000E+000	0.0000000E+000	65.9691	0.0000000E+000	0.0000000E+000	0.0000000E+000	-65.9691	0.0000000E+000	0.0000000E+000	0.0000000E+000	-24.0309	0.0000000E+000	0.0000000E+000	0.0000000E+000	24.0309	2.24278	65.9691	4.25576e-06	1.50188e-05	-2.59773e-08	1.50448e-05	0.266482	4711.92	8.14997	4720.07
3163.08	3.23746	1.54461	3.58706	-25.5061	5.23566	0.265847	0.0134123	32.5754	6.04022	1	9	0.00459365	0.00128062	0	5.4685e-05	-0.000288445	1.218e-05	-130.969	0.00951102	-0.00623588	0.00718146	-25.6526	3.58454	3.23123	1.5518	0.25161	0.120045	0.27878	25.5061	6040.22	12660.1	14027.2	-64.4939	0.0000000E+000	0.0000000E+000	0.0000000E+000	64.4939	0.0000000E+000	0.0000000E+000	0.0000000E+000	-64.4939	0.0000000E+000	0.0000000E+000	0.0000000E+000	-25.5061	0.0000000E+000	0.0000000E+000	0.0000000E+000	25.5061	2.09597	64.4939	2.54641e-06	3.56561e-06	-3.8687e-09	3.56948e-06	0.266136	19821.2	21.5061	19842.7
1000.32	4.32347	2.40149	4.94566	-29.0502	6.83386	0.265936	-0.0158433	66.2521	15.6212	1	10	0.00458057	0.00092618	0	5.23176e-05	-0.000135842	1.60701e-05	-5.36132	0.017351	0.0172751	0.00162121	-28.9697	4.96155	4.34074	2.40312	0.17676	0.0981824	0.202198	29.0502	15621.2	28123.2	32170.4	-60.9498	0.0000000E+000	0.0000000E+000	0.0000000E+000	60.9498	0.0000000E+000	0.0000000E+000	0.0000000E+000	-60.9498	0.0000000E+000	0.0000000E+000	0.0000000E+000	-29.0502	0.0000000E+000	0.0000000E+000	0.0000000E+000	29.0502	1.80032	60.9498	-2.6592e-06	-4.2133e-06	2.15219e-09	-4.21545e-06	0.266072	16785.4	8.57409	16793.9
316.316	5.88013	4.55593	7.43858	-37.7686	8.18402	0.265917	-0.0158992	110.439	41.4283	1	10	0.00450076	0.000605057	0	4.72768e-05	-0.000212144	5.14904e-06	72.2641	0.00851001	0.00259241	-0.00810553	-37.707	7.43567	5.88272	4.54783	0.106269	0.0823375	0.134434	37.7686	41428.3	53469.5	67640.9	-52.2314	0.0000000E+000	0.0000000E+000	0.0000000E+000	52.2314	0.0000000E+000	0.0000000E+000	0.0000000E+000	-52.2314	0.0000000E+000	0.0000000E+000	0.0000000E+000	-37.7686	0.0000000E+000	0.0000000E+000	0.0000000E+000	37.7686	1.29065	52.2314	-1.63612e-06	-4.22785e-06	3.37291e-09	-4.23123e-06	0.266129	16725.2	13.3431	16738.6
100.032	10.2512	9.09501	13.7042	-41.58	9.7458	0.265927	-0.0175186	174.935	77.0506	1	10	0.00484546	0.000353574	0	4.00994e-05	-7.86157e-05	8.55728e-06	-5.47989	0.0242022	0.0240916	0.00231123	-41.5205	13.7238	10.2752	9.09732	0.0545839	0.0484278	0.0729702	41.58	77050.6	86845.2	116099	-48.42	0.0000000E+000	0.0000000E+000	0.0000000E+000	48.42	0.0000000E+000	0.0000000E+000	0.0000000E+000	-48.42	0.0000000E+000	0.0000000E+000	0.0000000E+000	-41.58	0.0000000E+000	0.0000000E+000	0.0000000E+000	41.58	1.12712	48.42	-1.63344e-06	-4.65866e-06	1.37724e-09	-4.66004e-06	0.266006	15179.7	4.48757	15184.2
[...]
1.00006	37.409	4.12692	37.6359	-6.29536	19.4836	0.265976	-0.0055429	38562.6	463.675	1	12	0.00484909	0.000128842	0	1.93549e-05	-0.000402898	2.60224e-06	15.8807	0.0201971	0.0194263	-0.00552665	-6.28376	37.6546	37.4284	4.1214	0.0264101	0.00291354	0.0265704	6.29536	463675	4.20304e+06	4.22853e+06	-83.7046	0.0000000E+000	0.0000000E+000	0.0000000E+000	83.7046	0.0000000E+000	0.0000000E+000	0.0000000E+000	-83.7046	0.0000000E+000	0.0000000E+000	0.0000000E+000	-6.29536	0.0000000E+000	0.0000000E+000	0.0000000E+000	6.29536	9.06462	83.7046	-7.451e-06	-1.47428e-06	2.23322e-09	-1.47651e-06	0.266379	47985.1	72.6872	48057.8
0.316193	39.6876	3.48788	39.8406	-5.02244	33.8282	0.265982	-0.00518819	144313	1106.06	1	12	0.00485025	0.000121742	0	-4.27539e-06	-2.13895e-05	2.28117e-06	-64.109	0.0187378	0.00818207	0.016857	-5.04555	39.8502	39.6958	3.50473	0.0250037	0.0021974	0.0251	5.02244	1.10606e+06	1.25855e+07	1.2634e+07	-84.9776	0.0000000E+000	0.0000000E+000	0.0000000E+000	84.9776	0.0000000E+000	0.0000000E+000	0.0000000E+000	-84.9776	0.0000000E+000	0.0000000E+000	0.0000000E+000	-5.02244	0.0000000E+000	0.0000000E+000	0.0000000E+000	5.02244	11.3787	84.9776	-5.00831e-06	-1.37996e-06	1.10973e-10	-1.38008e-06	0.266003	51266.7	4.12272	51270.8
0.0999041	41.4143	4.28254	41.6352	-5.90381	79.0373	0.265981	-0.00264333	371994	3935.66	1	12	0.00484997	0.000116487	0	5.96939e-06	-0.000460124	2.27097e-06	-22.3124	0.0194954	0.0180357	0.00740155	-5.91139	41.6539	41.4324	4.28994	0.0238908	0.00247048	0.0240182	5.90381	3.93566e+06	3.80598e+07	3.82628e+07	-84.0962	0.0000000E+000	0.0000000E+000	0.0000000E+000	84.0962	0.0000000E+000	0.0000000E+000	0.0000000E+000	-84.0962	0.0000000E+000	0.0000000E+000	0.0000000E+000	-5.90381	0.0000000E+000	0.0000000E+000	0.0000000E+000	5.90381	9.67051	84.0962	2.99376e-06	-7.03075e-07	1.21626e-09	-7.04291e-07	0.266441	100623	174.07	100797
0.0315922	43.9787	8.1248	44.7229	-10.467	221.922	0.265978	-0.000597457	620051	20464.1	1	12	0.00485075	0.000108462	0	-0.000162026	-0.000212144	2.75445e-06	-9.39962	0.0253954	0.0250544	0.00414756	-10.4664	44.7483	44.0037	8.12894	0.0219878	0.00406212	0.0223599	10.467	2.04641e+07	1.1077e+08	1.12645e+08	-79.533	0.0000000E+000	0.0000000E+000	0.0000000E+000	79.533	0.0000000E+000	0.0000000E+000	0.0000000E+000	-79.533	0.0000000E+000	0.0000000E+000	0.0000000E+000	-10.467	0.0000000E+000	0.0000000E+000	0.0000000E+000	10.467	5.4129	79.533	-0.000106096	-1.5891e-07	1.26747e-10	-1.59037e-07	0.26619	445184	355.078	445539
0.0100092	49.4125	17.8009	52.5211	-19.8116	673.145	0.265982	-0.000993361	893267	102612	1	12	0.00484824	9.23104e-05	0	-0.000426939	-0.000193068	2.73e-06	61.9501	0.0295741	0.0139069	-0.0261003	-19.7797	52.5253	49.4264	17.7748	0.017913	0.00645318	0.01904	19.8116	1.02612e+08	2.84834e+08	3.02753e+08	-70.1884	0.0000000E+000	0.0000000E+000	0.0000000E+000	70.1884	0.0000000E+000	0.0000000E+000	0.0000000E+000	-70.1884	0.0000000E+000	0.0000000E+000	0.0000000E+000	-19.8116	0.0000000E+000	0.0000000E+000	0.0000000E+000	19.8116	2.77585	70.1884	8.00202e-06	-2.64216e-07	1.91786e-10	-2.64408e-07	0.266175	267760	194.359	267954

File: 18486_R301_UA694_SOC00_C08.mpt
EC-Lab ASCII FILE
Nb header lines : 65

Potentio Electrochemical Impedance Spectroscopy

Run on channel : 8 (SN 65398)
User :
CE vs. WE compliance from -10 V to 10 V
Electrode connection : standard
Potential control : Ewe
Ewe ctrl range : min = -10.00 V, max = 10.00 V
Safety Limits :
	Do not start on E overload
Acquisition started on : 10/21/2025 09:27:02.604
Technique started on : 10/21/2025 09:27:04.383
Loaded Setting File :  C:\Users\Celltest\OneDrive - store-dot.com\Documents\EC-Lab\Data\@Biologic Test Protocols\anode half cell EIS SOC00.mps
Saved on :
	File : 18486_R301_UA694_SOC00_C08.mpr
	Directory : C:\Users\Celltest\OneDrive - store-dot.com\Documents\EC-Lab\Data\Gyutae\
	Host : 169.254.61.224
Device : VMP-3e (SN .003165)
Address : USB
EC-LAB for windows v11.62 (software)
Internet server v27.00 (firmware)
Command interpretor v12.03 (firmware)
Electrode material :
Initial state :
Electrolyte :
Comments :
Electrode surface area : 0.001 cm²
Characteristic mass : 0.001 g
Equivalent Weight : 0.000 g/eq.
Density : 0.000 g/cm3
Volume (V) : 0.001 cm³
Record Ece
Cycle Definition : Charge/Discharge alternance
Mode                Single sine
E (V)               0.0000
vs.                 Eoc
tE (h:m:s)          0:00:0.0000
record              0
dI                  0.000
unit dI             mA
dt (s)              0.000
fi                  100.000
unit fi             kHz
ff                  10.000
unit ff             mHz
Nd                  6
Points              per decade
spacing             Logarithmic
Va (mV)             5.0
pw                  0.10
Na                  2
corr                0
E range min (V)     -10.000
E range max (V)     10.000
I Range             Auto
Bandwidth           5
nc cycles           0
goto Ns'            0
nr cycles           0
inc. cycle          0

freq/Hz	Re(Z)/Ohm	-Im(Z)/Ohm	|Z|/Ohm	Phase(Z)/deg	time/s	<Ewe>/V	<I>/mA	Cs/µF	Cp/µF	cycle number	I Range	|Ewe|/V	|I|/A	Ns	(Q-Qo)/mA.h	<Ece>/V	|Ece|/V	Phase(Zce)/deg	|Zce|/Ohm	Re(Zce)/Ohm	-Im(Zce)/Ohm	Phase(Zwe-ce)/deg	|Zwe-ce|/Ohm	Re(Zwe-ce)/Ohm	-Im(Zwe-ce)/Ohm	Re(Y)/Ohm-1	Im(Y)/Ohm-1	|Y|/Ohm-1	Phase(Y)/deg	Re(C)/nF	Im(C)/nF	|C|/nF	Phase(C)/deg	Re(M)	Im(M)	|M|	Phase(M)/deg	Re(Permittivity)	Im(Permittivity)	|Permittivity|	Phase(Permittivity)/deg	Re(Resistivity)/Ohm.cm	Im(Resistivity)/Ohm.cm	|Resistivity|/Ohm.cm	Phase(Resistivity)/deg	Re(Conductivity)/mS/cm	Im(Conductivity)/mS/cm	|Conductivity|/mS/cm	Phase(Conductivity)/deg	Tan(Delta)	Loss Angle(Delta)/deg	dq/mA.h	Pwe/W	Pce/W	Pwe-ce/W	<Ewe-Ece>/V	Rwe/Ohm	Rce/Ohm	Rwe-ce/Ohm		Ewe-Ece/V
100004	1.89367	0.00436252	1.89368	-0.131994	1.77853	0.269542	0.0342656	364.81	0.00193611	1	9	0.00148818	0.00078587	0	2.61767e-06	0.000216278	2.78532e-05	54.3044	0.0354425	0.0206799	-0.0287838	0.730881	1.91451	1.91435	-0.0244213	0.528072	0.00121654	0.528073	0.131994	1.93614	840.422	840.424	-89.868	0.0000000E+000	0.0000000E+000	0.0000000E+000	89.868	0.0000000E+000	0.0000000E+000	0.0000000E+000	-89.868	0.0000000E+000	0.0000000E+000	0.0000000E+000	-0.131994	0.0000000E+000	0.0000000E+000	0.0000000E+000	0.131994	434.077	89.868	2.61767e-06	9.23603e-06	7.41089e-09	9.22862e-06	0.269326	7866.26	6.3118	7859.95
31621.1	2.10245	0.876579	2.27787	-22.6328	3.30054	0.269546	-0.0161806	5.74185	0.85031	1	9	0.0052246	0.00229364	0	4.03149e-05	0.000178102	1.13893e-05	5.99979	0.00496562	0.00493842	-0.00051903	-22.5731	2.28223	2.10739	0.87606	0.405199	0.168941	0.439007	22.6328	850.31	2039.44	2209.6	-67.3671	0.0000000E+000	0.0000000E+000	0.0000000E+000	67.3671	0.0000000E+000	0.0000000E+000	0.0000000E+000	-67.3671	0.0000000E+000	0.0000000E+000	0.0000000E+000	-22.6328	0.0000000E+000	0.0000000E+000	0.0000000E+000	22.6328	2.39847	67.3671	3.21757e-05	-4.3614e-06	-2.88179e-09	-4.35852e-06	0.269368	16658.6	11.0071	16647.6
10002.2	2.82616	1.227	3.08102	-23.4684	4.32553	0.269547	-0.0169246	12.9682	2.05673	1	9	0.00490115	0.00159076	0	3.98885e-05	0.00019719	1.39134e-05	-62.0612	0.00874638	0.00409792	0.00772698	-23.5697	3.08786	2.83025	1.23472	0.297719	0.129257	0.324568	23.4684	2056.73	4737.3	5164.51	-66.5316	0.0000000E+000	0.0000000E+000	0.0000000E+000	66.5316	0.0000000E+000	0.0000000E+000	0.0000000E+000	-66.5316	0.0000000E+000	0.0000000E+000	0.0000000E+000	-23.4684	0.0000000E+000	0.0000000E+000	0.0000000E+000	23.4684	2.30331	66.5316	-2.70365e-06	-4.56198e-06	-3.33736e-09	-4.55864e-06	0.26935	15926.3	11.651	15914.6
3163.08	3.77207	1.77006	4.16673	-25.1386	5.43366	0.269465	-0.0317422	28.4264	5.1299	1	10	0.00476091	0.0011426	0	3.32507e-05	0.000139925	1.09069e-05	66.8455	0.00954566	0.00375346	-0.00877674	-25.0074	4.16641	3.77582	1.76129	0.217265	0.101953	0.239997	25.1386	5129.9	10932	12075.8	-64.8614	0.0000000E+000	0.0000000E+000	0.0000000E+000	64.8614	0.0000000E+000	0.0000000E+000	0.0000000E+000	-64.8614	0.0000000E+000	0.0000000E+000	0.0000000E+000	-25.1386	0.0000000E+000	0.0000000E+000	0.0000000E+000	25.1386	2.13104	64.8614	-2.54905e-06	-8.5534e-06	-4.44154e-09	-8.54896e-06	0.269325	8489.17	4.40819	8484.76
1000.32	5.04871	2.69339	5.72222	-28.079	6.78678	0.269498	-0.0142212	59.0721	13.0873	1	10	0.00457751	0.000799954	0	2.80779e-05	-8.91312e-05	5.9751e-06	33.0991	0.0074693	0.00625724	-0.0040789	-28.0135	5.72583	5.05497	2.68931	0.154188	0.0822563	0.174757	28.079	13087.3	24532	27804.6	-61.921	0.0000000E+000	0.0000000E+000	0.0000000E+000	61.921	0.0000000E+000	0.0000000E+000	0.0000000E+000	-61.921	0.0000000E+000	0.0000000E+000	0.0000000E+000	-28.079	0.0000000E+000	0.0000000E+000	0.0000000E+000	28.079	1.87448	61.921	-1.64958e-06	-3.83258e-06	1.26755e-09	-3.83384e-06	0.269587	18950.5	6.2675	18956.7
316.316	6.80735	4.87444	8.37259	-35.6048	8.13602	0.269495	-0.0154711	103.222	34.9868	1	10	0.00450732	0.000538343	0	2.23103e-05	-7.00431e-05	7.79262e-06	-84.1699	0.0144752	0.00147039	0.0144003	-35.679	8.38217	6.80882	4.88884	0.0971089	0.0695354	0.119437	35.6048	34986.8	48860.5	60095.2	-54.3952	0.0000000E+000	0.0000000E+000	0.0000000E+000	54.3952	0.0000000E+000	0.0000000E+000	0.0000000E+000	-54.3952	0.0000000E+000	0.0000000E+000	0.0000000E+000	-35.6048	0.0000000E+000	0.0000000E+000	0.0000000E+000	35.6048	1.39654	54.3952	-2.00926e-06	-4.16939e-06	1.08364e-09	-4.17047e-06	0.269565	17419.3	4.52736	17423.8
100.032	11.3757	9.63642	14.9086	-40.2681	9.69677	0.269494	-0.0150359	165.107	68.9796	1	10	0.00487032	0.000326677	0	1.61235e-05	0.00019719	1.77164e-05	-60.8084	0.0542323	0.0264508	0.0473444	-40.341	14.9594	11.4022	9.68377	0.0511803	0.043355	0.0670752	40.2681	68979.6	81429.9	106719	-49.7319	0.0000000E+000	0.0000000E+000	0.0000000E+000	49.7319	0.0000000E+000	0.0000000E+000	0.0000000E+000	-49.7319	0.0000000E+000	0.0000000E+000	0.0000000E+000	-40.2681	0.0000000E+000	0.0000000E+000	0.0000000E+000	40.2681	1.18049	49.7319	-2.06924e-06	-4.05207e-06	-2.96492e-09	-4.04911e-06	0.269297	17923.4	13.1146	17910.3
[...]
1.00006	41.6272	4.68471	41.89	-6.42103	19.4356	0.26955	-0.00505989	33971.1	424.869	1	12	0.00487182	0.0001163	0	1.24367e-06	8.26613e-05	4.74419e-06	30.944	0.0407926	0.0349866	-0.0209755	-6.38719	41.9224	41.6622	4.66373	0.0237223	0.0026697	0.0238721	6.42103	424869	3.77528e+06	3.79911e+06	-83.579	0.0000000E+000	0.0000000E+000	0.0000000E+000	83.579	0.0000000E+000	0.0000000E+000	0.0000000E+000	-83.579	0.0000000E+000	0.0000000E+000	0.0000000E+000	-6.42103	0.0000000E+000	0.0000000E+000	0.0000000E+000	6.42103	8.88576	83.579	7.85361e-07	-1.36389e-06	-4.18257e-10	-1.36348e-06	0.269468	53272	16.3366	53255.6
0.316193	44.0737	3.97541	44.2527	-5.15407	33.776	0.269563	-0.00315885	126615	1021.81	1	12	0.00487239	0.000110104	0	-1.56264e-05	0.000139925	3.10604e-06	-4.43146	0.0282101	0.0281258	0.0021797	-5.15361	44.2809	44.1019	3.97759	0.0225061	0.00203003	0.0225975	5.15407	1.02181e+06	1.13284e+07	1.13744e+07	-84.8459	0.0000000E+000	0.0000000E+000	0.0000000E+000	84.8459	0.0000000E+000	0.0000000E+000	0.0000000E+000	-84.8459	0.0000000E+000	0.0000000E+000	0.0000000E+000	-5.15407	0.0000000E+000	0.0000000E+000	0.0000000E+000	5.15407	11.0866	84.8459	-1.20401e-05	-8.51509e-07	-4.42004e-10	-8.51067e-07	0.269423	85335.6	44.2963	85291.3
0.0999041	46.2869	5.04325	46.5608	-6.21822	78.9851	0.269551	-0.00280554	315883	3706.01	1	12	0.00487696	0.000104744	0	-9.81918e-05	0.000216278	3.57335e-06	30.2859	0.0341152	0.0294591	-0.0172048	-6.19326	46.5882	46.3163	5.02605	0.0213509	0.00232632	0.0214773	6.21822	3.70601e+06	3.40137e+07	3.4215e+07	-83.7818	0.0000000E+000	0.0000000E+000	0.0000000E+000	83.7818	0.0000000E+000	0.0000000E+000	0.0000000E+000	-83.7818	0.0000000E+000	0.0000000E+000	0.0000000E+000	-6.21822	0.0000000E+000	0.0000000E+000	0.0000000E+000	6.21822	9.17798	83.7818	-2.99382e-05	-7.56238e-07	-6.06776e-10	-7.55631e-07	0.269335	96078.1	77.0894	96001.1
0.0315922	49.3464	9.31036	50.217	-10.6846	221.87	0.269544	-0.00150237	541095	18599.6	1	12	0.00487129	9.70046e-05	0	-4.81146e-05	0.000120837	2.11305e-06	-14.1436	0.021783	0.0211227	0.00532273	-10.6861	50.2388	49.3675	9.31568	0.0195683	0.00369202	0.0199136	10.6846	1.85996e+07	9.85811e+07	1.0032e+08	-79.3154	0.0000000E+000	0.0000000E+000	0.0000000E+000	79.3154	0.0000000E+000	0.0000000E+000	0.0000000E+000	-79.3154	0.0000000E+000	0.0000000E+000	0.0000000E+000	-10.6846	0.0000000E+000	0.0000000E+000	0.0000000E+000	10.6846	5.30016	79.3154	5.58575e-05	-4.04956e-07	-1.81543e-10	-4.04774e-07	0.269423	179412	80.431	179332
0.0100092	55.3546	19.8699	58.8128	-19.746	673.093	0.269548	0.000371783	800250	91343	1	12	0.00487135	8.28281e-05	0	-2.43403e-06	0.000101749	3.90494e-06	-22.8988	0.0471451	0.0434298	0.0183444	-19.7485	58.8599	55.398	19.8883	0.0160033	0.00574451	0.0170031	19.746	9.1343e+07	2.54467e+08	2.70365e+08	-70.254	0.0000000E+000	0.0000000E+000	0.0000000E+000	70.254	0.0000000E+000	0.0000000E+000	0.0000000E+000	-70.254	0.0000000E+000	0.0000000E+000	0.0000000E+000	-19.746	0.0000000E+000	0.0000000E+000	0.0000000E+000	19.746	2.78584	70.254	-8.36416e-05	1.00213e-07	3.78287e-11	1.00176e-07	0.269447	725016	273.68	724742