Folder: EIS/txt (part 31)

File: 17467_C08.mpt
EC-Lab ASCII FILE
Nb header lines : 64

Potentio Electrochemical Impedance Spectroscopy

Run on channel : 8 (SN 65398)
User :
CE vs. WE compliance from -10 V to 10 V
Electrode connection : standard
Potential control : Ewe
Ewe ctrl range : min = -10.00 V, max = 10.00 V
Safety Limits :
	Do not start on E overload
Acquisition started on : 09/12/2025 10:01:20.182
Technique started on : 09/12/2025 10:01:22.206
Loaded Setting File :  C:\Users\Celltest\OneDrive - store-dot.com\Documents\EC-Lab\Data\Charmaine\R279\17383_C02.mpr
Saved on :
	File : 17467_C08.mpr
	Directory : C:\Users\Celltest\OneDrive - store-dot.com\Documents\EC-Lab\Data\Gyutae\R277\
	Host : 169.254.61.224
Device : VMP-3e (SN .003165)
Address : USB
EC-LAB for windows v11.62 (software)
Internet server v27.00 (firmware)
Command interpretor v12.03 (firmware)
Electrode material :
Initial state :
Electrolyte :
Comments :
Electrode surface area : 0.001 cm²
Characteristic mass : 0.001 g
Equivalent Weight : 0.000 g/eq.
Density : 0.000 g/cm3
Volume (V) : 0.001 cm³
Cycle Definition : Charge/Discharge alternance
Mode                Single sine
E (V)               0.0000
vs.                 Eoc
tE (h:m:s)          0:00:0.0000
record              0
dI                  0.000
unit dI             mA
dt (s)              0.000
fi                  100.000
unit fi             kHz
ff                  10.000
unit ff             mHz
Nd                  6
Points              per decade
spacing             Logarithmic
Va (mV)             5.0
pw                  0.10
Na                  2
corr                0
E range min (V)     -10.000
E range max (V)     10.000
I Range             Auto
Bandwidth           5
nc cycles           0
goto Ns'            0
nr cycles           0
inc. cycle          0

freq/Hz	Re(Z)/Ohm	-Im(Z)/Ohm	|Z|/Ohm	Phase(Z)/deg	time/s	<Ewe>/V	<I>/mA	Cs/µF	Cp/µF	cycle number	I Range	|Ewe|/V	|I|/A	Ns	(Q-Qo)/mA.h	Re(Y)/Ohm-1	Im(Y)/Ohm-1	|Y|/Ohm-1	Phase(Y)/deg	Re(C)/nF	Im(C)/nF	|C|/nF	Phase(C)/deg	Re(M)	Im(M)	|M|	Phase(M)/deg	Re(Permittivity)	Im(Permittivity)	|Permittivity|	Phase(Permittivity)/deg	Re(Resistivity)/Ohm.cm	Im(Resistivity)/Ohm.cm	|Resistivity|/Ohm.cm	Phase(Resistivity)/deg	Re(Conductivity)/mS/cm	Im(Conductivity)/mS/cm	|Conductivity|/mS/cm	Phase(Conductivity)/deg	Tan(Delta)	Loss Angle(Delta)/deg	dq/mA.h	Pwe/W	Rwe/Ohm
100004	1.82463	0.341054	1.85623	-10.5874	2.0245	0.276844	0.00660581	4.66639	0.157531	1	9	0.00491564	0.00264819	0	-5.43235e-06	0.529556	0.0989832	0.538727	10.5874	157.531	842.783	857.38	-79.4126	0.0000000E+000	0.0000000E+000	0.0000000E+000	79.4126	0.0000000E+000	0.0000000E+000	0.0000000E+000	-79.4126	0.0000000E+000	0.0000000E+000	0.0000000E+000	-10.5874	0.0000000E+000	0.0000000E+000	0.0000000E+000	10.5874	5.34996	79.4126	-5.43235e-06	1.82878e-06	41909.1
46420.4	1.99798	0.443138	2.04654	-12.5053	2.8985	0.27685	0.00774047	7.737	0.362754	1	9	0.00529157	0.00258562	0	2.74621e-06	0.477038	0.105803	0.48863	12.5053	362.754	1635.55	1675.3	-77.4947	0.0000000E+000	0.0000000E+000	0.0000000E+000	77.4947	0.0000000E+000	0.0000000E+000	0.0000000E+000	-77.4947	0.0000000E+000	0.0000000E+000	0.0000000E+000	-12.5053	0.0000000E+000	0.0000000E+000	0.0000000E+000	12.5053	4.50872	77.4947	5.55754e-06	2.14295e-06	35766.6
21544.7	2.22903	0.572453	2.30136	-14.4033	3.77349	0.276858	0.0165388	12.9045	0.798454	1	9	0.00512423	0.00222661	0	5.70862e-06	0.420868	0.108086	0.434525	14.4033	798.454	3109.03	3209.93	-75.5967	0.0000000E+000	0.0000000E+000	0.0000000E+000	75.5967	0.0000000E+000	0.0000000E+000	0.0000000E+000	-75.5967	0.0000000E+000	0.0000000E+000	0.0000000E+000	-14.4033	0.0000000E+000	0.0000000E+000	0.0000000E+000	14.4033	3.89382	75.5967	3.08768e-06	4.57889e-06	16739.9
10002.2	2.49899	0.734862	2.6048	-16.3867	4.78849	0.276854	0.00612216	21.653	1.72338	1	9	0.0053731	0.00206277	0	1.28728e-05	0.368312	0.108307	0.383907	16.3867	1723.38	5860.57	6108.7	-73.6133	0.0000000E+000	0.0000000E+000	0.0000000E+000	73.6133	0.0000000E+000	0.0000000E+000	0.0000000E+000	-73.6133	0.0000000E+000	0.0000000E+000	0.0000000E+000	-16.3867	0.0000000E+000	0.0000000E+000	0.0000000E+000	16.3867	3.40063	73.6133	2.23692e-06	1.69495e-06	45221.7
4641.49	2.86345	0.9571	3.01917	-18.4821	5.81569	0.276882	0.019701	35.8266	3.60036	1	9	0.00533465	0.00176693	0	1.12704e-05	0.314134	0.104998	0.331217	18.4821	3600.36	10771.5	11357.3	-71.5179	0.0000000E+000	0.0000000E+000	0.0000000E+000	71.5179	0.0000000E+000	0.0000000E+000	0.0000000E+000	-71.5179	0.0000000E+000	0.0000000E+000	0.0000000E+000	-18.4821	0.0000000E+000	0.0000000E+000	0.0000000E+000	18.4821	2.9918	71.5179	3.79909e-06	5.45484e-06	14054.2
2155.69	3.34404	1.26791	3.57634	-20.7644	6.74968	0.276876	0.0224167	58.23	7.31886	1	9	0.00527358	0.00147458	0	1.63963e-05	0.261453	0.099131	0.279616	20.7644	7318.86	19303.1	20644.1	-69.2356	0.0000000E+000	0.0000000E+000	0.0000000E+000	69.2356	0.0000000E+000	0.0000000E+000	0.0000000E+000	-69.2356	0.0000000E+000	0.0000000E+000	0.0000000E+000	-20.7644	0.0000000E+000	0.0000000E+000	0.0000000E+000	20.7644	2.63745	69.2356	2.88074e-06	6.20666e-06	12351.3
1000.32	3.97713	1.65475	4.30764	-22.5906	7.9397	0.27688	-0.0167805	96.1497	14.1885	1	10	0.00524999	0.00121876	0	1.31212e-05	0.214334	0.0891774	0.232146	22.5906	14188.5	34101.4	36935.3	-67.4094	0.0000000E+000	0.0000000E+000	0.0000000E+000	67.4094	0.0000000E+000	0.0000000E+000	0.0000000E+000	-67.4094	0.0000000E+000	0.0000000E+000	0.0000000E+000	-22.5906	0.0000000E+000	0.0000000E+000	0.0000000E+000	22.5906	2.40346	67.4094	-3.08479e-06	-4.64618e-06	16500.1
463.961	4.78943	2.1787	5.26169	-24.4607	8.87418	0.276879	-0.0163267	157.449	26.9952	1	10	0.00517133	0.000982828	0	8.61591e-06	0.172995	0.0786952	0.190053	24.4607	26995.2	59343.4	65195	-65.5393	0.0000000E+000	0.0000000E+000	0.0000000E+000	65.5393	0.0000000E+000	0.0000000E+000	0.0000000E+000	-65.5393	0.0000000E+000	0.0000000E+000	0.0000000E+000	-24.4607	0.0000000E+000	0.0000000E+000	0.0000000E+000	24.4607	2.19829	65.5393	-1.84309e-06	-4.52052e-06	16958.7
215.345	5.91378	2.93472	6.60192	-26.3929	9.80843	0.276877	-0.0167303	251.837	49.7636	1	10	0.00513906	0.000778419	0	3.35613e-06	0.135683	0.0673326	0.151471	26.3929	49763.6	100279	111948	-63.6071	0.0000000E+000	0.0000000E+000	0.0000000E+000	63.6071	0.0000000E+000	0.0000000E+000	0.0000000E+000	-63.6071	0.0000000E+000	0.0000000E+000	0.0000000E+000	-26.3929	0.0000000E+000	0.0000000E+000	0.0000000E+000	26.3929	2.01511	63.6071	-2.72844e-06	-4.63224e-06	16549.5
100.032	7.58368	3.85557	8.5075	-26.9489	10.7397	0.276873	-0.0167191	412.66	84.7549	1	10	0.00512352	0.000602235	0	2.52328e-07	0.104779	0.0532701	0.117543	26.9489	84754.9	166708	187016	-63.0511	0.0000000E+000	0.0000000E+000	0.0000000E+000	63.0511	0.0000000E+000	0.0000000E+000	0.0000000E+000	-63.0511	0.0000000E+000	0.0000000E+000	0.0000000E+000	-26.9489	0.0000000E+000	0.0000000E+000	0.0000000E+000	26.9489	1.96694	63.0511	-1.38868e-06	-4.62908e-06	16560.3
46.4415	9.98916	4.56226	10.9817	-24.5472	11.6735	0.27687	-0.0172065	751.161	129.645	1	10	0.00512062	0.000466287	0	-3.1595e-06	0.0828305	0.0378305	0.0910607	24.5472	129645	283860	312064	-65.4528	0.0000000E+000	0.0000000E+000	0.0000000E+000	65.4528	0.0000000E+000	0.0000000E+000	0.0000000E+000	-65.4528	0.0000000E+000	0.0000000E+000	0.0000000E+000	-24.5472	0.0000000E+000	0.0000000E+000	0.0000000E+000	24.5472	2.18952	65.4528	-1.91798e-06	-4.76394e-06	16091
[...]
1.00006	18.6025	1.84016	18.6933	-5.6493	21.0171	0.276904	-0.00984527	86484.4	838.057	1	12	0.00511514	0.000273634	0	-4.36256e-05	0.0532352	0.005266	0.053495	5.6493	838057	8.4721e+06	8.51345e+06	-84.3507	0.0000000E+000	0.0000000E+000	0.0000000E+000	84.3507	0.0000000E+000	0.0000000E+000	0.0000000E+000	-84.3507	0.0000000E+000	0.0000000E+000	0.0000000E+000	-5.6493	0.0000000E+000	0.0000000E+000	0.0000000E+000	5.6493	10.1092	84.3507	-1.90367e-05	-2.7262e-06	28125.6
0.464091	19.2206	1.68517	19.2943	-5.01062	28.7019	0.27692	-0.00963619	203504	1552.4	1	12	0.00512029	0.000265378	0	-5.91049e-05	0.0516307	0.00452674	0.0518287	5.01062	1.5524e+06	1.77062e+07	1.77741e+07	-84.9894	0.0000000E+000	0.0000000E+000	0.0000000E+000	84.9894	0.0000000E+000	0.0000000E+000	0.0000000E+000	-84.9894	0.0000000E+000	0.0000000E+000	0.0000000E+000	-5.01062	0.0000000E+000	0.0000000E+000	0.0000000E+000	5.01062	11.4057	84.9894	-3.38985e-06	-2.66845e-06	28737.4
0.215268	19.7135	1.92899	19.8077	-5.58868	45.182	0.276921	-0.00671428	383275	3635.01	1	12	0.00511395	0.000258181	0	-3.99587e-05	0.0502455	0.0049166	0.0504855	5.58868	3.63501e+06	3.71483e+07	3.73257e+07	-84.4113	0.0000000E+000	0.0000000E+000	0.0000000E+000	84.4113	0.0000000E+000	0.0000000E+000	0.0000000E+000	-84.4113	0.0000000E+000	0.0000000E+000	0.0000000E+000	-5.58868	0.0000000E+000	0.0000000E+000	0.0000000E+000	5.58868	10.2196	84.4113	1.27611e-05	-1.85932e-06	41243.6
0.0999041	20.4292	2.80641	20.6211	-7.8219	80.5885	0.276913	-0.00210935	567657	10513.9	1	12	0.00511379	0.000247989	0	-6.59056e-05	0.0480429	0.00659977	0.0484941	7.8219	1.05139e+07	7.65361e+07	7.72549e+07	-82.1781	0.0000000E+000	0.0000000E+000	0.0000000E+000	82.1781	0.0000000E+000	0.0000000E+000	0.0000000E+000	-82.1781	0.0000000E+000	0.0000000E+000	0.0000000E+000	-7.8219	0.0000000E+000	0.0000000E+000	0.0000000E+000	7.8219	7.27948	82.1781	-2.9135e-05	-5.84107e-07	131279
0.0464052	21.4086	4.3909	21.8543	-11.5906	156.825	0.27691	-0.00180907	781088	31530.8	1	12	0.00511604	0.000234098	0	-0.000308447	0.0448246	0.00919351	0.0457577	11.5906	3.15308e+07	1.53734e+08	1.56934e+08	-78.4094	0.0000000E+000	0.0000000E+000	0.0000000E+000	78.4094	0.0000000E+000	0.0000000E+000	0.0000000E+000	-78.4094	0.0000000E+000	0.0000000E+000	0.0000000E+000	-11.5906	0.0000000E+000	0.0000000E+000	0.0000000E+000	11.5906	4.87568	78.4094	-0.00016422	-5.00951e-07	153067
0.0215268	23.1439	7.37707	24.2911	-17.6796	321.055	0.276905	-0.00260709	1.00221e+06	92433.5	1	12	0.00511847	0.000210713	0	-0.000675332	0.0392229	0.0125023	0.0411673	17.6796	9.24335e+07	2.89989e+08	3.04364e+08	-72.3204	0.0000000E+000	0.0000000E+000	0.0000000E+000	72.3204	0.0000000E+000	0.0000000E+000	0.0000000E+000	-72.3204	0.0000000E+000	0.0000000E+000	0.0000000E+000	-17.6796	0.0000000E+000	0.0000000E+000	0.0000000E+000	17.6796	3.13727	72.3204	-0.000151545	-7.21915e-07	106212
0.0100092	25.3196	12.684	28.319	-26.6088	674.272	0.276903	-0.00153083	1.25362e+06	251490	1	12	0.00511891	0.000180759	0	-0.000210673	0.0315719	0.0158161	0.0353119	26.6088	2.5149e+08	5.02022e+08	5.61492e+08	-63.3912	0.0000000E+000	0.0000000E+000	0.0000000E+000	63.3912	0.0000000E+000	0.0000000E+000	0.0000000E+000	-63.3912	0.0000000E+000	0.0000000E+000	0.0000000E+000	-26.6088	0.0000000E+000	0.0000000E+000	0.0000000E+000	26.6088	1.99619	63.3912	0.000393287	-4.2389e-07	180885

File: 17468_R277_UA656_SOC00_C05.mpt
EC-Lab ASCII FILE
Nb header lines : 63

Potentio Electrochemical Impedance Spectroscopy

Run on channel : 5 (SN 65912)
User :
CE vs. WE compliance from -10 V to 10 V
Electrode connection : standard
Potential control : Ewe
Ewe ctrl range : min = -10.00 V, max = 10.00 V
Safety Limits :
	Do not start on E overload
Acquisition started on : 09/12/2025 10:00:42.666
Loaded Setting File :  C:\Users\Celltest\OneDrive - store-dot.com\Documents\EC-Lab\Data\Charmaine\R279\17382_C01.mpr
Saved on :
	File : 17468_C05.mpr
	Directory : C:\Users\Celltest\OneDrive - store-dot.com\Documents\EC-Lab\Data\Gyutae\R277\
	Host : 169.254.61.224
Device : VMP-3e (SN .003165)
Address : USB
EC-LAB for windows v11.62 (software)
Internet server v27.00 (firmware)
Command interpretor v12.03 (firmware)
Electrode material :
Initial state :
Electrolyte :
Comments :
Electrode surface area : 0.001 cm²
Characteristic mass : 0.001 g
Equivalent Weight : 0.000 g/eq.
Density : 0.000 g/cm3
Volume (V) : 0.001 cm³
Cycle Definition : Charge/Discharge alternance
Mode                Single sine
E (V)               0.0000
vs.                 Eoc
tE (h:m:s)          0:00:0.0000
record              0
dI                  0.000
unit dI             mA
dt (s)              0.000
fi                  100.000
unit fi             kHz
ff                  10.000
unit ff             mHz
Nd                  6
Points              per decade
spacing             Logarithmic
Va (mV)             5.0
pw                  0.10
Na                  2
corr                0
E range min (V)     -10.000
E range max (V)     10.000
I Range             Auto
Bandwidth           5
nc cycles           0
goto Ns'            0
nr cycles           0
inc. cycle          0

freq/Hz	Re(Z)/Ohm	-Im(Z)/Ohm	|Z|/Ohm	Phase(Z)/deg	time/s	<Ewe>/V	<I>/mA	Cs/µF	Cp/µF	cycle number	I Range	|Ewe|/V	|I|/A	Ns	(Q-Qo)/mA.h	Re(Y)/Ohm-1	Im(Y)/Ohm-1	|Y|/Ohm-1	Phase(Y)/deg	Re(C)/nF	Im(C)/nF	|C|/nF	Phase(C)/deg	Re(M)	Im(M)	|M|	Phase(M)/deg	Re(Permittivity)	Im(Permittivity)	|Permittivity|	Phase(Permittivity)/deg	Re(Resistivity)/Ohm.cm	Im(Resistivity)/Ohm.cm	|Resistivity|/Ohm.cm	Phase(Resistivity)/deg	Re(Conductivity)/mS/cm	Im(Conductivity)/mS/cm	|Conductivity|/mS/cm	Phase(Conductivity)/deg	Tan(Delta)	Loss Angle(Delta)/deg	dq/mA.h	Pwe/W	Rwe/Ohm
100004	5.13274	1.3026	5.29545	-14.2401	2.0265	0.744022	-0.0276466	1.22178	0.0739283	1	10	0.00494702	0.000934203	0	-4.62641e-06	0.183039	0.0464523	0.188841	14.2401	73.9283	291.305	300.539	-75.7599	0.0000000E+000	0.0000000E+000	0.0000000E+000	75.7599	0.0000000E+000	0.0000000E+000	0.0000000E+000	-75.7599	0.0000000E+000	0.0000000E+000	0.0000000E+000	-14.2401	0.0000000E+000	0.0000000E+000	0.0000000E+000	14.2401	3.94037	75.7599	-4.62641e-06	-2.05697e-05	26911.9
46420.4	5.79041	1.59705	6.00661	-15.4193	2.90049	0.744032	-0.0253157	2.14681	0.151765	1	10	0.00535619	0.000891717	0	-9.86404e-06	0.160491	0.0442648	0.166483	15.4193	151.765	550.252	570.798	-74.5807	0.0000000E+000	0.0000000E+000	0.0000000E+000	74.5807	0.0000000E+000	0.0000000E+000	0.0000000E+000	-74.5807	0.0000000E+000	0.0000000E+000	0.0000000E+000	-15.4193	0.0000000E+000	0.0000000E+000	0.0000000E+000	15.4193	3.6257	74.5807	-2.71346e-06	-1.88357e-05	29390.1
21544.7	6.58889	1.98468	6.88131	-16.7632	3.77549	0.744018	-0.0275219	3.72211	0.30962	1	10	0.00520384	0.000756229	0	-1.595e-05	0.139146	0.041913	0.145321	16.7632	309.62	1027.9	1073.52	-73.2368	0.0000000E+000	0.0000000E+000	0.0000000E+000	73.2368	0.0000000E+000	0.0000000E+000	0.0000000E+000	-73.2368	0.0000000E+000	0.0000000E+000	0.0000000E+000	-16.7632	0.0000000E+000	0.0000000E+000	0.0000000E+000	16.7632	3.31987	73.2368	-2.26655e-06	-2.04768e-05	27033.7
10002.2	7.59196	2.477	7.98583	-18.0698	4.50849	0.74402	-0.0282349	6.42388	0.618031	1	10	0.00544491	0.000681822	0	-2.04208e-05	0.119046	0.0388407	0.125222	18.0698	618.031	1894.25	1992.52	-71.9302	0.0000000E+000	0.0000000E+000	0.0000000E+000	71.9302	0.0000000E+000	0.0000000E+000	0.0000000E+000	-71.9302	0.0000000E+000	0.0000000E+000	0.0000000E+000	-18.0698	0.0000000E+000	0.0000000E+000	0.0000000E+000	18.0698	3.06498	71.9302	-1.30922e-06	-2.10073e-05	26351.1
4641.49	8.85247	3.08147	9.37346	-19.1926	5.53469	0.744168	0.0027085	11.1277	1.2026	1	10	0.00500413	0.000533861	0	-2.09042e-05	0.100755	0.0350718	0.106684	19.1926	1202.6	3454.84	3658.17	-70.8074	0.0000000E+000	0.0000000E+000	0.0000000E+000	70.8074	0.0000000E+000	0.0000000E+000	0.0000000E+000	-70.8074	0.0000000E+000	0.0000000E+000	0.0000000E+000	-19.1926	0.0000000E+000	0.0000000E+000	0.0000000E+000	19.1926	2.87281	70.8074	3.56984e-08	2.01558e-06	274753
2155.69	10.4117	3.82646	11.0926	-20.1792	6.46868	0.744175	0.00365052	19.2947	2.29597	1	10	0.00493558	0.000444944	0	-2.01633e-05	0.0846169	0.031098	0.0901505	20.1792	2295.97	6247.28	6655.82	-69.8208	0.0000000E+000	0.0000000E+000	0.0000000E+000	69.8208	0.0000000E+000	0.0000000E+000	0.0000000E+000	-69.8208	0.0000000E+000	0.0000000E+000	0.0000000E+000	-20.1792	0.0000000E+000	0.0000000E+000	0.0000000E+000	20.1792	2.72097	69.8208	4.12538e-08	2.71663e-06	203855
1000.32	12.3679	4.72197	13.2386	-20.8965	7.40471	0.744164	0.00261168	33.6944	4.28666	1	10	0.00489725	0.000369922	0	-1.94278e-05	0.0705683	0.0269425	0.0755366	20.8965	4286.66	11227.7	12018.2	-69.1035	0.0000000E+000	0.0000000E+000	0.0000000E+000	69.1035	0.0000000E+000	0.0000000E+000	0.0000000E+000	-69.1035	0.0000000E+000	0.0000000E+000	0.0000000E+000	-20.8965	0.0000000E+000	0.0000000E+000	0.0000000E+000	20.8965	2.61922	69.1035	5.58408e-07	1.94352e-06	284936
463.961	14.7637	5.84407	15.8783	-21.5957	8.33919	0.744173	0.00297658	58.698	7.95146	1	10	0.00488437	0.000307613	0	-1.86176e-05	0.0585582	0.0231797	0.062979	21.5957	7951.46	20087.5	21604	-68.4043	0.0000000E+000	0.0000000E+000	0.0000000E+000	68.4043	0.0000000E+000	0.0000000E+000	0.0000000E+000	-68.4043	0.0000000E+000	0.0000000E+000	0.0000000E+000	-21.5957	0.0000000E+000	0.0000000E+000	0.0000000E+000	21.5957	2.52627	68.4043	1.95585e-07	2.21509e-06	250010
215.345	17.668	7.34049	19.1322	-22.5613	9.27345	0.744168	0.00295238	100.684	14.8211	1	10	0.00487531	0.000254822	0	-1.76949e-05	0.0482678	0.0200537	0.0522679	22.5613	14821.1	35673.3	38629.7	-67.4387	0.0000000E+000	0.0000000E+000	0.0000000E+000	67.4387	0.0000000E+000	0.0000000E+000	0.0000000E+000	-67.4387	0.0000000E+000	0.0000000E+000	0.0000000E+000	-22.5613	0.0000000E+000	0.0000000E+000	0.0000000E+000	22.5613	2.40693	67.4387	5.20064e-07	2.19706e-06	252057
100.032	21.3744	9.48821	23.3857	-23.9367	10.4587	0.744158	-0.00212969	167.686	27.6036	1	11	0.00487764	0.000208574	0	-1.73826e-05	0.0390835	0.0173494	0.0427612	23.9367	27603.6	62183.4	68034.8	-66.0633	0.0000000E+000	0.0000000E+000	0.0000000E+000	66.0633	0.0000000E+000	0.0000000E+000	0.0000000E+000	-66.0633	0.0000000E+000	0.0000000E+000	0.0000000E+000	-23.9367	0.0000000E+000	0.0000000E+000	0.0000000E+000	23.9367	2.25273	66.0633	6.59481e-08	-1.58483e-06	349420
46.4415	26.6745	12.1336	29.3045	-24.4596	11.3925	0.744155	-0.00233503	282.439	48.4209	1	11	0.00487099	0.00016622	0	-1.77075e-05	0.0310619	0.0141292	0.0341244	24.4596	48420.9	106449	116944	-65.5405	0.0000000E+000	0.0000000E+000	0.0000000E+000	65.5405	0.0000000E+000	0.0000000E+000	0.0000000E+000	-65.5405	0.0000000E+000	0.0000000E+000	0.0000000E+000	-24.4596	0.0000000E+000	0.0000000E+000	0.0000000E+000	24.4596	2.19841	65.5405	-2.3154e-07	-1.73763e-06	318692
[...]
1.00006	63.2657	9.58087	63.9871	-8.61136	19.9372	0.744175	-0.000704322	16610.7	372.403	1	12	0.00486859	7.60871e-05	0	-2.04074e-05	0.015452	0.00234002	0.0156282	8.61136	372403	2.4591e+06	2.48714e+06	-81.3886	0.0000000E+000	0.0000000E+000	0.0000000E+000	81.3886	0.0000000E+000	0.0000000E+000	0.0000000E+000	-81.3886	0.0000000E+000	0.0000000E+000	0.0000000E+000	-8.61136	0.0000000E+000	0.0000000E+000	0.0000000E+000	8.61136	6.60334	81.3886	1.24062e-06	-5.24139e-07	1.05658e+06
0.464091	66.7146	8.18627	67.215	-6.99555	27.6225	0.744173	-0.000338986	41892	621.399	1	12	0.00486974	7.24502e-05	0	-1.40346e-05	0.0147669	0.00181198	0.0148776	6.99555	621399	5.06414e+06	5.10212e+06	-83.0044	0.0000000E+000	0.0000000E+000	0.0000000E+000	83.0044	0.0000000E+000	0.0000000E+000	0.0000000E+000	-83.0044	0.0000000E+000	0.0000000E+000	0.0000000E+000	-6.99555	0.0000000E+000	0.0000000E+000	0.0000000E+000	6.99555	8.14958	83.0044	3.46961e-06	-2.52264e-07	2.19529e+06
0.215268	70.1886	9.18507	70.7871	-7.45552	44.1008	0.744182	8.12809e-05	80493	1355.24	1	12	0.00487416	6.88566e-05	0	-1.73749e-05	0.0140074	0.00183305	0.0141269	7.45552	1.35524e+06	1.03562e+07	1.04445e+07	-82.5445	0.0000000E+000	0.0000000E+000	0.0000000E+000	82.5445	0.0000000E+000	0.0000000E+000	0.0000000E+000	-82.5445	0.0000000E+000	0.0000000E+000	0.0000000E+000	-7.45552	0.0000000E+000	0.0000000E+000	0.0000000E+000	7.45552	7.64159	82.5445	-4.43262e-06	6.04878e-08	9.15568e+06
0.0999041	75.2373	11.9645	76.1827	-9.0357	79.5063	0.744182	5.46801e-07	133151	3284.11	1	12	0.00487207	6.39525e-05	0	-4.71821e-05	0.0129635	0.00206149	0.0131263	9.0357	3.28411e+06	2.06518e+07	2.09113e+07	-80.9643	0.0000000E+000	0.0000000E+000	0.0000000E+000	80.9643	0.0000000E+000	0.0000000E+000	0.0000000E+000	-80.9643	0.0000000E+000	0.0000000E+000	0.0000000E+000	-9.0357	0.0000000E+000	0.0000000E+000	0.0000000E+000	9.0357	6.28839	80.9643	-1.76978e-05	4.06919e-10	1.36097e+09
0.0464052	83.2843	16.5069	84.9044	-11.2107	155.743	0.744181	-0.000352358	207773	7853.4	1	12	0.00487049	5.73644e-05	0	-6.61341e-05	0.0115532	0.00228984	0.011778	11.2107	7.8534e+06	3.96238e+07	4.03946e+07	-78.7893	0.0000000E+000	0.0000000E+000	0.0000000E+000	78.7893	0.0000000E+000	0.0000000E+000	0.0000000E+000	-78.7893	0.0000000E+000	0.0000000E+000	0.0000000E+000	-11.2107	0.0000000E+000	0.0000000E+000	0.0000000E+000	11.2107	5.04543	78.7893	-2.4528e-06	-2.62218e-07	2.112e+06
0.0215268	92.9553	20.9777	95.293	-12.7172	319.973	0.744178	-0.000331355	352438	17079.6	1	12	0.00487052	5.1111e-05	0	1.503e-05	0.0102365	0.00231013	0.010494	12.7172	1.70796e+07	7.56821e+07	7.75854e+07	-77.2828	0.0000000E+000	0.0000000E+000	0.0000000E+000	77.2828	0.0000000E+000	0.0000000E+000	0.0000000E+000	-77.2828	0.0000000E+000	0.0000000E+000	0.0000000E+000	-12.7172	0.0000000E+000	0.0000000E+000	0.0000000E+000	12.7172	4.43115	77.2828	5.63522e-05	-2.46587e-07	2.24586e+06
0.0100092	102.797	28.1512	106.582	-15.3151	673.189	0.744174	0.000332513	564840	39405.3	1	12	0.00487136	4.57055e-05	0	0.000170806	0.00904929	0.00247818	0.00938249	15.3151	3.94053e+07	1.43892e+08	1.4919e+08	-74.6849	0.0000000E+000	0.0000000E+000	0.0000000E+000	74.6849	0.0000000E+000	0.0000000E+000	0.0000000E+000	-74.6849	0.0000000E+000	0.0000000E+000	0.0000000E+000	-15.3151	0.0000000E+000	0.0000000E+000	0.0000000E+000	15.3151	3.65159	74.6849	7.48808e-05	2.47447e-07	2.23803e+06