Folder: EIS/txt (part 32)

File: 17482_R279_UA653_SOC00_C01.mpt
EC-Lab ASCII FILE
Nb header lines : 63

Potentio Electrochemical Impedance Spectroscopy

Run on channel : 1 (SN 66354)
User :
CE vs. WE compliance from -10 V to 10 V
Electrode connection : standard
Potential control : Ewe
Ewe ctrl range : min = -10.00 V, max = 10.00 V
Safety Limits :
	Do not start on E overload
Acquisition started on : 09/15/2025 08:58:46.793
Loaded Setting File :  C:\Users\Celltest\OneDrive - store-dot.com\Documents\EC-Lab\Data\Gyutae\EIS_SOC0_C01.mpr
Saved on :
	File : 17482_C01.mpr
	Directory : C:\Users\Celltest\OneDrive - store-dot.com\Documents\EC-Lab\Data\Charmaine\R279\
	Host : 169.254.61.224
Device : VMP-3e (SN .003165)
Address : USB
EC-LAB for windows v11.62 (software)
Internet server v27.00 (firmware)
Command interpretor v12.03 (firmware)
Electrode material :
Initial state :
Electrolyte :
Comments :
Electrode surface area : 0.001 cm²
Characteristic mass : 0.001 g
Equivalent Weight : 0.000 g/eq.
Density : 0.000 g/cm3
Volume (V) : 0.001 cm³
Cycle Definition : Charge/Discharge alternance
Mode                Single sine
E (V)               0.0000
vs.                 Eoc
tE (h:m:s)          0:00:0.0000
record              0
dI                  0.000
unit dI             mA
dt (s)              0.000
fi                  100.000
unit fi             kHz
ff                  10.000
unit ff             mHz
Nd                  6
Points              per decade
spacing             Logarithmic
Va (mV)             5.0
pw                  0.10
Na                  2
corr                0
E range min (V)     -10.000
E range max (V)     10.000
I Range             Auto
Bandwidth           5
nc cycles           0
goto Ns'            0
nr cycles           0
inc. cycle          0

freq/Hz	Re(Z)/Ohm	-Im(Z)/Ohm	|Z|/Ohm	Phase(Z)/deg	time/s	<Ewe>/V	<I>/mA	Cs/µF	Cp/µF	cycle number	I Range	|Ewe|/V	|I|/A	Ns	(Q-Qo)/mA.h	Re(Y)/Ohm-1	Im(Y)/Ohm-1	|Y|/Ohm-1	Phase(Y)/deg	Re(C)/nF	Im(C)/nF	|C|/nF	Phase(C)/deg	Re(M)	Im(M)	|M|	Phase(M)/deg	Re(Permittivity)	Im(Permittivity)	|Permittivity|	Phase(Permittivity)/deg	Re(Resistivity)/Ohm.cm	Im(Resistivity)/Ohm.cm	|Resistivity|/Ohm.cm	Phase(Resistivity)/deg	Re(Conductivity)/mS/cm	Im(Conductivity)/mS/cm	|Conductivity|/mS/cm	Phase(Conductivity)/deg	Tan(Delta)	Loss Angle(Delta)/deg	dq/mA.h	Pwe/W	Rwe/Ohm
100004	1.3196	0.387029	1.37519	-16.346	1.86448	0.273886	0.0772796	4.11207	0.325704	1	9	0.00464091	0.00337474	0	1.10608e-05	0.69778	0.204653	0.727173	16.346	325.704	1110.51	1157.29	-73.654	0.0000000E+000	0.0000000E+000	0.0000000E+000	73.654	0.0000000E+000	0.0000000E+000	0.0000000E+000	-73.654	0.0000000E+000	0.0000000E+000	0.0000000E+000	-16.346	0.0000000E+000	0.0000000E+000	0.0000000E+000	16.346	3.40957	73.654	1.10608e-05	2.11658e-05	3544.1
46420.4	1.51922	0.471583	1.59073	-17.2449	3.02048	0.273899	0.0833334	7.27033	0.638966	1	9	0.00504763	0.00317316	0	4.5417e-05	0.600383	0.186366	0.628643	17.2449	638.966	2058.45	2155.34	-72.7551	0.0000000E+000	0.0000000E+000	0.0000000E+000	72.7551	0.0000000E+000	0.0000000E+000	0.0000000E+000	-72.7551	0.0000000E+000	0.0000000E+000	0.0000000E+000	-17.2449	0.0000000E+000	0.0000000E+000	0.0000000E+000	17.2449	3.22153	72.7551	1.94728e-05	2.28249e-05	3286.79
21544.7	1.76486	0.591264	1.86127	-18.5219	4.03548	0.273896	0.0808373	12.4939	1.26079	1	9	0.00512086	0.00275127	0	5.89315e-05	0.509438	0.170672	0.537267	18.5219	1260.79	3763.32	3968.9	-71.4781	0.0000000E+000	0.0000000E+000	0.0000000E+000	71.4781	0.0000000E+000	0.0000000E+000	0.0000000E+000	-71.4781	0.0000000E+000	0.0000000E+000	0.0000000E+000	-18.5219	0.0000000E+000	0.0000000E+000	0.0000000E+000	18.5219	2.9849	71.4781	9.42902e-06	2.2141e-05	3388.24
10002.2	2.05511	0.722341	2.17836	-19.3658	4.91049	0.273903	0.0796452	22.0283	2.42217	1	9	0.00496401	0.00227878	0	7.76517e-05	0.433087	0.152223	0.45906	19.3658	2422.17	6891.26	7304.54	-70.6342	0.0000000E+000	0.0000000E+000	0.0000000E+000	70.6342	0.0000000E+000	0.0000000E+000	0.0000000E+000	-70.6342	0.0000000E+000	0.0000000E+000	0.0000000E+000	-19.3658	0.0000000E+000	0.0000000E+000	0.0000000E+000	19.3658	2.84507	70.6342	9.03943e-06	2.18151e-05	3439.04
4641.49	2.39198	0.907148	2.55822	-20.769	5.75967	0.273924	0.134111	37.7994	4.75299	1	9	0.00457887	0.00178987	0	9.61851e-05	0.365496	0.138613	0.390897	20.769	4752.99	12532.7	13403.7	-69.231	0.0000000E+000	0.0000000E+000	0.0000000E+000	69.231	0.0000000E+000	0.0000000E+000	0.0000000E+000	-69.231	0.0000000E+000	0.0000000E+000	0.0000000E+000	-20.769	0.0000000E+000	0.0000000E+000	0.0000000E+000	20.769	2.63681	69.231	1.76204e-05	3.67363e-05	2042.52
2155.69	2.79929	1.19059	3.04196	-23.0409	6.91671	0.273914	0.135154	62.0115	9.49922	1	9	0.00498443	0.00163856	0	0.00013469	0.302511	0.128663	0.328735	23.0409	9499.22	22334.4	24270.6	-66.9591	0.0000000E+000	0.0000000E+000	0.0000000E+000	66.9591	0.0000000E+000	0.0000000E+000	0.0000000E+000	-66.9591	0.0000000E+000	0.0000000E+000	0.0000000E+000	-23.0409	0.0000000E+000	0.0000000E+000	0.0000000E+000	23.0409	2.35118	66.9591	2.14026e-05	3.70206e-05	2026.68
1000.32	3.33467	1.66822	3.72867	-26.5773	8.10771	0.273853	0.00537195	95.3733	19.091	1	10	0.00504885	0.00135406	0	0.000160774	0.239853	0.11999	0.268192	26.5773	19091	38161.5	42670.5	-63.4227	0.0000000E+000	0.0000000E+000	0.0000000E+000	63.4227	0.0000000E+000	0.0000000E+000	0.0000000E+000	-63.4227	0.0000000E+000	0.0000000E+000	0.0000000E+000	-26.5773	0.0000000E+000	0.0000000E+000	0.0000000E+000	26.5773	1.99893	63.4227	1.017e-05	1.47113e-06	50978.4
463.961	4.07621	2.47371	4.76809	-31.2521	9.0422	0.273859	0.0050328	138.672	37.3248	1	10	0.00498936	0.0010464	0	0.000162731	0.179294	0.108808	0.209727	31.2521	37324.9	61504.4	71943.9	-58.7479	0.0000000E+000	0.0000000E+000	0.0000000E+000	58.7479	0.0000000E+000	0.0000000E+000	0.0000000E+000	-58.7479	0.0000000E+000	0.0000000E+000	0.0000000E+000	-31.2521	0.0000000E+000	0.0000000E+000	0.0000000E+000	31.2521	1.64781	58.7479	3.02026e-07	1.37828e-06	54414.9
215.345	5.30606	3.72603	6.48364	-35.0773	9.97643	0.273856	0.00431349	198.354	65.508	1	10	0.00495189	0.000763751	0	0.000164181	0.126222	0.0886356	0.154234	35.0773	65508	93286.9	113990	-54.9227	0.0000000E+000	0.0000000E+000	0.0000000E+000	54.9227	0.0000000E+000	0.0000000E+000	0.0000000E+000	-54.9227	0.0000000E+000	0.0000000E+000	0.0000000E+000	-35.0773	0.0000000E+000	0.0000000E+000	0.0000000E+000	35.0773	1.42405	54.9227	1.07654e-06	1.18128e-06	63488.4
100.032	7.49644	5.35284	9.21138	-35.5288	10.9077	0.27385	0.00392215	297.233	100.373	1	10	0.00494088	0.000536388	0	0.000165487	0.0883498	0.0630862	0.108561	35.5288	100373	140568	172725	-54.4712	0.0000000E+000	0.0000000E+000	0.0000000E+000	54.4712	0.0000000E+000	0.0000000E+000	0.0000000E+000	-54.4712	0.0000000E+000	0.0000000E+000	0.0000000E+000	-35.5288	0.0000000E+000	0.0000000E+000	0.0000000E+000	35.5288	1.40046	54.4712	6.92093e-07	1.07408e-06	69821.2
46.4415	11.1028	6.67901	12.9569	-31.0295	11.8415	0.273849	0.000275339	513.1	136.341	1	10	0.00493861	0.000381157	0	0.000166913	0.0661349	0.0397843	0.0771791	31.0295	136341	226644	264492	-58.9705	0.0000000E+000	0.0000000E+000	0.0000000E+000	58.9705	0.0000000E+000	0.0000000E+000	0.0000000E+000	-58.9705	0.0000000E+000	0.0000000E+000	0.0000000E+000	-31.0295	0.0000000E+000	0.0000000E+000	0.0000000E+000	31.0295	1.66234	58.9705	4.31283e-07	7.54014e-08	994587
[...]
1.00006	21.532	1.58986	21.5906	-4.22287	21.1622	0.273913	0.00834976	100100	542.774	1	12	0.00493667	0.000228648	0	0.000177516	0.0461906	0.00341057	0.0463163	4.22287	542773	7.35099e+06	7.371e+06	-85.7771	0.0000000E+000	0.0000000E+000	0.0000000E+000	85.7771	0.0000000E+000	0.0000000E+000	0.0000000E+000	-85.7771	0.0000000E+000	0.0000000E+000	0.0000000E+000	-4.22287	0.0000000E+000	0.0000000E+000	0.0000000E+000	4.22287	13.5434	85.7771	1.24756e-06	2.28711e-06	32804.9
0.464091	22.1449	1.44027	22.1916	-3.7212	28.8486	0.273908	0.0063989	238107	1002.96	1	12	0.00493797	0.000222515	0	0.000206591	0.044967	0.0029246	0.045062	3.7212	1.00296e+06	1.5421e+07	1.54535e+07	-86.2788	0.0000000E+000	0.0000000E+000	0.0000000E+000	86.2788	0.0000000E+000	0.0000000E+000	0.0000000E+000	-86.2788	0.0000000E+000	0.0000000E+000	0.0000000E+000	-3.7212	0.0000000E+000	0.0000000E+000	0.0000000E+000	3.7212	15.3754	86.2788	2.07266e-05	1.75271e-06	42805.6
0.215268	22.7738	1.48274	22.822	-3.72513	45.3269	0.273908	0.00554291	498626	2104.75	1	12	0.00493673	0.000216315	0	0.000272527	0.0437248	0.00284682	0.0438174	3.72513	2.10475e+06	3.23273e+07	3.23957e+07	-86.2749	0.0000000E+000	0.0000000E+000	0.0000000E+000	86.2749	0.0000000E+000	0.0000000E+000	0.0000000E+000	-86.2749	0.0000000E+000	0.0000000E+000	0.0000000E+000	-3.72513	0.0000000E+000	0.0000000E+000	0.0000000E+000	3.72513	15.3592	86.2749	3.4141e-05	1.51825e-06	49415.9
0.0999041	23.3822	1.91404	23.4604	-4.67973	80.7334	0.273904	0.0049619	832312	5540.09	1	12	0.00493754	0.000210463	0	0.000289065	0.0424829	0.0034776	0.042625	4.67973	5.54009e+06	6.76786e+07	6.7905e+07	-85.3203	0.0000000E+000	0.0000000E+000	0.0000000E+000	85.3203	0.0000000E+000	0.0000000E+000	0.0000000E+000	-85.3203	0.0000000E+000	0.0000000E+000	0.0000000E+000	-4.67973	0.0000000E+000	0.0000000E+000	0.0000000E+000	4.67973	12.2162	85.3203	-5.95752e-06	1.35908e-06	55201.4
0.0464052	24.091	2.84949	24.259	-6.74562	156.97	0.273906	0.00170394	1.20361e+06	16606.4	1	12	0.00493452	0.00020341	0	0.000159271	0.0409365	0.00484198	0.0412218	6.74562	1.66064e+07	1.40399e+08	1.41378e+08	-83.2544	0.0000000E+000	0.0000000E+000	0.0000000E+000	83.2544	0.0000000E+000	0.0000000E+000	0.0000000E+000	-83.2544	0.0000000E+000	0.0000000E+000	0.0000000E+000	-6.74562	0.0000000E+000	0.0000000E+000	0.0000000E+000	6.74562	8.4545	83.2544	-8.90653e-05	4.66721e-07	160748
0.0215268	25.2697	4.97689	25.7552	-11.1418	321.199	0.273897	-0.00196435	1.48554e+06	55471.5	1	12	0.00493588	0.000191646	0	4.79749e-05	0.0380953	0.0075029	0.0388272	11.1418	5.54715e+07	2.81652e+08	2.87063e+08	-78.8582	0.0000000E+000	0.0000000E+000	0.0000000E+000	78.8582	0.0000000E+000	0.0000000E+000	0.0000000E+000	-78.8582	0.0000000E+000	0.0000000E+000	0.0000000E+000	-11.1418	0.0000000E+000	0.0000000E+000	0.0000000E+000	11.1418	5.07742	78.8582	-1.52183e-05	-5.38028e-07	139434
0.0100092	26.8765	8.61299	28.2229	-17.7688	674.415	0.273899	-0.00130637	1.84616e+06	171939	1	12	0.00493742	0.000174944	0	0.000649538	0.033742	0.0108131	0.0354322	17.7688	1.71939e+08	5.36528e+08	5.63405e+08	-72.2312	0.0000000E+000	0.0000000E+000	0.0000000E+000	72.2312	0.0000000E+000	0.0000000E+000	0.0000000E+000	-72.2312	0.0000000E+000	0.0000000E+000	0.0000000E+000	-17.7688	0.0000000E+000	0.0000000E+000	0.0000000E+000	17.7688	3.12046	72.2312	0.000420744	-3.57814e-07	209664

File: 17483_R279_UA653_SOC00_C02.mpt
EC-Lab ASCII FILE
Nb header lines : 63

Potentio Electrochemical Impedance Spectroscopy

Run on channel : 2 (SN 66139)
User :
CE vs. WE compliance from -10 V to 10 V
Electrode connection : standard
Potential control : Ewe
Ewe ctrl range : min = -10.00 V, max = 10.00 V
Safety Limits :
	Do not start on E overload
Acquisition started on : 09/15/2025 08:58:56.927
Loaded Setting File :  C:\Users\Celltest\OneDrive - store-dot.com\Documents\EC-Lab\Data\Charmaine\R279\17382_C01.mpr
Saved on :
	File : 17483_C02.mpr
	Directory : C:\Users\Celltest\OneDrive - store-dot.com\Documents\EC-Lab\Data\Charmaine\R279\
	Host : 169.254.61.224
Device : VMP-3e (SN .003165)
Address : USB
EC-LAB for windows v11.62 (software)
Internet server v27.00 (firmware)
Command interpretor v12.03 (firmware)
Electrode material :
Initial state :
Electrolyte :
Comments :
Electrode surface area : 0.001 cm²
Characteristic mass : 0.001 g
Equivalent Weight : 0.000 g/eq.
Density : 0.000 g/cm3
Volume (V) : 0.001 cm³
Cycle Definition : Charge/Discharge alternance
Mode                Single sine
E (V)               0.0000
vs.                 Eoc
tE (h:m:s)          0:00:0.0000
record              0
dI                  0.000
unit dI             mA
dt (s)              0.000
fi                  100.000
unit fi             kHz
ff                  10.000
unit ff             mHz
Nd                  6
Points              per decade
spacing             Logarithmic
Va (mV)             5.0
pw                  0.10
Na                  2
corr                0
E range min (V)     -10.000
E range max (V)     10.000
I Range             Auto
Bandwidth           5
nc cycles           0
goto Ns'            0
nr cycles           0
inc. cycle          0

freq/Hz	Re(Z)/Ohm	-Im(Z)/Ohm	|Z|/Ohm	Phase(Z)/deg	time/s	<Ewe>/V	<I>/mA	Cs/µF	Cp/µF	cycle number	I Range	|Ewe|/V	|I|/A	Ns	(Q-Qo)/mA.h	Re(Y)/Ohm-1	Im(Y)/Ohm-1	|Y|/Ohm-1	Phase(Y)/deg	Re(C)/nF	Im(C)/nF	|C|/nF	Phase(C)/deg	Re(M)	Im(M)	|M|	Phase(M)/deg	Re(Permittivity)	Im(Permittivity)	|Permittivity|	Phase(Permittivity)/deg	Re(Resistivity)/Ohm.cm	Im(Resistivity)/Ohm.cm	|Resistivity|/Ohm.cm	Phase(Resistivity)/deg	Re(Conductivity)/mS/cm	Im(Conductivity)/mS/cm	|Conductivity|/mS/cm	Phase(Conductivity)/deg	Tan(Delta)	Loss Angle(Delta)/deg	dq/mA.h	Pwe/W	Rwe/Ohm
100004	1.00455	0.237054	1.03214	-13.2778	2.02549	0.260177	-0.0102775	6.71361	0.354141	1	9	0.00492682	0.00477342	0	-9.47968e-06	0.942964	0.222522	0.968863	13.2778	354.142	1500.72	1541.94	-76.7222	0.0000000E+000	0.0000000E+000	0.0000000E+000	76.7222	0.0000000E+000	0.0000000E+000	0.0000000E+000	-76.7222	0.0000000E+000	0.0000000E+000	0.0000000E+000	-13.2778	0.0000000E+000	0.0000000E+000	0.0000000E+000	13.2778	4.23762	76.7222	-9.47968e-06	-2.67397e-06	25315.2
46420.4	1.12752	0.29302	1.16497	-14.5678	2.90148	0.260166	-0.0121584	11.7008	0.740246	1	9	0.00547122	0.00469643	0	-1.46414e-05	0.830791	0.215906	0.858388	14.5678	740.246	2848.42	2943.03	-75.4322	0.0000000E+000	0.0000000E+000	0.0000000E+000	75.4322	0.0000000E+000	0.0000000E+000	0.0000000E+000	-75.4322	0.0000000E+000	0.0000000E+000	0.0000000E+000	-14.5678	0.0000000E+000	0.0000000E+000	0.0000000E+000	14.5678	3.84793	75.4322	-3.63338e-06	-3.16321e-06	21398
21544.7	1.27082	0.360492	1.32096	-15.837	3.7755	0.260169	-0.00841526	20.492	1.52615	1	9	0.005391	0.00408113	0	-2.42917e-05	0.728291	0.206594	0.757026	15.837	1526.15	5380.03	5592.31	-74.163	0.0000000E+000	0.0000000E+000	0.0000000E+000	74.163	0.0000000E+000	0.0000000E+000	0.0000000E+000	-74.163	0.0000000E+000	0.0000000E+000	0.0000000E+000	-15.837	0.0000000E+000	0.0000000E+000	0.0000000E+000	15.837	3.52523	74.163	-3.58153e-06	-2.18939e-06	30916.3
10002.2	1.43805	0.454843	1.50827	-17.5517	4.65048	0.260172	-0.00943953	34.9834	3.18145	1	9	0.00528299	0.00350268	0	-3.24985e-05	0.632144	0.199941	0.663011	17.5517	3181.45	10058.7	10549.8	-72.4483	0.0000000E+000	0.0000000E+000	0.0000000E+000	72.4483	0.0000000E+000	0.0000000E+000	0.0000000E+000	-72.4483	0.0000000E+000	0.0000000E+000	0.0000000E+000	-17.5517	0.0000000E+000	0.0000000E+000	0.0000000E+000	17.5517	3.16165	72.4483	-5.44438e-07	-2.4559e-06	27561.9
4641.49	1.64931	0.594339	1.75313	-19.8169	5.9007	0.260164	-0.0138718	57.6937	6.63084	1	9	0.00510323	0.00291092	0	-3.96579e-05	0.536629	0.193377	0.570408	19.8169	6630.84	18400.8	19559.1	-70.1831	0.0000000E+000	0.0000000E+000	0.0000000E+000	70.1831	0.0000000E+000	0.0000000E+000	0.0000000E+000	-70.1831	0.0000000E+000	0.0000000E+000	0.0000000E+000	-19.8169	0.0000000E+000	0.0000000E+000	0.0000000E+000	19.8169	2.77503	70.1831	-3.32856e-07	-3.60895e-06	18754.9
2155.69	1.89434	0.825688	2.06647	-23.551	6.83469	0.260163	-0.00776348	89.4166	14.2755	1	9	0.00520261	0.00251764	0	-4.26309e-05	0.44361	0.193357	0.483918	23.551	14275.5	32751.8	35727.7	-66.449	0.0000000E+000	0.0000000E+000	0.0000000E+000	66.449	0.0000000E+000	0.0000000E+000	0.0000000E+000	-66.449	0.0000000E+000	0.0000000E+000	0.0000000E+000	-23.551	0.0000000E+000	0.0000000E+000	0.0000000E+000	23.551	2.29426	66.449	5.87931e-07	-2.01977e-06	33511.1
1000.32	2.22652	1.23575	2.54646	-29.0309	7.77071	0.260154	-0.00914161	128.751	30.3206	1	9	0.00507181	0.00199171	0	-4.51405e-05	0.343363	0.190571	0.392703	29.0309	30320.6	54630.4	62480.5	-60.9691	0.0000000E+000	0.0000000E+000	0.0000000E+000	60.9691	0.0000000E+000	0.0000000E+000	0.0000000E+000	-60.9691	0.0000000E+000	0.0000000E+000	0.0000000E+000	-29.0309	0.0000000E+000	0.0000000E+000	0.0000000E+000	29.0309	1.80176	60.9691	-2.84244e-06	-2.37822e-06	28458.2
463.961	2.74624	1.97116	3.38043	-35.6694	8.95922	0.260171	-0.0190654	174.027	59.1719	1	10	0.00504477	0.00149235	0	-4.85371e-05	0.240323	0.172495	0.29582	35.6694	59171.9	82439.2	101477	-54.3306	0.0000000E+000	0.0000000E+000	0.0000000E+000	54.3306	0.0000000E+000	0.0000000E+000	0.0000000E+000	-54.3306	0.0000000E+000	0.0000000E+000	0.0000000E+000	-35.6694	0.0000000E+000	0.0000000E+000	0.0000000E+000	35.6694	1.39321	54.3306	-8.62021e-07	-4.96027e-06	13646.2
215.345	3.78177	3.1429	4.91728	-39.7289	9.89342	0.260171	-0.0188493	235.155	96.0656	1	10	0.00495552	0.00100778	0	-5.4637e-05	0.156403	0.129982	0.203365	39.7289	96065.6	115593	150301	-50.2711	0.0000000E+000	0.0000000E+000	0.0000000E+000	50.2711	0.0000000E+000	0.0000000E+000	0.0000000E+000	-50.2711	0.0000000E+000	0.0000000E+000	0.0000000E+000	-39.7289	0.0000000E+000	0.0000000E+000	0.0000000E+000	39.7289	1.20327	50.2711	-2.93177e-06	-4.90405e-06	13802.7
100.032	5.80844	4.51762	7.35846	-37.8747	10.8247	0.260167	-0.0183576	352.185	132.745	1	10	0.00492436	0.000669211	0	-5.81056e-05	0.107272	0.0834327	0.135898	37.8747	132745	170674	216219	-52.1253	0.0000000E+000	0.0000000E+000	0.0000000E+000	52.1253	0.0000000E+000	0.0000000E+000	0.0000000E+000	-52.1253	0.0000000E+000	0.0000000E+000	0.0000000E+000	-37.8747	0.0000000E+000	0.0000000E+000	0.0000000E+000	37.8747	1.28573	52.1253	-1.6185e-06	-4.77605e-06	14172.1
46.4415	8.94834	5.21273	10.3559	-30.2223	11.7585	0.260167	-0.0196354	657.428	166.571	1	10	0.00491431	0.00047454	0	-6.17768e-05	0.083438	0.0486057	0.096563	30.2223	166571	285942	330921	-59.7777	0.0000000E+000	0.0000000E+000	0.0000000E+000	59.7777	0.0000000E+000	0.0000000E+000	0.0000000E+000	-59.7777	0.0000000E+000	0.0000000E+000	0.0000000E+000	-30.2223	0.0000000E+000	0.0000000E+000	0.0000000E+000	30.2223	1.71663	59.7776	-1.99846e-06	-5.10849e-06	13249.9
[...]
1.00006	15.7991	1.1289	15.8394	-4.08703	20.0491	0.260195	-0.00856314	140973	716.096	1	11	0.0049132	0.000310189	0	-9.13545e-05	0.0629733	0.00449965	0.0631338	4.08703	716097	1.00219e+07	1.00474e+07	-85.913	0.0000000E+000	0.0000000E+000	0.0000000E+000	85.913	0.0000000E+000	0.0000000E+000	0.0000000E+000	-85.913	0.0000000E+000	0.0000000E+000	0.0000000E+000	-4.08703	0.0000000E+000	0.0000000E+000	0.0000000E+000	4.08703	13.9951	85.913	-1.45661e-05	-2.22809e-06	30385.5
0.464091	16.2669	1.06734	16.3019	-3.75403	29.2518	0.260195	-0.00836429	321304	1377.35	1	12	0.00491272	0.000301359	0	-0.000133686	0.061211	0.0040163	0.0613426	3.75403	1.37735e+06	2.09917e+07	2.10368e+07	-86.246	0.0000000E+000	0.0000000E+000	0.0000000E+000	86.246	0.0000000E+000	0.0000000E+000	0.0000000E+000	-86.246	0.0000000E+000	0.0000000E+000	0.0000000E+000	-3.75403	0.0000000E+000	0.0000000E+000	0.0000000E+000	3.75403	15.2406	86.246	-1.69722e-05	-2.17634e-06	31107.8
0.215268	16.6751	1.18274	16.717	-4.05713	45.7319	0.260186	-0.00842672	625101	3129.08	1	12	0.00491155	0.000293806	0	-0.00012487	0.0596696	0.00423229	0.0598195	4.05713	3.12908e+06	4.41158e+07	4.42266e+07	-85.9429	0.0000000E+000	0.0000000E+000	0.0000000E+000	85.9429	0.0000000E+000	0.0000000E+000	0.0000000E+000	-85.9429	0.0000000E+000	0.0000000E+000	0.0000000E+000	-4.05713	0.0000000E+000	0.0000000E+000	0.0000000E+000	4.05713	14.0986	85.9429	1.29573e-05	-2.19251e-06	30876.3
0.0999041	17.122	1.55273	17.1923	-5.18175	81.1386	0.260192	-0.00369494	1.02599e+06	8368.85	1	12	0.00491191	0.000285705	0	-7.54463e-05	0.057928	0.00525326	0.0581657	5.18175	8.36884e+06	9.22838e+07	9.26625e+07	-84.8183	0.0000000E+000	0.0000000E+000	0.0000000E+000	84.8183	0.0000000E+000	0.0000000E+000	0.0000000E+000	-84.8183	0.0000000E+000	0.0000000E+000	0.0000000E+000	-5.18175	0.0000000E+000	0.0000000E+000	0.0000000E+000	5.18175	11.0271	84.8183	2.29216e-05	-9.61396e-07	70418.5
0.0464052	17.6799	2.56763	17.8654	-8.26321	157.374	0.260189	-0.000309832	1.33574e+06	27590.5	1	12	0.00491186	0.000274937	0	-0.000187012	0.055393	0.00804463	0.0559741	8.26321	2.75905e+07	1.8998e+08	1.91973e+08	-81.7368	0.0000000E+000	0.0000000E+000	0.0000000E+000	81.7368	0.0000000E+000	0.0000000E+000	0.0000000E+000	-81.7368	0.0000000E+000	0.0000000E+000	0.0000000E+000	-8.26321	0.0000000E+000	0.0000000E+000	0.0000000E+000	8.26321	6.8857	81.7368	-0.000102447	-8.06149e-08	839774
0.0215268	18.605	4.44059	19.1276	-13.424	321.605	0.260181	-0.00220273	1.66495e+06	89734.4	1	12	0.00491174	0.000256788	0	-0.000802083	0.050852	0.0121372	0.0522804	13.424	8.97344e+07	3.75966e+08	3.86527e+08	-76.576	0.0000000E+000	0.0000000E+000	0.0000000E+000	76.576	0.0000000E+000	0.0000000E+000	0.0000000E+000	-76.576	0.0000000E+000	0.0000000E+000	0.0000000E+000	-13.424	0.0000000E+000	0.0000000E+000	0.0000000E+000	13.424	4.18977	76.576	-0.000368921	-5.73109e-07	118118
0.0100092	20.1929	8.12111	21.7648	-21.9088	674.822	0.260177	-0.00292052	1.95797e+06	272601	1	12	0.00491253	0.00022571	0	-0.00115969	0.0426275	0.0171437	0.0459457	21.9088	2.72601e+08	6.77816e+08	7.30579e+08	-68.0912	0.0000000E+000	0.0000000E+000	0.0000000E+000	68.0912	0.0000000E+000	0.0000000E+000	0.0000000E+000	-68.0912	0.0000000E+000	0.0000000E+000	0.0000000E+000	-21.9088	0.0000000E+000	0.0000000E+000	0.0000000E+000	21.9088	2.48647	68.0912	-2.08292e-05	-7.59853e-07	89085.9