Folder: EIS/txt (part 147)

File: 18998_R309_UA707_SOC00_C01.mpt
EC-Lab ASCII FILE
Nb header lines : 66

Potentio Electrochemical Impedance Spectroscopy

Run on channel : 1 (SN 66354)
Grouped channel(s) : 1, 2, 3, 4
User :
CE vs. WE compliance from -10 V to 10 V
Electrode connection : standard
Potential control : Ewe
Ewe ctrl range : min = -10.00 V, max = 10.00 V
Safety Limits :
	Do not start on E overload
Acquisition started on : 11/04/2025 15:54:15.751
Loaded Setting File :  C:\Users\Celltest\OneDrive - store-dot.com\Documents\EC-Lab\Data\@Biologic Test Protocols\anode half cell EIS SOC00.mps
Saved on :
	File : 18998_R309_UA707_SOC00_C01.mpr
	Directory : C:\Users\Celltest\OneDrive - store-dot.com\Documents\EC-Lab\Data\Charmaine\
	Host : 169.254.61.224
Device : VMP-3e (SN .003165)
Address : USB
EC-LAB for windows v11.62 (software)
Internet server v27.00 (firmware)
Command interpretor v12.03 (firmware)
Electrode material :
Initial state :
Electrolyte :
Comments :
Electrode surface area : 0.001 cm²
Characteristic mass : 0.001 g
Equivalent Weight : 0.000 g/eq.
Density : 0.000 g/cm3
Volume (V) : 0.001 cm³
Record Ece
Cycle Definition : Charge/Discharge alternance
Mode                Single sine
E (V)               0.0000
vs.                 Eoc
tE (h:m:s)          0:00:0.0000
record              0
dI                  0.000
unit dI             mA
dt (s)              0.000
fi                  100.000
unit fi             kHz
ff                  10.000
unit ff             mHz
Nd                  6
Points              per decade
spacing             Logarithmic
Va (mV)             5.0
pw                  0.10
Na                  2
corr                0
E range min (V)     -10.000
E range max (V)     10.000
I Range             Auto
Bandwidth           5
nc cycles           0
goto Ns'            0
nr cycles           0
inc. cycle          0

freq/Hz	Re(Z)/Ohm	-Im(Z)/Ohm	|Z|/Ohm	Phase(Z)/deg	time/s	<Ewe>/V	<I>/mA	Cs/µF	Cp/µF	cycle number	I Range	|Ewe|/V	|I|/A	Ns	(Q-Qo)/mA.h	<Ece>/V	|Ece|/V	Phase(Zce)/deg	|Zce|/Ohm	Re(Zce)/Ohm	-Im(Zce)/Ohm	Phase(Zwe-ce)/deg	|Zwe-ce|/Ohm	Re(Zwe-ce)/Ohm	-Im(Zwe-ce)/Ohm	Re(Y)/Ohm-1	Im(Y)/Ohm-1	|Y|/Ohm-1	Phase(Y)/deg	Re(C)/nF	Im(C)/nF	|C|/nF	Phase(C)/deg	Re(M)	Im(M)	|M|	Phase(M)/deg	Re(Permittivity)	Im(Permittivity)	|Permittivity|	Phase(Permittivity)/deg	Re(Resistivity)/Ohm.cm	Im(Resistivity)/Ohm.cm	|Resistivity|/Ohm.cm	Phase(Resistivity)/deg	Re(Conductivity)/mS/cm	Im(Conductivity)/mS/cm	|Conductivity|/mS/cm	Phase(Conductivity)/deg	Tan(Delta)	Loss Angle(Delta)/deg	dq/mA.h	Pwe/W	Pce/W	Pwe-ce/W	<Ewe-Ece>/V	Rwe/Ohm	Rce/Ohm	Rwe-ce/Ohm		Ewe-Ece/V
100004	1.9049	0.589962	1.99417	-17.2081	1.72556	0.245538	0.0670905	2.69762	0.236104	1	9	0.00466451	0.00233908	0	5.95011e-06	0.000183002	3.53427e-05	85.0141	0.0151097	0.00131319	-0.0150525	-16.7832	1.99103	1.90622	0.574909	0.479015	0.148354	0.501462	17.2081	236.104	762.347	798.072	-72.7919	0.0000000E+000	0.0000000E+000	0.0000000E+000	72.7919	0.0000000E+000	0.0000000E+000	0.0000000E+000	-72.7919	0.0000000E+000	0.0000000E+000	0.0000000E+000	-17.2081	0.0000000E+000	0.0000000E+000	0.0000000E+000	17.2081	3.22886	72.7919	5.95011e-06	1.64733e-05	1.22777e-08	1.6461e-05	0.245355	3659.81	2.72768	3657.08
31621.1	2.41575	0.76383	2.53363	-17.5463	3.12254	0.245523	0.0504751	6.5894	0.598898	1	9	0.00545578	0.00215334	0	3.43203e-05	8.76152e-05	8.0185e-06	-35.7864	0.00372374	0.00302071	0.00217751	-17.5726	2.53717	2.41877	0.766008	0.376327	0.11899	0.39469	17.5463	598.898	1894.12	1986.55	-72.4537	0.0000000E+000	0.0000000E+000	0.0000000E+000	72.4537	0.0000000E+000	0.0000000E+000	0.0000000E+000	-72.4537	0.0000000E+000	0.0000000E+000	0.0000000E+000	-17.5463	0.0000000E+000	0.0000000E+000	0.0000000E+000	17.5463	3.16268	72.4537	1.19653e-05	1.23928e-05	4.42238e-09	1.23884e-05	0.245436	4864.25	1.73581	4862.52
10002.2	2.98564	0.958581	3.13575	-17.7999	4.02352	0.245535	0.0606455	16.5995	1.5512	1	9	0.00450673	0.00143721	0	5.17361e-05	0.000163924	1.30641e-05	-95.9992	0.00908993	-0.000950024	0.00904015	-17.9624	3.13762	2.98469	0.967621	0.303637	0.0974867	0.318903	17.7999	1551.2	4831.46	5074.37	-72.2001	0.0000000E+000	0.0000000E+000	0.0000000E+000	72.2001	0.0000000E+000	0.0000000E+000	0.0000000E+000	-72.2001	0.0000000E+000	0.0000000E+000	0.0000000E+000	-17.7999	0.0000000E+000	0.0000000E+000	0.0000000E+000	17.7999	3.11465	72.2001	3.19123e-06	1.48906e-05	9.94127e-09	1.48806e-05	0.245371	4048.7	2.703	4045.99
3163.08	3.71757	1.34508	3.95342	-19.8909	5.25668	0.245483	-0.0200141	37.4079	4.33023	1	10	0.00488126	0.00123469	0	6.04694e-05	0.000183002	8.40433e-06	41.7782	0.00680681	0.00507604	-0.00453503	-19.8042	3.95666	3.72264	1.34054	0.237855	0.0860599	0.252945	19.8909	4330.23	11968	12727.3	-70.1091	0.0000000E+000	0.0000000E+000	0.0000000E+000	70.1091	0.0000000E+000	0.0000000E+000	0.0000000E+000	-70.1091	0.0000000E+000	0.0000000E+000	0.0000000E+000	-19.8909	0.0000000E+000	0.0000000E+000	0.0000000E+000	19.8909	2.76383	70.1091	1.48099e-06	-4.91312e-06	-3.66261e-09	-4.90945e-06	0.2453	12265.5	9.14364	12256.3
1000.32	4.77321	1.98455	5.16933	-22.5759	6.60982	0.245508	-0.0161157	80.1714	11.8161	1	10	0.00476548	0.000921876	0	5.55975e-05	0.00033562	4.39223e-06	0.952063	0.00476445	0.00476379	-7.91655e-05	-22.5549	5.1737	4.77798	1.98447	0.178625	0.0742664	0.193449	22.5759	11816.1	28419.9	30778.4	-67.424	0.0000000E+000	0.0000000E+000	0.0000000E+000	67.424	0.0000000E+000	0.0000000E+000	0.0000000E+000	-67.424	0.0000000E+000	0.0000000E+000	0.0000000E+000	-22.5759	0.0000000E+000	0.0000000E+000	0.0000000E+000	22.5759	2.40519	67.424	-1.72704e-06	-3.95653e-06	-5.40876e-09	-3.95113e-06	0.245172	15234.1	20.8256	15213.2
316.316	6.42003	3.12783	7.14144	-25.9753	7.96004	0.245475	-0.014856	160.863	30.8582	1	10	0.00470934	0.000659439	0	5.1358e-05	-4.5926e-05	1.09681e-05	18.9803	0.0166325	0.0157282	-0.00540961	-25.8811	7.15322	6.43576	3.12242	0.125883	0.0613299	0.140028	25.9753	30858.2	63338.1	70455.3	-64.0247	0.0000000E+000	0.0000000E+000	0.0000000E+000	64.0247	0.0000000E+000	0.0000000E+000	0.0000000E+000	-64.0247	0.0000000E+000	0.0000000E+000	0.0000000E+000	-25.9753	0.0000000E+000	0.0000000E+000	0.0000000E+000	25.9753	2.05255	64.0247	-1.23951e-06	-3.64678e-06	6.82278e-10	-3.64746e-06	0.245521	16523.6	3.0914	16526.7
100.032	9.58743	4.30406	10.5092	-24.1766	9.30676	0.245475	-0.0132721	369.66	62.0038	1	10	0.00468469	0.00044577	0	4.69199e-05	6.85379e-05	8.05233e-06	25.3263	0.0180639	0.0163277	-0.00772723	-24.1018	10.521	9.60376	4.29633	0.0868083	0.0389706	0.0951545	24.1766	62003.8	138115	151395	-65.8234	0.0000000E+000	0.0000000E+000	0.0000000E+000	65.8234	0.0000000E+000	0.0000000E+000	0.0000000E+000	-65.8234	0.0000000E+000	0.0000000E+000	0.0000000E+000	-24.1766	0.0000000E+000	0.0000000E+000	0.0000000E+000	24.1766	2.22753	65.8234	-1.51651e-06	-3.25797e-06	-9.0964e-10	-3.25706e-06	0.245407	18495.6	5.16406	18490.4
[...]
0.316193	17.609	1.39885	17.6644	-4.54203	33.718	0.245542	-0.00513695	359829	2256.53	1	12	0.00468927	0.000265464	0	3.21631e-05	0.000221156	3.48609e-06	-10.0658	0.0131321	0.0129299	0.0022952	-4.54613	17.6775	17.6219	1.40115	0.0564331	0.00448304	0.0566109	4.54203	2.25653e+06	2.84055e+07	2.8495e+07	-85.458	0.0000000E+000	0.0000000E+000	0.0000000E+000	85.458	0.0000000E+000	0.0000000E+000	0.0000000E+000	-85.458	0.0000000E+000	0.0000000E+000	0.0000000E+000	-4.54203	0.0000000E+000	0.0000000E+000	0.0000000E+000	4.54203	12.5881	85.458	1.3823e-05	-1.26134e-06	-1.13607e-09	-1.2602e-06	0.245321	47799.2	43.0521	47756.2
0.0999041	18.3589	3.01287	18.6045	-9.31969	78.926	0.24553	-0.00105464	528758	13867	1	12	0.00468882	0.000252026	0	-4.71344e-06	0.000183002	2.94724e-06	20.1829	0.0116942	0.0109761	-0.00403471	-9.30197	18.6147	18.3699	3.00883	0.0530409	0.00870451	0.0537504	9.31969	1.3867e+07	8.44983e+07	8.56286e+07	-80.6803	0.0000000E+000	0.0000000E+000	0.0000000E+000	80.6803	0.0000000E+000	0.0000000E+000	0.0000000E+000	-80.6803	0.0000000E+000	0.0000000E+000	0.0000000E+000	-9.31969	0.0000000E+000	0.0000000E+000	0.0000000E+000	9.31969	6.0935	80.6803	-4.69429e-05	-2.58945e-07	-1.93e-10	-2.58752e-07	0.245347	232810	173.521	232637
0.0315922	20.2537	6.96623	21.4183	-18.9805	221.809	0.245536	-0.00356511	723173	76501.3	1	12	0.00469091	0.000219014	0	-0.00043572	0.00033562	2.43726e-06	-3.54894	0.0111283	0.011107	0.000688856	-18.9726	21.429	20.2648	6.96692	0.0441506	0.0151855	0.0466891	18.9805	7.65013e+07	2.22421e+08	2.3521e+08	-71.0195	0.0000000E+000	0.0000000E+000	0.0000000E+000	71.0195	0.0000000E+000	0.0000000E+000	0.0000000E+000	-71.0195	0.0000000E+000	0.0000000E+000	0.0000000E+000	-18.9805	0.0000000E+000	0.0000000E+000	0.0000000E+000	18.9805	2.90742	71.0195	-0.000160509	-8.75363e-07	-1.19652e-09	-8.74166e-07	0.2452	68871.9	94.1402	68777.7
0.0146812	22.4651	12.555	25.7353	-29.1993	462.85	0.245533	-0.00340459	863464	205501	1	12	0.0046876	0.000182146	0	-0.000275237	0.000259311	3.30873e-06	19.6262	0.0181652	0.0171099	-0.00610139	-29.1689	25.7473	22.4822	12.5488	0.0339194	0.0189564	0.0388571	29.1993	2.05501e+08	3.67712e+08	4.2124e+08	-60.8007	0.0000000E+000	0.0000000E+000	0.0000000E+000	60.8007	0.0000000E+000	0.0000000E+000	0.0000000E+000	-60.8007	0.0000000E+000	0.0000000E+000	0.0000000E+000	-29.1993	0.0000000E+000	0.0000000E+000	0.0000000E+000	29.1993	1.78934	60.8007	0.000186418	-8.35939e-07	-8.82846e-10	-8.35056e-07	0.245274	72118.4	76.1652	72042.2

0.0100092	24.6399	16.5694	29.6929	-33.9194	673.032	0.245534	-0.00313647	959656	298830	1	12	0.00469056	0.000157969	0	1.29852e-05	0.000278388	3.16609e-06	11.7904	0.0200425	0.0196196	-0.00409531	-33.8917	29.7069	24.6595	16.5653	0.0279469	0.0187932	0.0336781	33.9194	2.9883e+08	4.44381e+08	5.35513e+08	-56.0806	0.0000000E+000	0.0000000E+000	0.0000000E+000	56.0806	0.0000000E+000	0.0000000E+000	0.0000000E+000	-56.0806	0.0000000E+000	0.0000000E+000	0.0000000E+000	-33.9194	0.0000000E+000	0.0000000E+000	0.0000000E+000	33.9194	1.48707	56.0806	0.000288222	-7.7011e-07	-8.73155e-10	-7.69237e-07	0.245256	78283.8	88.7586	78195

File: 18999_R309_UA707_SOC00_C02.mpt
EC-Lab ASCII FILE
Nb header lines : 65

Potentio Electrochemical Impedance Spectroscopy

Run on channel : 2 (SN 66139)
Grouped channel(s) : 1, 2, 3, 4
User :
CE vs. WE compliance from -10 V to 10 V
Electrode connection : standard
Potential control : Ewe
Ewe ctrl range : min = -10.00 V, max = 10.00 V
Safety Limits :
	Do not start on E overload
Acquisition started on : 11/04/2025 15:54:15.751
Loaded Setting File :  C:\Users\Celltest\OneDrive - store-dot.com\Documents\EC-Lab\Data\@Biologic Test Protocols\anode half cell EIS SOC00.mps
Saved on :
	File : 18998_R309_UA707_SOC00_C02.mpr
	Directory : C:\Users\Celltest\OneDrive - store-dot.com\Documents\EC-Lab\Data\Charmaine\
	Host : 169.254.61.224
Device : VMP-3e (SN .003165)
Address : USB
EC-LAB for windows v11.62 (software)
Internet server v27.00 (firmware)
Command interpretor v12.03 (firmware)
Electrode material :
Initial state :
Electrolyte :
Comments :
Electrode surface area : 0.001 cm²
Characteristic mass : 0.001 g
Equivalent Weight : 0.000 g/eq.
Density : 0.000 g/cm3
Volume (V) : 0.001 cm³
Record Ece
Cycle Definition : Charge/Discharge alternance
Mode                Single sine
E (V)               0.0000
vs.                 Eoc
tE (h:m:s)          0:00:0.0000
record              0
dI                  0.000
unit dI             mA
dt (s)              0.000
fi                  100.000
unit fi             kHz
ff                  10.000
unit ff             mHz
Nd                  6
Points              per decade
spacing             Logarithmic
Va (mV)             5.0
pw                  0.10
Na                  2
corr                0
E range min (V)     -10.000
E range max (V)     10.000
I Range             Auto
Bandwidth           5
nc cycles           0
goto Ns'            0
nr cycles           0
inc. cycle          0

freq/Hz	Re(Z)/Ohm	-Im(Z)/Ohm	|Z|/Ohm	Phase(Z)/deg	time/s	<Ewe>/V	<I>/mA	Cs/µF	Cp/µF	cycle number	I Range	|Ewe|/V	|I|/A	Ns	(Q-Qo)/mA.h	<Ece>/V	|Ece|/V	Phase(Zce)/deg	|Zce|/Ohm	Re(Zce)/Ohm	-Im(Zce)/Ohm	Phase(Zwe-ce)/deg	|Zwe-ce|/Ohm	Re(Zwe-ce)/Ohm	-Im(Zwe-ce)/Ohm	Re(Y)/Ohm-1	Im(Y)/Ohm-1	|Y|/Ohm-1	Phase(Y)/deg	Re(C)/nF	Im(C)/nF	|C|/nF	Phase(C)/deg	Re(M)	Im(M)	|M|	Phase(M)/deg	Re(Permittivity)	Im(Permittivity)	|Permittivity|	Phase(Permittivity)/deg	Re(Resistivity)/Ohm.cm	Im(Resistivity)/Ohm.cm	|Resistivity|/Ohm.cm	Phase(Resistivity)/deg	Re(Conductivity)/mS/cm	Im(Conductivity)/mS/cm	|Conductivity|/mS/cm	Phase(Conductivity)/deg	Tan(Delta)	Loss Angle(Delta)/deg	dq/mA.h	Pwe/W	Pce/W	Pwe-ce/W	<Ewe-Ece>/V	Rwe/Ohm	Rce/Ohm	Rwe-ce/Ohm		Ewe-Ece/V
100004	1.67697	0.563368	1.76907	-18.5695	1.72454	0.246764	-0.0134807	2.82496	0.286489	1	9	0.00463458	0.00261978	0	-8.48704e-06	-3.13005e-05	2.02387e-05	91.4452	0.00772535	-0.000194836	-0.00772289	-18.3341	1.76644	1.67677	0.555645	0.535841	0.180013	0.56527	18.5695	286.489	852.785	899.621	-71.4305	0.0000000E+000	0.0000000E+000	0.0000000E+000	71.4305	0.0000000E+000	0.0000000E+000	0.0000000E+000	-71.4305	0.0000000E+000	0.0000000E+000	0.0000000E+000	-18.5695	0.0000000E+000	0.0000000E+000	0.0000000E+000	18.5695	2.97668	71.4305	-8.48704e-06	-3.32656e-06	4.21953e-10	-3.32698e-06	0.246795	18304.9	2.32187	18307.3
31621.1	2.16369	0.677813	2.26737	-17.3941	3.24552	0.246741	-0.00610605	7.42562	0.663601	1	9	0.00510962	0.00225355	0	-1.33908e-05	0.000235971	7.41394e-06	-75.4369	0.0032899	0.000827234	0.0031842	-17.4646	2.26911	2.16451	0.680997	0.420871	0.131845	0.441039	17.3941	663.601	2118.32	2219.83	-72.6059	0.0000000E+000	0.0000000E+000	0.0000000E+000	72.6059	0.0000000E+000	0.0000000E+000	0.0000000E+000	-72.6059	0.0000000E+000	0.0000000E+000	0.0000000E+000	-17.3941	0.0000000E+000	0.0000000E+000	0.0000000E+000	17.3941	3.19216	72.6059	-3.83162e-06	-1.50662e-06	-1.44085e-09	-1.50517e-06	0.246505	40409.3	38.6455	40370.7
10002.2	2.65746	0.807237	2.77736	-16.8968	4.27054	0.246737	-0.00532391	19.7116	1.66517	1	9	0.00491914	0.00177116	0	-1.76139e-05	0.000216881	6.20875e-06	13.9331	0.00350548	0.00340234	-0.000844078	-16.8598	2.78037	2.66086	0.806393	0.34451	0.104649	0.360054	16.8968	1665.17	5481.83	5729.16	-73.1032	0.0000000E+000	0.0000000E+000	0.0000000E+000	73.1032	0.0000000E+000	0.0000000E+000	0.0000000E+000	-73.1032	0.0000000E+000	0.0000000E+000	0.0000000E+000	-16.8968	0.0000000E+000	0.0000000E+000	0.0000000E+000	16.8968	3.29205	73.1032	-2.17744e-06	-1.31361e-06	-1.15465e-09	-1.31245e-06	0.246521	46345.2	40.7371	46304.5
3163.08	3.25222	1.10375	3.43441	-18.7463	5.17066	0.246615	-0.0222708	45.5869	4.70842	1	9	0.00461915	0.00134496	0	-2.06752e-05	0.000235971	1.10391e-05	-69.5443	0.00820774	0.00286847	0.00769018	-18.8523	3.43961	3.25509	1.11144	0.275724	0.0935761	0.291171	18.7463	4708.42	13873.5	14650.7	-71.2537	0.0000000E+000	0.0000000E+000	0.0000000E+000	71.2537	0.0000000E+000	0.0000000E+000	0.0000000E+000	-71.2537	0.0000000E+000	0.0000000E+000	0.0000000E+000	-18.7463	0.0000000E+000	0.0000000E+000	0.0000000E+000	18.7463	2.94652	71.2537	-1.51688e-06	-5.49231e-06	-5.25527e-09	-5.48705e-06	0.246379	11073.5	10.5956	11062.9
1000.32	4.0775	1.68451	4.41175	-22.4467	6.7688	0.246716	-0.0233271	94.4511	13.77	1	10	0.00462935	0.00104932	0	-2.68476e-05	0.000216881	8.47e-06	-58.7616	0.00807187	0.00418608	0.00690159	-22.5087	4.41826	4.08168	1.69141	0.209494	0.086547	0.226667	22.4467	13770	33331.3	36063.7	-67.5533	0.0000000E+000	0.0000000E+000	0.0000000E+000	67.5533	0.0000000E+000	0.0000000E+000	0.0000000E+000	-67.5533	0.0000000E+000	0.0000000E+000	0.0000000E+000	-22.4467	0.0000000E+000	0.0000000E+000	0.0000000E+000	22.4467	2.42058	67.5533	-2.245e-06	-5.75515e-06	-5.05919e-09	-5.75009e-06	0.246499	10576.4	9.29738	10567.1
316.316	5.46588	2.75212	6.11964	-26.7257	8.11804	0.246701	-0.0206188	182.823	36.9755	1	10	0.00456176	0.000745429	0	-3.37936e-05	0.000178699	6.03768e-06	-134.581	0.00809959	-0.00568527	0.00576898	-26.7979	6.11716	5.4602	2.75789	0.145951	0.0734878	0.163408	26.7257	36975.5	73435.7	82219.1	-63.2743	0.0000000E+000	0.0000000E+000	0.0000000E+000	63.2743	0.0000000E+000	0.0000000E+000	0.0000000E+000	-63.2743	0.0000000E+000	0.0000000E+000	0.0000000E+000	-26.7257	0.0000000E+000	0.0000000E+000	0.0000000E+000	26.7257	1.98606	63.2743	-2.19916e-06	-5.08669e-06	-3.68456e-09	-5.083e-06	0.246522	11964.8	8.66677	11956.2
100.032	8.30532	3.96648	9.20388	-25.5284	9.46478	0.246696	-0.0206226	401.121	74.4981	1	10	0.00454907	0.000494256	0	-4.17949e-05	0.000235971	6.57961e-06	-2.67103	0.0133122	0.0132977	0.000620364	-25.4962	9.21615	8.31862	3.9671	0.0980426	0.0468235	0.10865	25.5284	74498.1	155990	172866	-64.4716	0.0000000E+000	0.0000000E+000	0.0000000E+000	64.4716	0.0000000E+000	0.0000000E+000	0.0000000E+000	-64.4716	0.0000000E+000	0.0000000E+000	0.0000000E+000	-25.5284	0.0000000E+000	0.0000000E+000	0.0000000E+000	25.5284	2.09387	64.4716	-2.11597e-06	-5.08751e-06	-4.86634e-09	-5.08264e-06	0.24646	11962.4	11.4424	11951
[...]
1.00006	15.6309	1.00119	15.6629	-3.66492	18.4849	0.246747	-0.00643435	158955	649.48	1	11	0.00454443	0.00029014	0	-7.63292e-05	0.000255062	4.01657e-06	-52.2165	0.0138436	0.00848167	0.010941	-3.70286	15.6721	15.6394	1.01214	0.0637145	0.00408106	0.0638451	3.66492	649480	1.01398e+07	1.01606e+07	-86.3351	0.0000000E+000	0.0000000E+000	0.0000000E+000	86.3351	0.0000000E+000	0.0000000E+000	0.0000000E+000	-86.3351	0.0000000E+000	0.0000000E+000	0.0000000E+000	-3.66492	0.0000000E+000	0.0000000E+000	0.0000000E+000	3.66492	15.6122	86.3351	-8.53764e-06	-1.58765e-06	-1.64116e-09	-1.58601e-06	0.246492	38348.4	39.6407	38308.7
0.316193	16.0254	1.31991	16.0797	-4.70845	36.037	0.246752	-0.00536075	381351	2569.55	1	12	0.00454753	0.000282813	0	-6.44265e-05	0.000121426	2.41624e-06	0.864386	0.00854362	0.00854265	-0.000128887	-4.70549	16.0882	16.0339	1.31978	0.0619805	0.00510492	0.0621903	4.70845	2.56955e+06	3.11977e+07	3.13033e+07	-85.2916	0.0000000E+000	0.0000000E+000	0.0000000E+000	85.2916	0.0000000E+000	0.0000000E+000	0.0000000E+000	-85.2916	0.0000000E+000	0.0000000E+000	0.0000000E+000	-4.70845	0.0000000E+000	0.0000000E+000	0.0000000E+000	4.70845	12.1413	85.2916	1.00133e-05	-1.32278e-06	-6.50937e-10	-1.32213e-06	0.246631	46029.4	22.651	46006.7
0.0999041	16.6971	2.87511	16.9429	-9.77004	81.245	0.246743	-0.000975894	554093	15955.8	1	12	0.00454792	0.000268427	0	-0.000113267	-0.000126755	1.95919e-06	-50.9758	0.00729876	0.00459565	0.00567027	-9.7863	16.9484	16.7017	2.88078	0.0581659	0.0100157	0.0590219	9.77004	1.59558e+07	9.26628e+07	9.40265e+07	-80.23	0.0000000E+000	0.0000000E+000	0.0000000E+000	80.23	0.0000000E+000	0.0000000E+000	0.0000000E+000	-80.23	0.0000000E+000	0.0000000E+000	0.0000000E+000	-9.77004	0.0000000E+000	0.0000000E+000	0.0000000E+000	9.77004	5.80749	80.23	-5.4961e-05	-2.40796e-07	1.23699e-10	-2.40919e-07	0.24687	252838	129.886	252968
0.0315922	18.464	6.77607	19.6681	-20.1525	224.129	0.246741	-0.00376661	743468	88245.5	1	12	0.0045482	0.000231247	0	-0.000555865	6.88124e-06	4.00164e-06	-10.6086	0.0173046	0.0170088	0.00318577	-20.1442	19.6852	18.481	6.77926	0.047731	0.0175167	0.0508437	20.1525	8.82455e+07	2.40459e+08	2.5614e+08	-69.8475	0.0000000E+000	0.0000000E+000	0.0000000E+000	69.8475	0.0000000E+000	0.0000000E+000	0.0000000E+000	-69.8475	0.0000000E+000	0.0000000E+000	0.0000000E+000	-20.1525	0.0000000E+000	0.0000000E+000	0.0000000E+000	20.1525	2.72489	69.8475	-0.000152033	-9.29376e-07	-2.5919e-11	-9.2935e-07	0.246734	65507.3	1.8269	65505.5
0.0100092	22.5043	16.2477	27.7566	-35.8287	675.352	0.246741	-0.00325006	978653	335337	1	12	0.00454926	0.000163898	0	-4.73077e-05	0.000140517	3.63089e-06	0.476115	0.0221534	0.0221526	-0.000184087	-35.8017	27.7745	22.5264	16.2476	0.02921	0.0210892	0.0360274	35.8287	3.35337e+08	4.64465e+08	5.72869e+08	-54.1713	0.0000000E+000	0.0000000E+000	0.0000000E+000	54.1713	0.0000000E+000	0.0000000E+000	0.0000000E+000	-54.1713	0.0000000E+000	0.0000000E+000	0.0000000E+000	-35.8287	0.0000000E+000	0.0000000E+000	0.0000000E+000	35.8287	1.38507	54.1713	0.000283597	-8.01921e-07	-4.56688e-10	-8.01465e-07	0.2466	75919	43.2353	75875.7