Folder: EIS/txt (part 22)

File: 17419_R282_UA652_SOC00_C04.mpt
EC-Lab ASCII FILE
Nb header lines : 63

Potentio Electrochemical Impedance Spectroscopy

Run on channel : 4 (SN 66756)
User :
CE vs. WE compliance from -10 V to 10 V
Electrode connection : standard
Potential control : Ewe
Ewe ctrl range : min = -10.00 V, max = 10.00 V
Safety Limits :
	Do not start on E overload
Acquisition started on : 09/08/2025 17:24:12.772
Loaded Setting File :  C:\Users\Celltest\OneDrive - store-dot.com\Documents\EC-Lab\Data\Gyutae\R270\17155_C03.mpr
Saved on :
	File : 17419_C04.mpr
	Directory : C:\Users\Celltest\OneDrive - store-dot.com\Documents\EC-Lab\Data\Gyutae\R282\
	Host : 169.254.61.224
Device : VMP-3e (SN .003165)
Address : USB
EC-LAB for windows v11.62 (software)
Internet server v27.00 (firmware)
Command interpretor v12.03 (firmware)
Electrode material :
Initial state :
Electrolyte :
Comments :
Electrode surface area : 0.001 cm²
Characteristic mass : 0.001 g
Equivalent Weight : 0.000 g/eq.
Density : 0.000 g/cm3
Volume (V) : 0.001 cm³
Cycle Definition : Charge/Discharge alternance
Mode                Single sine
E (V)               0.0000
vs.                 Eoc
tE (h:m:s)          0:00:0.0000
record              0
dI                  0.000
unit dI             mA
dt (s)              0.000
fi                  100.000
unit fi             kHz
ff                  10.000
unit ff             mHz
Nd                  6
Points              per decade
spacing             Logarithmic
Va (mV)             5.0
pw                  0.10
Na                  2
corr                0
E range min (V)     -10.000
E range max (V)     10.000
I Range             Auto
Bandwidth           5
nc cycles           0
goto Ns'            0
nr cycles           0
inc. cycle          0

freq/Hz	Re(Z)/Ohm	-Im(Z)/Ohm	|Z|/Ohm	Phase(Z)/deg	time/s	<Ewe>/V	<I>/mA	Cs/µF	Cp/µF	cycle number	I Range	|Ewe|/V	|I|/A	Ns	(Q-Qo)/mA.h	Re(Y)/Ohm-1	Im(Y)/Ohm-1	|Y|/Ohm-1	Phase(Y)/deg	Re(C)/nF	Im(C)/nF	|C|/nF	Phase(C)/deg	Re(M)	Im(M)	|M|	Phase(M)/deg	Re(Permittivity)	Im(Permittivity)	|Permittivity|	Phase(Permittivity)/deg	Re(Resistivity)/Ohm.cm	Im(Resistivity)/Ohm.cm	|Resistivity|/Ohm.cm	Phase(Resistivity)/deg	Re(Conductivity)/mS/cm	Im(Conductivity)/mS/cm	|Conductivity|/mS/cm	Phase(Conductivity)/deg	Tan(Delta)	Loss Angle(Delta)/deg	dq/mA.h	Pwe/W	Rwe/Ohm
100004	1.80045	0.355093	1.83513	-11.157	1.8655	0.282482	-0.0918859	4.48189	0.167808	1	9	0.00459715	0.00250508	0	-2.89319e-05	0.534621	0.10544	0.54492	11.157	167.808	850.844	867.234	-78.843	0.0000000E+000	0.0000000E+000	0.0000000E+000	78.843	0.0000000E+000	0.0000000E+000	0.0000000E+000	-78.843	0.0000000E+000	0.0000000E+000	0.0000000E+000	-11.157	0.0000000E+000	0.0000000E+000	0.0000000E+000	11.157	5.07036	78.843	-2.89319e-05	-2.59561e-05	3074.27
46420.4	1.9863	0.441728	2.03483	-12.5378	3.0215	0.28249	-0.0926691	7.7617	0.365773	1	9	0.00513777	0.00252492	0	-5.41662e-05	0.479723	0.106684	0.491442	12.5378	365.773	1644.76	1684.94	-77.4622	0.0000000E+000	0.0000000E+000	0.0000000E+000	77.4622	0.0000000E+000	0.0000000E+000	0.0000000E+000	-77.4622	0.0000000E+000	0.0000000E+000	0.0000000E+000	-12.5378	0.0000000E+000	0.0000000E+000	0.0000000E+000	12.5378	4.49666	77.4622	-1.30771e-05	-2.61781e-05	3048.38
21544.7	2.21008	0.588354	2.28705	-14.9072	3.89549	0.282738	-0.0862167	12.5557	0.830932	1	9	0.00496233	0.00216975	0	-7.62838e-05	0.422528	0.112483	0.437244	14.9072	830.932	3121.3	3230.01	-75.0928	0.0000000E+000	0.0000000E+000	0.0000000E+000	75.0928	0.0000000E+000	0.0000000E+000	0.0000000E+000	-75.0928	0.0000000E+000	0.0000000E+000	0.0000000E+000	-14.9072	0.0000000E+000	0.0000000E+000	0.0000000E+000	14.9072	3.75638	75.0928	-5.24719e-06	-2.43767e-05	3279.39
10002.2	2.49369	0.748162	2.60351	-16.7004	4.7695	0.282539	-0.085508	21.2681	1.75631	1	9	0.00503068	0.00193227	0	-9.58448e-05	0.367896	0.110377	0.384097	16.7004	1756.31	5853.94	6111.73	-73.2996	0.0000000E+000	0.0000000E+000	0.0000000E+000	73.2996	0.0000000E+000	0.0000000E+000	0.0000000E+000	-73.2996	0.0000000E+000	0.0000000E+000	0.0000000E+000	-16.7004	0.0000000E+000	0.0000000E+000	0.0000000E+000	16.7004	3.33309	73.2996	-9.59409e-06	-2.41593e-05	3304.24
4641.49	2.86051	0.990545	3.02716	-19.1001	5.61871	0.282577	-0.0344667	34.617	3.70652	1	9	0.00473891	0.00156546	0	-0.000109736	0.312157	0.108094	0.330343	19.1001	3706.52	10703.7	11327.3	-70.8999	0.0000000E+000	0.0000000E+000	0.0000000E+000	70.8999	0.0000000E+000	0.0000000E+000	0.0000000E+000	-70.8999	0.0000000E+000	0.0000000E+000	0.0000000E+000	-19.1001	0.0000000E+000	0.0000000E+000	0.0000000E+000	19.1001	2.88781	70.8999	-3.76649e-06	-9.7395e-06	8198.56
2155.69	3.37852	1.31183	3.62427	-21.2204	6.80668	0.282488	-0.0559884	56.2804	7.37343	1	10	0.00479806	0.00132387	0	-0.000124417	0.257209	0.0998702	0.275918	21.2204	7373.44	18989.8	20371.1	-68.7796	0.0000000E+000	0.0000000E+000	0.0000000E+000	68.7796	0.0000000E+000	0.0000000E+000	0.0000000E+000	-68.7796	0.0000000E+000	0.0000000E+000	0.0000000E+000	-21.2204	0.0000000E+000	0.0000000E+000	0.0000000E+000	21.2204	2.57543	68.7796	-9.57151e-06	-1.58161e-05	5045.47
1000.32	4.05492	1.7158	4.403	-22.9352	7.74367	0.282649	-0.0572194	92.7286	14.0816	1	10	0.0047107	0.00106989	0	-0.000138688	0.209164	0.0885056	0.227118	22.9352	14081.6	33278.8	36135.4	-67.0648	0.0000000E+000	0.0000000E+000	0.0000000E+000	67.0648	0.0000000E+000	0.0000000E+000	0.0000000E+000	-67.0648	0.0000000E+000	0.0000000E+000	0.0000000E+000	-22.9352	0.0000000E+000	0.0000000E+000	0.0000000E+000	22.9352	2.36328	67.0648	-6.24693e-06	-1.6173e-05	4939.74
463.961	4.94408	2.19495	5.40941	-23.9391	8.67819	0.2825	-0.0543882	156.284	25.7314	1	10	0.00466146	0.00086173	0	-0.000152126	0.168961	0.0750109	0.184863	23.9391	25731.4	57959.4	63414.5	-66.0609	0.0000000E+000	0.0000000E+000	0.0000000E+000	66.0609	0.0000000E+000	0.0000000E+000	0.0000000E+000	-66.0609	0.0000000E+000	0.0000000E+000	0.0000000E+000	-23.9391	0.0000000E+000	0.0000000E+000	0.0000000E+000	23.9391	2.25248	66.0609	-6.77536e-06	-1.53647e-05	5194.14
215.345	6.06912	2.79102	6.68012	-24.6964	9.61241	0.282487	-0.0542278	264.803	46.2255	1	10	0.00463668	0.000694101	0	-0.000164813	0.136006	0.0625454	0.149698	24.6964	46225.5	100518	110637	-65.3036	0.0000000E+000	0.0000000E+000	0.0000000E+000	65.3036	0.0000000E+000	0.0000000E+000	0.0000000E+000	-65.3036	0.0000000E+000	0.0000000E+000	0.0000000E+000	-24.6964	0.0000000E+000	0.0000000E+000	0.0000000E+000	24.6964	2.17451	65.3036	-6.34228e-06	-1.53187e-05	5209.26
100.032	7.55391	3.55514	8.34869	-25.2034	10.5417	0.282512	-0.0534165	447.532	81.1524	1	10	0.00463284	0.000554918	0	-0.000179137	0.108377	0.0510059	0.119779	25.2034	81152.4	172431	190574	-64.7966	0.0000000E+000	0.0000000E+000	0.0000000E+000	64.7966	0.0000000E+000	0.0000000E+000	0.0000000E+000	-64.7966	0.0000000E+000	0.0000000E+000	0.0000000E+000	-25.2034	0.0000000E+000	0.0000000E+000	0.0000000E+000	25.2034	2.12479	64.7966	-7.1043e-06	-1.50908e-05	5288.85
46.4415	9.60289	4.28517	10.5156	-24.0482	11.4755	0.28256	-0.0563466	799.733	132.804	1	10	0.00461015	0.000438409	0	-0.000192987	0.0868425	0.0387524	0.0950967	24.0482	132804	297609	325896	-65.9518	0.0000000E+000	0.0000000E+000	0.0000000E+000	65.9518	0.0000000E+000	0.0000000E+000	0.0000000E+000	-65.9518	0.0000000E+000	0.0000000E+000	0.0000000E+000	-24.0482	0.0000000E+000	0.0000000E+000	0.0000000E+000	24.0482	2.24096	65.9518	-7.16545e-06	-1.59213e-05	5014.67
[...]
1.00006	19.4092	2.35301	19.5513	-6.91232	20.8163	0.282551	-0.0378927	67634.5	979.631	1	12	0.00462028	0.000236315	0	-0.000299899	0.0507756	0.0061556	0.0511474	6.91232	979631	8.08067e+06	8.13984e+06	-83.0877	0.0000000E+000	0.0000000E+000	0.0000000E+000	83.0877	0.0000000E+000	0.0000000E+000	0.0000000E+000	-83.0877	0.0000000E+000	0.0000000E+000	0.0000000E+000	-6.91232	0.0000000E+000	0.0000000E+000	0.0000000E+000	6.91232	8.24869	83.0877	-2.71079e-05	-1.07066e-05	7456.61
0.464091	20.2622	2.04836	20.3655	-5.77255	28.502	0.28256	-0.0339738	167422	1693.68	1	12	0.00461806	0.000226759	0	-0.000356328	0.0488536	0.00493872	0.0491026	5.77255	1.69368e+06	1.67538e+07	1.68392e+07	-84.2275	0.0000000E+000	0.0000000E+000	0.0000000E+000	84.2275	0.0000000E+000	0.0000000E+000	0.0000000E+000	-84.2275	0.0000000E+000	0.0000000E+000	0.0000000E+000	-5.77255	0.0000000E+000	0.0000000E+000	0.0000000E+000	5.77255	9.89196	84.2275	-3.53444e-05	-9.59963e-06	8317
0.215268	21.0439	1.99436	21.1382	-5.41384	44.982	0.282564	-0.028674	370712	3299.97	1	12	0.00462578	0.000218835	0	-0.000521207	0.0470967	0.00446343	0.0473077	5.41384	3.29997e+06	3.48202e+07	3.49762e+07	-84.5862	0.0000000E+000	0.0000000E+000	0.0000000E+000	84.5862	0.0000000E+000	0.0000000E+000	0.0000000E+000	-84.5862	0.0000000E+000	0.0000000E+000	0.0000000E+000	-5.41384	0.0000000E+000	0.0000000E+000	0.0000000E+000	5.41384	10.5517	84.5862	-0.00010228	-8.10223e-06	9854.38
0.0999041	21.8691	2.50191	22.0117	-6.5265	80.3886	0.282559	-0.0245969	636744	8226.22	1	12	0.00462301	0.000210025	0	-0.000863969	0.0451359	0.00516373	0.0454303	6.5265	8.22622e+06	7.1905e+07	7.2374e+07	-83.4735	0.0000000E+000	0.0000000E+000	0.0000000E+000	83.4735	0.0000000E+000	0.0000000E+000	0.0000000E+000	-83.4735	0.0000000E+000	0.0000000E+000	0.0000000E+000	-6.5265	0.0000000E+000	0.0000000E+000	0.0000000E+000	6.5265	8.74094	83.4735	-0.000194174	-6.95008e-06	11487.6
0.0464052	23.0498	3.69363	23.3439	-9.104	156.625	0.282561	-0.0222595	928538	23246.7	1	12	0.00463202	0.000198425	0	-0.00133772	0.0422981	0.00677809	0.0428378	9.104	2.32467e+07	1.45069e+08	1.4692e+08	-80.896	0.0000000E+000	0.0000000E+000	0.0000000E+000	80.896	0.0000000E+000	0.0000000E+000	0.0000000E+000	-80.896	0.0000000E+000	0.0000000E+000	0.0000000E+000	-9.104	0.0000000E+000	0.0000000E+000	0.0000000E+000	9.104	6.24042	80.896	-0.00024204	-6.28966e-06	12693.9
0.0215268	24.5553	5.51782	25.1676	-12.6646	320.854	0.282412	-0.0187632	1.3399e+06	64405.7	1	12	0.0046297	0.000183955	0	-0.00184699	0.0387669	0.0087113	0.0397336	12.6646	6.44057e+07	2.86617e+08	2.93764e+08	-77.3354	0.0000000E+000	0.0000000E+000	0.0000000E+000	77.3354	0.0000000E+000	0.0000000E+000	0.0000000E+000	-77.3354	0.0000000E+000	0.0000000E+000	0.0000000E+000	-12.6646	0.0000000E+000	0.0000000E+000	0.0000000E+000	12.6646	4.45018	77.3354	-0.000274231	-5.29894e-06	15051.4
0.0100092	26.9022	9.12681	28.4082	-18.7399	674.07	0.282555	-0.0174101	1.74222e+06	179826	1	12	0.00462655	0.000162859	0	-0.00331881	0.0333349	0.0113092	0.0352011	18.7399	1.79826e+08	5.30056e+08	5.59729e+08	-71.2601	0.0000000E+000	0.0000000E+000	0.0000000E+000	71.2601	0.0000000E+000	0.0000000E+000	0.0000000E+000	-71.2601	0.0000000E+000	0.0000000E+000	0.0000000E+000	-18.7399	0.0000000E+000	0.0000000E+000	0.0000000E+000	18.7399	2.9476	71.2601	-0.000982474	-4.91931e-06	16229.4

File: 17420_R282_UA652_SOC00_C05.mpt
EC-Lab ASCII FILE
Nb header lines : 64

Potentio Electrochemical Impedance Spectroscopy

Run on channel : 5 (SN 65912)
User :
CE vs. WE compliance from -10 V to 10 V
Electrode connection : standard
Potential control : Ewe
Ewe ctrl range : min = -10.00 V, max = 10.00 V
Safety Limits :
	Do not start on E overload
Acquisition started on : 09/08/2025 17:24:23.855
Loaded Setting File :  C:\Users\Celltest\OneDrive - store-dot.com\Documents\EC-Lab\Data\Michael\R278\UC74_NCMA_16706_EIS_50_SOC.mps
Saved on :
	File : 17420_C05.mpr
	Directory : C:\Users\Celltest\OneDrive - store-dot.com\Documents\EC-Lab\Data\Gyutae\R282\
	Host : 169.254.61.224
Device : VMP-3e (SN .003165)
Address : USB
EC-LAB for windows v11.62 (software)
Internet server v27.00 (firmware)
Command interpretor v12.03 (firmware)
Electrode material :
Initial state :
Electrolyte :
Comments :
Electrode surface area : 0.001 cm²
Characteristic mass : 0.001 g
Equivalent Weight : 0.000 g/eq.
Density : 0.000 g/cm3
Volume (V) : 0.001 cm³
Record Ece
Cycle Definition : Charge/Discharge alternance
Mode                Multi sine
E (V)               0.0000
vs.                 Eoc
tE (h:m:s)          0:00:0.0000
record              0
dI                  0.000
unit dI             mA
dt (s)              0.000
fi                  1.000
unit fi             MHz
ff                  0.100
unit ff             mHz
Nd                  10
Points              per decade
spacing             Logarithmic
Va (mV)             5.0
pw                  0.10
Na                  2
corr                0
E range min (V)     -10.000
E range max (V)     10.000
I Range             Auto
Bandwidth           5
nc cycles           0
goto Ns'            0
nr cycles           0
inc. cycle          0

freq/Hz	Re(Z)/Ohm	-Im(Z)/Ohm	|Z|/Ohm	Phase(Z)/deg	time/s	<Ewe>/V	<I>/mA	Cs/µF	Cp/µF	cycle number	I Range	|Ewe|/V	|I|/A	Ns	(Q-Qo)/mA.h	<Ece>/V	|Ece|/V	Phase(Zce)/deg	|Zce|/Ohm	Re(Zce)/Ohm	-Im(Zce)/Ohm	Phase(Zwe-ce)/deg	|Zwe-ce|/Ohm	Re(Zwe-ce)/Ohm	-Im(Zwe-ce)/Ohm	Re(Y)/Ohm-1	Im(Y)/Ohm-1	|Y|/Ohm-1	Phase(Y)/deg	Re(C)/nF	Im(C)/nF	|C|/nF	Phase(C)/deg	Re(M)	Im(M)	|M|	Phase(M)/deg	Re(Permittivity)	Im(Permittivity)	|Permittivity|	Phase(Permittivity)/deg	Re(Resistivity)/Ohm.cm	Im(Resistivity)/Ohm.cm	|Resistivity|/Ohm.cm	Phase(Resistivity)/deg	Re(Conductivity)/mS/cm	Im(Conductivity)/mS/cm	|Conductivity|/mS/cm	Phase(Conductivity)/deg	Tan(Delta)	Loss Angle(Delta)/deg	dq/mA.h	Pwe/W	Pce/W	Pwe-ce/W	<Ewe-Ece>/V	Rwe/Ohm	Rce/Ohm	Rwe-ce/Ohm		Ewe-Ece/V
1.00002e+06	2.94452	2.07231	3.60065	-35.1373	2.26657	0.283955	0.0601458	0.0767992	0.0254393	1	10	0.000260732	7.24125e-05	0	1.24228e-05	0.000338839	0.000191079	-67.5679	2.63876	1.00692	2.43909	-48.7856	5.99722	3.95144	4.5114	0.227119	0.159843	0.277727	35.1373	25.4393	36.1464	44.2009	-54.8627	0.0000000E+000	0.0000000E+000	0.0000000E+000	54.8627	0.0000000E+000	0.0000000E+000	0.0000000E+000	-54.8627	0.0000000E+000	0.0000000E+000	0.0000000E+000	-35.1373	0.0000000E+000	0.0000000E+000	0.0000000E+000	35.1373	1.42089	54.8627	1.24228e-05	1.70787e-05	2.03798e-08	1.70583e-05	0.283616	4721.1	5.63363	4715.47
251206	2.02487	0.230978	2.03801	-6.50762	4.84754	0.282321	-0.0305954	2.74296	0.035233	1	9	0.00543591	0.00266727	0	5.17012e-06	-4.29852e-05	4.55758e-05	92.2956	0.0170871	-0.000684422	-0.0170734	-6.0323	2.03546	2.02419	0.213905	0.487514	0.0556109	0.490676	6.50762	35.233	308.871	310.874	-83.4924	0.0000000E+000	0.0000000E+000	0.0000000E+000	83.4924	0.0000000E+000	0.0000000E+000	0.0000000E+000	-83.4924	0.0000000E+000	0.0000000E+000	0.0000000E+000	-6.50762	0.0000000E+000	0.0000000E+000	0.0000000E+000	6.50762	8.76652	83.4924	-6.52443e-07	-8.63773e-06	1.31515e-09	-8.63905e-06	0.282364	9227.57	1.40496	9228.97
63093.8	2.38342	0.420919	2.42031	-10.0153	7.14752	0.282055	-0.0326808	5.99287	0.181255	1	9	0.00531147	0.00219454	0	-8.89606e-06	0.000167018	2.39114e-05	55.3618	0.0108958	0.00619311	-0.00896464	-9.78127	2.42487	2.38962	0.411954	0.406875	0.0718551	0.413171	10.0153	181.255	1026.35	1042.23	-79.9847	0.0000000E+000	0.0000000E+000	0.0000000E+000	79.9847	0.0000000E+000	0.0000000E+000	0.0000000E+000	-79.9847	0.0000000E+000	0.0000000E+000	0.0000000E+000	-10.0153	0.0000000E+000	0.0000000E+000	0.0000000E+000	10.0153	5.66244	79.9847	-1.51826e-06	-9.2178e-06	-5.4583e-09	-9.21234e-06	0.281888	8630.59	5.11058	8625.48
15847.7	2.79464	0.627366	2.8642	-12.6525	9.44752	0.282053	-0.0234454	16.0079	0.768016	1	9	0.00510859	0.0017836	0	-2.82211e-05	0.000109745	1.10892e-05	-118.96	0.00621731	-0.00301042	0.00543988	-12.772	2.86246	2.79163	0.632806	0.34066	0.0764744	0.349138	12.6525	768.016	3421.18	3506.32	-77.3475	0.0000000E+000	0.0000000E+000	0.0000000E+000	77.3475	0.0000000E+000	0.0000000E+000	0.0000000E+000	-77.3475	0.0000000E+000	0.0000000E+000	0.0000000E+000	-12.6525	0.0000000E+000	0.0000000E+000	0.0000000E+000	12.6525	4.45456	77.3475	-3.94065e-06	-6.61285e-06	-2.573e-09	-6.61027e-06	0.281943	12030.2	4.68086	12025.5
3983.6	3.40616	0.998923	3.54961	-16.3448	11.1731	0.28196	-0.0364793	39.9956	3.16749	1	9	0.00514747	0.00145015	0	-3.99242e-05	1.42885e-05	1.89317e-06	114.249	0.0013055	-0.000536175	-0.00119031	-16.3288	3.54876	3.40562	0.997733	0.270335	0.0792812	0.281721	16.3448	3167.49	10800.6	11255.5	-73.6552	0.0000000E+000	0.0000000E+000	0.0000000E+000	73.6552	0.0000000E+000	0.0000000E+000	0.0000000E+000	-73.6552	0.0000000E+000	0.0000000E+000	0.0000000E+000	-16.3448	0.0000000E+000	0.0000000E+000	0.0000000E+000	16.3448	3.40983	73.6552	-1.97867e-06	-1.02857e-05	-5.21233e-10	-1.02852e-05	0.281945	7729.3	0.391687	7728.91
1000.32	4.39356	1.67124	4.70068	-20.826	14.0479	0.282055	-0.0118053	95.2012	12.0337	1	10	0.00510545	0.00108611	0	-5.22191e-05	0.00035793	8.08291e-06	-46.3552	0.00744208	0.00513641	0.00538533	-20.865	4.7074	4.39869	1.67662	0.198836	0.075634	0.212735	20.826	12033.7	31635.6	33847	-69.174	0.0000000E+000	0.0000000E+000	0.0000000E+000	69.174	0.0000000E+000	0.0000000E+000	0.0000000E+000	-69.174	0.0000000E+000	0.0000000E+000	0.0000000E+000	-20.826	0.0000000E+000	0.0000000E+000	0.0000000E+000	20.826	2.62892	69.174	-1.78842e-06	-3.32975e-06	-4.22549e-09	-3.32552e-06	0.281697	23892.1	30.3194	23861.8
251.044	6.08508	2.84098	6.71561	-25.0268	16.749	0.282062	-0.0123788	223.152	39.9363	1	10	0.00503007	0.000749012	0	-6.21239e-05	7.15621e-05	1.17126e-05	-19.6429	0.0156374	0.0147274	0.00525662	-25.0143	6.73118	6.09981	2.84624	0.134926	0.0629938	0.148907	25.0268	39936.3	85539.2	94402.7	-64.9732	0.0000000E+000	0.0000000E+000	0.0000000E+000	64.9732	0.0000000E+000	0.0000000E+000	0.0000000E+000	-64.9732	0.0000000E+000	0.0000000E+000	0.0000000E+000	-25.0268	0.0000000E+000	0.0000000E+000	0.0000000E+000	25.0268	2.14189	64.9732	-1.7019e-06	-3.49158e-06	-8.8585e-10	-3.4907e-06	0.281991	22786	5.78104	22780.2
63.0823	9.303	4.72994	10.4364	-26.9502	19.471	0.282071	-0.0100181	533.405	109.564	1	10	0.00501087	0.000480135	0	-7.21068e-05	-2.3894e-05	6.16447e-06	27.1133	0.0128391	0.0114281	-0.00585143	-26.8932	10.4439	9.31443	4.72409	0.0854127	0.0434266	0.0958186	26.9502	109564	215494	241748	-63.0498	0.0000000E+000	0.0000000E+000	0.0000000E+000	63.0498	0.0000000E+000	0.0000000E+000	0.0000000E+000	-63.0498	0.0000000E+000	0.0000000E+000	0.0000000E+000	-26.9502	0.0000000E+000	0.0000000E+000	0.0000000E+000	26.9502	1.96683	63.0498	-1.10536e-06	-2.82583e-06	2.39373e-10	-2.82606e-06	0.282095	28156.1	2.38507	28158.5
[...]
0.0602816	26.7048	3.58311	26.9441	-7.64201	240.104	0.282038	-0.00698371	736842	13030.7	1	11	0.00509515	0.000189101	0	-0.00126913	-8.11676e-05	8.50244e-07	-33.4457	0.00449625	0.00375171	0.00247809	-7.64617	26.9482	26.7086	3.58559	0.0367842	0.00493551	0.0371138	7.64201	1.30307e+07	9.71173e+07	9.79876e+07	-82.358	0.0000000E+000	0.0000000E+000	0.0000000E+000	82.358	0.0000000E+000	0.0000000E+000	0.0000000E+000	-82.358	0.0000000E+000	0.0000000E+000	0.0000000E+000	-7.64201	0.0000000E+000	0.0000000E+000	0.0000000E+000	7.64201	7.45296	82.358	0.000000000000000E+000	-1.96967e-06	5.66852e-10	-1.97024e-06	0.282119	40385.1	11.6224	40396.7
0.00796479	34.3773	11.362	36.2063	-18.2891	20329	0.282013	-0.00995194	1.7587e+06	173194	1	11	0.00509139	0.000140622	0	-0.0763266	-0.000138441	2.69928e-06	-6.42115	0.0191954	0.019075	0.00214673	-18.2829	36.2251	34.3964	11.3641	0.0262243	0.00866734	0.0276195	18.2891	1.73194e+08	5.24023e+08	5.51902e+08	-71.7109	0.0000000E+000	0.0000000E+000	0.0000000E+000	71.7109	0.0000000E+000	0.0000000E+000	0.0000000E+000	-71.7109	0.0000000E+000	0.0000000E+000	0.0000000E+000	-18.2891	0.0000000E+000	0.0000000E+000	0.0000000E+000	18.2891	3.02565	71.7109	-0.0750574	-2.80658e-06	1.37776e-09	-2.80795e-06	0.282151	28337.5	13.911	28351.4
0.0019912	46.218	26.3499	53.2017	-29.6884	20329	0.282013	-0.00995194	3.03338e+06	744105	1	11	0.0051017	9.58936e-05	0	-0.0763266	-0.000138441	1.98141e-06	-22.4971	0.0206626	0.0190901	0.00790625	-29.6856	53.2222	46.2371	26.3578	0.016329	0.00930954	0.0187964	29.6884	7.44105e+08	1.30517e+09	1.50238e+09	-60.3116	0.0000000E+000	0.0000000E+000	0.0000000E+000	60.3116	0.0000000E+000	0.0000000E+000	0.0000000E+000	-60.3116	0.0000000E+000	0.0000000E+000	0.0000000E+000	-29.6884	0.0000000E+000	0.0000000E+000	0.0000000E+000	29.6884	1.75401	60.3116	0.000000000000000E+000	-2.80658e-06	1.37776e-09	-2.80795e-06	0.282151	28337.5	13.911	28351.4
0.000497799	66.971	63.6245	92.3753	-43.5321	20329	0.282013	-0.00995194	5.02506e+06	2.38385e+06	1	11	0.00510085	5.52187e-05	0	-0.0763266	-0.000138441	1.25417e-06	-81.4566	0.0227128	0.0033742	0.0224608	-43.5408	92.3932	66.9744	63.647	0.0078483	0.00745612	0.0108254	43.5321	2.38385e+09	2.50923e+09	3.46107e+09	-46.4679	0.0000000E+000	0.0000000E+000	0.0000000E+000	46.4679	0.0000000E+000	0.0000000E+000	0.0000000E+000	-46.4679	0.0000000E+000	0.0000000E+000	0.0000000E+000	-43.5321	0.0000000E+000	0.0000000E+000	0.0000000E+000	43.5321	1.0526	46.4679	0.000000000000000E+000	-2.80658e-06	1.37776e-09	-2.80795e-06	0.282151	28337.5	13.911	28351.4
9.95598e-05	183.923	291.866	344.983	-57.7824	20329	0.282013	-0.00995194	5.47713e+06	3.92034e+06	1	11	0.00510058	1.4785e-05	0	-0.0763266	-0.000138441	2.45611e-06	68.192	0.166121	0.0617135	-0.154233	-57.76	344.885	183.985	291.711	0.0015454	0.00245238	0.00289869	57.7824	3.92034e+09	2.47046e+09	4.63381e+09	-32.2176	0.0000000E+000	0.0000000E+000	0.0000000E+000	32.2176	0.0000000E+000	0.0000000E+000	0.0000000E+000	-32.2176	0.0000000E+000	0.0000000E+000	0.0000000E+000	-57.7824	0.0000000E+000	0.0000000E+000	0.0000000E+000	57.7824	0.630164	32.2176	0.000000000000000E+000	-2.80658e-06	1.37776e-09	-2.80795e-06	0.282151	28337.5	13.911	28351.4