Folder: EIS/txt (part 105)

File: 18689_R307_UC91_23p8_SOC50_C01.mpt
EC-Lab ASCII FILE
Nb header lines : 65

Potentio Electrochemical Impedance Spectroscopy

Run on channel : 1 (SN 66354)
User :
CE vs. WE compliance from -10 V to 10 V
Electrode connection : standard
Potential control : Ewe
Ewe ctrl range : min = -10.00 V, max = 10.00 V
Safety Limits :
	Do not start on E overload
Acquisition started on : 10/28/2025 15:55:22.292
Technique started on : 10/28/2025 15:55:24.987
Loaded Setting File :  C:\Users\Celltest\OneDrive - store-dot.com\Documents\EC-Lab\Data\@Biologic Test Protocols\cathode half cell EIS SOC50.mps
Saved on :
	File : 18689_R307_UC91_23p8_SOC50_C01.mpr
	Directory : C:\Users\Celltest\OneDrive - store-dot.com\Documents\EC-Lab\Data\Anna\
	Host : 169.254.61.224
Device : VMP-3e (SN .003165)
Address : USB
EC-LAB for windows v11.62 (software)
Internet server v27.00 (firmware)
Command interpretor v12.03 (firmware)
Electrode material :
Initial state :
Electrolyte :
Comments :
Electrode surface area : 0.001 cm²
Characteristic mass : 0.001 g
Equivalent Weight : 0.000 g/eq.
Density : 0.000 g/cm3
Volume (V) : 0.001 cm³
Record Ece
Cycle Definition : Charge/Discharge alternance
Mode                Multi sine
E (V)               0.0000
vs.                 Eoc
tE (h:m:s)          0:00:0.0000
record              0
dI                  0.000
unit dI             mA
dt (s)              0.000
fi                  1.000
unit fi             MHz
ff                  0.100
unit ff             mHz
Nd                  10
Points              per decade
spacing             Logarithmic
Va (mV)             5.0
pw                  0.10
Na                  2
corr                0
E range min (V)     -10.000
E range max (V)     10.000
I Range             Auto
Bandwidth           5
nc cycles           0
goto Ns'            0
nr cycles           0
inc. cycle          0

freq/Hz	Re(Z)/Ohm	-Im(Z)/Ohm	|Z|/Ohm	Phase(Z)/deg	time/s	<Ewe>/V	<I>/mA	Cs/µF	Cp/µF	cycle number	I Range	|Ewe|/V	|I|/A	Ns	(Q-Qo)/mA.h	<Ece>/V	|Ece|/V	Phase(Zce)/deg	|Zce|/Ohm	Re(Zce)/Ohm	-Im(Zce)/Ohm	Phase(Zwe-ce)/deg	|Zwe-ce|/Ohm	Re(Zwe-ce)/Ohm	-Im(Zwe-ce)/Ohm	Re(Y)/Ohm-1	Im(Y)/Ohm-1	|Y|/Ohm-1	Phase(Y)/deg	Re(C)/nF	Im(C)/nF	|C|/nF	Phase(C)/deg	Re(M)	Im(M)	|M|	Phase(M)/deg	Re(Permittivity)	Im(Permittivity)	|Permittivity|	Phase(Permittivity)/deg	Re(Resistivity)/Ohm.cm	Im(Resistivity)/Ohm.cm	|Resistivity|/Ohm.cm	Phase(Resistivity)/deg	Re(Conductivity)/mS/cm	Im(Conductivity)/mS/cm	|Conductivity|/mS/cm	Phase(Conductivity)/deg	Tan(Delta)	Loss Angle(Delta)/deg	dq/mA.h	Pwe/W	Pce/W	Pwe-ce/W	<Ewe-Ece>/V	Rwe/Ohm	Rce/Ohm	Rwe-ce/Ohm		Ewe-Ece/V
1.00002e+06	1.92176	2.65599	3.27833	-54.1121	2.69455	3.96717	0.00275747	0.0599218	0.0393308	1	10	0.000217287	6.62796e-05	0	4.88739e-06	0.000154958	0.000189273	-69.6729	2.85567	0.992003	2.67783	-61.3531	6.07781	2.91377	5.33383	0.178811	0.247127	0.305033	54.1121	39.3308	28.4581	48.5466	-35.8879	0.0000000E+000	0.0000000E+000	0.0000000E+000	35.8879	0.0000000E+000	0.0000000E+000	0.0000000E+000	-35.8879	0.0000000E+000	0.0000000E+000	0.0000000E+000	-54.1121	0.0000000E+000	0.0000000E+000	0.0000000E+000	54.1121	0.723558	35.8879	4.88739e-06	1.09394e-05	4.27293e-10	1.09389e-05	3.96702	1.4387e+06	56.1957	1.43864e+06
251206	1.0237	0.40326	1.10027	-21.5006	5.39854	3.96693	0.0418321	1.5711	0.211047	1	9	0.00285376	0.0025937	0	3.77209e-05	0.00021219	9.31967e-05	116.008	0.0359319	-0.0157559	-0.0322933	-20.2057	1.07404	1.00795	0.370966	0.845626	0.333111	0.908871	21.5006	211.047	535.758	575.827	-68.4994	0.0000000E+000	0.0000000E+000	0.0000000E+000	68.4994	0.0000000E+000	0.0000000E+000	0.0000000E+000	-68.4994	0.0000000E+000	0.0000000E+000	0.0000000E+000	-21.5006	0.0000000E+000	0.0000000E+000	0.0000000E+000	21.5006	2.53857	68.4994	5.3842e-06	0.000165945	8.87635e-09	0.000165936	3.96672	94829.9	5.07243	94824.8
63093.8	1.56067	1.18143	1.95741	-37.1258	7.69656	3.96686	0.0682081	2.13514	0.777817	1	9	0.00503222	0.00257086	0	7.25091e-05	7.86489e-05	2.22802e-05	77.6098	0.00866647	0.00185955	-0.00846462	-36.895	1.9538	1.56252	1.17296	0.407331	0.30835	0.51088	37.1258	777.817	1027.5	1288.7	-52.8742	0.0000000E+000	0.0000000E+000	0.0000000E+000	52.8742	0.0000000E+000	0.0000000E+000	0.0000000E+000	-52.8742	0.0000000E+000	0.0000000E+000	0.0000000E+000	-37.1258	0.0000000E+000	0.0000000E+000	0.0000000E+000	37.1258	1.321	52.8742	1.11869e-05	0.000270572	5.36449e-09	0.000270567	3.96678	58158.1	1.15307	58157
15847.7	3.08697	2.22163	3.80329	-35.7418	10.2446	3.96684	0.0584847	4.52047	1.54243	1	9	0.00494504	0.0013002	0	0.000115079	0.000269422	1.32067e-05	-104.106	0.0101574	-0.00247547	0.00985114	-35.8839	3.80704	3.08449	2.23148	0.21341	0.153586	0.26293	35.7418	1542.43	2143.23	2640.55	-54.2582	0.0000000E+000	0.0000000E+000	0.0000000E+000	54.2582	0.0000000E+000	0.0000000E+000	0.0000000E+000	-54.2582	0.0000000E+000	0.0000000E+000	0.0000000E+000	-35.7418	0.0000000E+000	0.0000000E+000	0.0000000E+000	35.7418	1.38951	54.2582	7.00435e-06	0.000232	1.57571e-08	0.000231984	3.96657	67827	4.60671	67822.4
3983.6	5.27112	3.24239	6.18852	-31.5967	12.1241	3.96667	-0.0273413	12.3219	3.38249	1	10	0.00483978	0.000782058	0	0.000117503	0.000154958	7.48014e-06	22.1246	0.00956469	0.00886041	-0.00360227	-31.5253	6.19418	5.27998	3.23879	0.137635	0.0846626	0.16159	31.5967	3382.49	5498.87	6455.91	-58.4033	0.0000000E+000	0.0000000E+000	0.0000000E+000	58.4033	0.0000000E+000	0.0000000E+000	0.0000000E+000	-58.4033	0.0000000E+000	0.0000000E+000	0.0000000E+000	-31.5967	0.0000000E+000	0.0000000E+000	0.0000000E+000	31.5967	1.62569	58.4034	-2.63687e-06	-0.000108454	-4.23675e-09	-0.00010845	3.96652	145080	5.66755	145074
1000.32	8.84065	5.10616	10.2093	-30.0098	14.7518	3.96665	0.00201209	31.1592	7.79441	1	10	0.00461429	0.000451969	0	0.000116881	0.000250345	8.76831e-06	6.57918	0.0194003	0.0192725	-0.0022228	-29.945	10.2249	8.85992	5.10394	0.0848187	0.0489894	0.0979498	30.0098	7794.41	13495	15584.2	-59.9902	0.0000000E+000	0.0000000E+000	0.0000000E+000	59.9902	0.0000000E+000	0.0000000E+000	0.0000000E+000	-59.9902	0.0000000E+000	0.0000000E+000	0.0000000E+000	-30.0098	0.0000000E+000	0.0000000E+000	0.0000000E+000	30.0098	1.73137	59.9902	7.13552e-07	7.98128e-06	5.03717e-10	7.98077e-06	3.9664	1.9714e+06	124.42	1.97128e+06
251.044	14.8856	5.3803	15.8281	-19.8721	17.452	3.96664	0.00118844	117.832	13.615	1	10	0.00457474	0.000289026	0	0.000118342	0.000154958	3.67685e-06	64.2445	0.0127215	0.00552789	-0.0114577	-19.8263	15.8294	14.8911	5.36885	0.0594167	0.0214758	0.0631788	19.8721	13615.1	37668.5	40053.6	-70.1279	0.0000000E+000	0.0000000E+000	0.0000000E+000	70.1279	0.0000000E+000	0.0000000E+000	0.0000000E+000	-70.1279	0.0000000E+000	0.0000000E+000	0.0000000E+000	-19.8721	0.0000000E+000	0.0000000E+000	0.0000000E+000	19.8721	2.76668	70.1279	1.14026e-08	4.7141e-06	1.84158e-10	4.71391e-06	3.96648	3.33769e+06	130.388	3.33756e+06
[...]
0.0602816	24.6256	3.18409	24.8306	-7.36746	240.8	3.9667	-0.000534676	829183	13634.7	1	11	0.00502645	0.00020243	0	-0.000749688	0.00021219	3.80225e-07	-44.4135	0.00187831	0.00134169	0.0013145	-7.37007	24.8321	24.6269	3.1854	0.0399404	0.00516428	0.0402729	7.36746	1.36347e+07	1.0545e+08	1.06328e+08	-82.6325	0.0000000E+000	0.0000000E+000	0.0000000E+000	82.6325	0.0000000E+000	0.0000000E+000	0.0000000E+000	-82.6325	0.0000000E+000	0.0000000E+000	0.0000000E+000	-7.36746	0.0000000E+000	0.0000000E+000	0.0000000E+000	7.36746	7.73396	82.6325	0.000000000000000E+000	-2.1209e-06	-1.13453e-10	-2.12079e-06	3.96649	7.41888e+06	396.857	7.41848e+06
0.00796479	33.8538	6.97943	34.5657	-11.6491	20329.7	3.96671	0.000679038	2.86303e+06	116728	1	11	0.00502026	0.000145238	0	-0.00367009	0.00021219	3.5388e-07	-8.42409	0.00243655	0.00241026	0.000356952	-11.6489	34.5682	33.8562	6.97979	0.0283345	0.00584155	0.0289304	11.6491	1.16728e+08	5.66189e+08	5.78096e+08	-78.3509	0.0000000E+000	0.0000000E+000	0.0000000E+000	78.3509	0.0000000E+000	0.0000000E+000	0.0000000E+000	-78.3509	0.0000000E+000	0.0000000E+000	0.0000000E+000	-11.6491	0.0000000E+000	0.0000000E+000	0.0000000E+000	11.6491	4.8505	78.3509	-0.0029204	2.69355e-06	1.44085e-10	2.6934e-06	3.96649	5.84165e+06	312.486	5.84134e+06
0.0019912	40.2498	10.1499	41.5099	-14.1533	20329.7	3.96671	0.000679038	7.87489e+06	470831	1	11	0.00503299	0.000121248	0	-0.00367009	0.00021219	4.90172e-07	-16.8194	0.00404272	0.00386978	0.00116978	-14.1536	41.5139	40.2537	10.1511	0.0233594	0.00589059	0.0240907	14.1533	4.70831e+08	1.8671e+09	1.92555e+09	-75.8467	0.0000000E+000	0.0000000E+000	0.0000000E+000	75.8467	0.0000000E+000	0.0000000E+000	0.0000000E+000	-75.8467	0.0000000E+000	0.0000000E+000	0.0000000E+000	-14.1533	0.0000000E+000	0.0000000E+000	0.0000000E+000	14.1533	3.96554	75.8467	0.000000000000000E+000	2.69355e-06	1.44085e-10	2.6934e-06	3.96649	5.84165e+06	312.486	5.84134e+06
0.000497799	44.3759	18.2823	47.9944	-22.391	20329.7	3.96671	0.000679038	1.74878e+07	2.53755e+06	1	11	0.00503724	0.000104955	0	-0.00367009	0.00021219	4.37776e-07	-16.9272	0.0041711	0.00399039	0.00121445	-22.3906	47.9986	44.3799	18.2835	0.0192649	0.00793687	0.0208358	22.391	2.53755e+09	6.15931e+09	6.66155e+09	-67.609	0.0000000E+000	0.0000000E+000	0.0000000E+000	67.609	0.0000000E+000	0.0000000E+000	0.0000000E+000	-67.609	0.0000000E+000	0.0000000E+000	0.0000000E+000	-22.391	0.0000000E+000	0.0000000E+000	0.0000000E+000	22.391	2.42726	67.609	0.000000000000000E+000	2.69355e-06	1.44085e-10	2.6934e-06	3.96649	5.84165e+06	312.486	5.84134e+06
9.95598e-05	50.0027	89.9397	102.905	-60.9278	20329.7	3.96671	0.000679038	1.7774e+07	1.35774e+07	1	11	0.00503621	4.89404e-05	0	-0.00367009	0.00021219	1.36445e-06	-57.4349	0.0278798	0.0150065	0.0234966	-60.9269	102.933	50.0177	89.9632	0.00472194	0.00849335	0.00971771	60.9278	1.35774e+10	7.54843e+09	1.55346e+10	-29.0722	0.0000000E+000	0.0000000E+000	0.0000000E+000	29.0722	0.0000000E+000	0.0000000E+000	0.0000000E+000	-29.0722	0.0000000E+000	0.0000000E+000	0.0000000E+000	-60.9278	0.0000000E+000	0.0000000E+000	0.0000000E+000	60.9278	0.555957	29.0722	0.000000000000000E+000	2.69355e-06	1.44085e-10	2.6934e-06	3.96649	5.84165e+06	312.486	5.84134e+06

File: 18690_R307_UC91_23p8_SOC50_C02.mpt
EC-Lab ASCII FILE
Nb header lines : 65

Potentio Electrochemical Impedance Spectroscopy

Run on channel : 2 (SN 66139)
User :
CE vs. WE compliance from -10 V to 10 V
Electrode connection : standard
Potential control : Ewe
Ewe ctrl range : min = -10.00 V, max = 10.00 V
Safety Limits :
	Do not start on E overload
Acquisition started on : 10/28/2025 15:55:28.556
Technique started on : 10/28/2025 15:55:31.250
Loaded Setting File :  C:\Users\Celltest\OneDrive - store-dot.com\Documents\EC-Lab\Data\@Biologic Test Protocols\cathode half cell EIS SOC50.mps
Saved on :
	File : 18690_R307_UC91_23p8_SOC50_C02.mpr
	Directory : C:\Users\Celltest\OneDrive - store-dot.com\Documents\EC-Lab\Data\Anna\
	Host : 169.254.61.224
Device : VMP-3e (SN .003165)
Address : USB
EC-LAB for windows v11.62 (software)
Internet server v27.00 (firmware)
Command interpretor v12.03 (firmware)
Electrode material :
Initial state :
Electrolyte :
Comments :
Electrode surface area : 0.001 cm²
Characteristic mass : 0.001 g
Equivalent Weight : 0.000 g/eq.
Density : 0.000 g/cm3
Volume (V) : 0.001 cm³
Record Ece
Cycle Definition : Charge/Discharge alternance
Mode                Multi sine
E (V)               0.0000
vs.                 Eoc
tE (h:m:s)          0:00:0.0000
record              0
dI                  0.000
unit dI             mA
dt (s)              0.000
fi                  1.000
unit fi             MHz
ff                  0.100
unit ff             mHz
Nd                  10
Points              per decade
spacing             Logarithmic
Va (mV)             5.0
pw                  0.10
Na                  2
corr                0
E range min (V)     -10.000
E range max (V)     10.000
I Range             Auto
Bandwidth           5
nc cycles           0
goto Ns'            0
nr cycles           0
inc. cycle          0

freq/Hz	Re(Z)/Ohm	-Im(Z)/Ohm	|Z|/Ohm	Phase(Z)/deg	time/s	<Ewe>/V	<I>/mA	Cs/µF	Cp/µF	cycle number	I Range	|Ewe|/V	|I|/A	Ns	(Q-Qo)/mA.h	<Ece>/V	|Ece|/V	Phase(Zce)/deg	|Zce|/Ohm	Re(Zce)/Ohm	-Im(Zce)/Ohm	Phase(Zwe-ce)/deg	|Zwe-ce|/Ohm	Re(Zwe-ce)/Ohm	-Im(Zwe-ce)/Ohm	Re(Y)/Ohm-1	Im(Y)/Ohm-1	|Y|/Ohm-1	Phase(Y)/deg	Re(C)/nF	Im(C)/nF	|C|/nF	Phase(C)/deg	Re(M)	Im(M)	|M|	Phase(M)/deg	Re(Permittivity)	Im(Permittivity)	|Permittivity|	Phase(Permittivity)/deg	Re(Resistivity)/Ohm.cm	Im(Resistivity)/Ohm.cm	|Resistivity|/Ohm.cm	Phase(Resistivity)/deg	Re(Conductivity)/mS/cm	Im(Conductivity)/mS/cm	|Conductivity|/mS/cm	Phase(Conductivity)/deg	Tan(Delta)	Loss Angle(Delta)/deg	dq/mA.h	Pwe/W	Pce/W	Pwe-ce/W	<Ewe-Ece>/V	Rwe/Ohm	Rce/Ohm	Rwe-ce/Ohm		Ewe-Ece/V
1.00002e+06	1.01135	-0.355429	1.07199	19.3635	2.69353	3.9667	-0.0597402	-0.447774	-0.0492247	1	9	0.000217504	0.000202898	0	-2.29314e-05	-0.000305111	0.000177945	1.65773	0.877019	0.876652	-0.0253711	11.4033	1.92602	1.888	-0.3808	0.880077	-0.309293	0.932844	-19.3635	-49.2247	140.066	148.464	-109.363	0.0000000E+000	0.0000000E+000	0.0000000E+000	109.363	0.0000000E+000	0.0000000E+000	0.0000000E+000	-109.363	0.0000000E+000	0.0000000E+000	0.0000000E+000	19.3635	0.0000000E+000	0.0000000E+000	0.0000000E+000	-19.3635	2.84544	70.6365	-2.29314e-05	-0.000236972	1.82274e-08	-0.00023699	3.96701	66399.2	5.1073	66404.3
251206	1.16666	0.517376	1.27623	-23.9158	4.99352	3.9667	-0.049423	1.22457	0.20125	1	9	0.00328964	0.00257762	0	-5.81227e-05	-0.000209657	2.62997e-05	-21.5893	0.0102031	0.00948729	0.00375424	-23.8973	1.28643	1.17614	0.52113	0.716282	0.317649	0.783557	23.9158	201.25	453.81	496.433	-66.0842	0.0000000E+000	0.0000000E+000	0.0000000E+000	66.0842	0.0000000E+000	0.0000000E+000	0.0000000E+000	-66.0842	0.0000000E+000	0.0000000E+000	0.0000000E+000	-23.9158	0.0000000E+000	0.0000000E+000	0.0000000E+000	23.9158	2.25495	66.0842	-4.25593e-06	-0.000196046	1.03619e-08	-0.000196057	3.96691	80260.2	4.24209	80264.5
63093.8	1.91672	1.38238	2.36322	-35.7999	7.54353	3.9666	-0.0328859	1.82476	0.624385	1	9	0.00505427	0.00213872	0	-7.35516e-05	0.000114888	1.77497e-05	79.3336	0.00829923	0.00153611	-0.00815583	-35.6175	2.35971	1.91826	1.37422	0.343203	0.247525	0.423151	35.7999	624.385	865.734	1067.4	-54.2001	0.0000000E+000	0.0000000E+000	0.0000000E+000	54.2001	0.0000000E+000	0.0000000E+000	0.0000000E+000	-54.2001	0.0000000E+000	0.0000000E+000	0.0000000E+000	-35.7999	0.0000000E+000	0.0000000E+000	0.0000000E+000	35.7999	1.38654	54.2001	-7.37893e-06	-0.000130445	-3.77818e-09	-0.000130441	3.96649	120617	3.49352	120614
15847.7	3.58376	2.12542	4.16663	-30.6709	9.96951	3.96661	-0.0364615	4.72507	1.22951	1	9	0.00457686	0.00109846	0	-9.25586e-05	0.000267614	1.46222e-05	-104.701	0.0133116	-0.00337823	0.0128758	-30.8468	4.17031	3.58038	2.1383	0.206429	0.122427	0.240002	30.6709	1229.51	2073.12	2410.29	-59.3291	0.0000000E+000	0.0000000E+000	0.0000000E+000	59.3291	0.0000000E+000	0.0000000E+000	0.0000000E+000	-59.3291	0.0000000E+000	0.0000000E+000	0.0000000E+000	-30.6709	0.0000000E+000	0.0000000E+000	0.0000000E+000	30.6709	1.68614	59.3291	-3.59187e-06	-0.000144629	-9.75762e-09	-0.000144619	3.96634	108789	7.33964	108782
3983.6	5.50844	2.90787	6.22886	-27.8293	11.8491	3.96651	-0.0522832	13.7395	2.99435	1	10	0.0046691	0.000749592	0	-0.000113437	-3.78392e-05	4.9668e-06	-50.4707	0.00662601	0.00421727	0.00511064	-27.8527	6.23497	5.51266	2.91298	0.141975	0.0749477	0.160543	27.8293	2994.35	5672.27	6414.1	-62.1707	0.0000000E+000	0.0000000E+000	0.0000000E+000	62.1707	0.0000000E+000	0.0000000E+000	0.0000000E+000	-62.1707	0.0000000E+000	0.0000000E+000	0.0000000E+000	-27.8293	0.0000000E+000	0.0000000E+000	0.0000000E+000	27.8293	1.89432	62.1707	-4.38806e-06	-0.000207382	1.97835e-09	-0.000207384	3.96654	75865.8	0.723736	75866.5
1000.32	8.73744	4.7607	9.95023	-28.5843	14.6908	3.96652	-0.0273131	33.4203	7.65043	1	10	0.00496717	0.000499202	0	-0.000138102	3.42479e-07	7.93043e-06	-24.2286	0.0158862	0.0144869	0.00651937	-28.5774	9.96607	8.75192	4.76722	0.0882506	0.0480845	0.1005	28.5843	7650.43	14041	15990	-61.4157	0.0000000E+000	0.0000000E+000	0.0000000E+000	61.4157	0.0000000E+000	0.0000000E+000	0.0000000E+000	-61.4157	0.0000000E+000	0.0000000E+000	0.0000000E+000	-28.5843	0.0000000E+000	0.0000000E+000	0.0000000E+000	28.5843	1.83532	61.4157	-3.69165e-06	-0.000108338	-9.35416e-12	-0.000108338	3.96652	145224	0.012539	145224
251.044	14.4302	5.20447	15.3401	-19.8326	17.3901	3.96652	-0.0278271	121.813	14.0214	1	10	0.00492081	0.000320781	0	-0.000158007	-1.87484e-05	8.1198e-06	34.0679	0.0253125	0.0209683	-0.0141795	-19.7563	15.355	14.4512	5.19029	0.0613223	0.0221168	0.0651888	19.8326	14021.4	38876.6	41327.8	-70.1674	0.0000000E+000	0.0000000E+000	0.0000000E+000	70.1674	0.0000000E+000	0.0000000E+000	0.0000000E+000	-70.1674	0.0000000E+000	0.0000000E+000	0.0000000E+000	-19.8326	0.0000000E+000	0.0000000E+000	0.0000000E+000	19.8326	2.77266	70.1674	-3.18022e-06	-0.000110377	5.21714e-10	-0.000110377	3.96653	142541	0.673744	142542
[...]
0.0602816	23.632	2.87214	23.8059	-6.92954	240.745	3.96653	-0.0197602	919240	13380.5	1	11	0.00499821	0.000209957	0	-0.00241077	0.00017216	3.42271e-07	0.816354	0.0016302	0.00163003	-2.32264e-05	-6.92901	23.8075	23.6336	2.87212	0.0416996	0.00506802	0.0420065	6.92954	1.33805e+07	1.10095e+08	1.10905e+08	-83.0705	0.0000000E+000	0.0000000E+000	0.0000000E+000	83.0705	0.0000000E+000	0.0000000E+000	0.0000000E+000	-83.0705	0.0000000E+000	0.0000000E+000	0.0000000E+000	-6.92954	0.0000000E+000	0.0000000E+000	0.0000000E+000	6.92954	8.22799	83.0705	0.000000000000000E+000	-7.83795e-05	-3.40191e-09	-7.8376e-05	3.96636	200734	8.71247	200725
0.00796479	31.8715	5.98774	32.4291	-10.6402	20329.7	3.96655	-0.000294179	3.33721e+06	113773	1	11	0.00499434	0.000154008	0	-0.0152485	0.000114888	3.28993e-07	163.591	0.0021362	-0.0020492	-0.000603452	-10.6398	32.4269	31.8694	5.98713	0.0303063	0.00569369	0.0308365	10.6402	1.13773e+08	6.05591e+08	6.16185e+08	-79.3598	0.0000000E+000	0.0000000E+000	0.0000000E+000	79.3598	0.0000000E+000	0.0000000E+000	0.0000000E+000	-79.3598	0.0000000E+000	0.0000000E+000	0.0000000E+000	-10.6402	0.0000000E+000	0.0000000E+000	0.0000000E+000	10.6402	5.32279	79.3598	-0.0128377	-1.16688e-06	-3.37975e-11	-1.16684e-06	3.96644	1.34835e+07	390.536	1.34831e+07
0.0019912	36.8886	8.70834	37.9025	-13.2827	20329.7	3.96655	-0.000294179	9.17847e+06	484513	1	11	0.00500711	0.000132105	0	-0.0152485	0.000114888	6.13019e-07	-63.1404	0.00464039	0.00209656	0.00413977	-13.2881	37.9055	36.8907	8.71248	0.0256777	0.00606177	0.0263835	13.2827	4.84513e+08	2.0524e+09	2.10881e+09	-76.7173	0.0000000E+000	0.0000000E+000	0.0000000E+000	76.7173	0.0000000E+000	0.0000000E+000	0.0000000E+000	-76.7173	0.0000000E+000	0.0000000E+000	0.0000000E+000	-13.2827	0.0000000E+000	0.0000000E+000	0.0000000E+000	13.2827	4.236	76.7173	0.000000000000000E+000	-1.16688e-06	-3.37975e-11	-1.16684e-06	3.96644	1.34835e+07	390.536	1.34831e+07
0.000497799	39.731	17.3439	43.3516	-23.5829	20329.7	3.96655	-0.000294179	1.8434e+07	2.95054e+06	1	11	0.00501229	0.000115619	0	-0.0152485	0.000114888	2.09024e-06	-86.6701	0.0180786	0.00105009	0.0180481	-23.6042	43.3598	39.732	17.3619	0.0211407	0.00922861	0.0230672	23.5829	2.95055e+09	6.75904e+09	7.37498e+09	-66.4171	0.0000000E+000	0.0000000E+000	0.0000000E+000	66.4171	0.0000000E+000	0.0000000E+000	0.0000000E+000	-66.4171	0.0000000E+000	0.0000000E+000	0.0000000E+000	-23.5829	0.0000000E+000	0.0000000E+000	0.0000000E+000	23.5829	2.29078	66.4171	0.000000000000000E+000	-1.16688e-06	-3.37975e-11	-1.16684e-06	3.96644	1.34835e+07	390.536	1.34831e+07
9.95598e-05	44.6406	93.1765	103.318	-64.4011	20329.7	3.96655	-0.000294179	1.71565e+07	1.39537e+07	1	11	0.00500886	4.848e-05	0	-0.0152485	0.000114888	3.01815e-06	85.5277	0.0622557	0.00485447	-0.0620662	-64.3838	103.264	44.6454	93.1144	0.00418193	0.00872877	0.00967884	64.4011	1.39537e+10	6.68517e+09	1.54725e+10	-25.5989	0.0000000E+000	0.0000000E+000	0.0000000E+000	25.5989	0.0000000E+000	0.0000000E+000	0.0000000E+000	-25.5989	0.0000000E+000	0.0000000E+000	0.0000000E+000	-64.4011	0.0000000E+000	0.0000000E+000	0.0000000E+000	64.4011	0.479097	25.5989	0.000000000000000E+000	-1.16688e-06	-3.37975e-11	-1.16684e-06	3.96644	1.34835e+07	390.536	1.34831e+07