Folder: EIS/txt (part 5)

File: 16432_R270_UA640_SOC00_C03.mpt
EC-Lab ASCII FILE
Nb header lines : 63

Potentio Electrochemical Impedance Spectroscopy

Run on channel : 3 (SN 65921)
User :
CE vs. WE compliance from -10 V to 10 V
Electrode connection : standard
Potential control : Ewe
Ewe ctrl range : min = -10.00 V, max = 10.00 V
Safety Limits :
	Do not start on E overload
Acquisition started on : 09/15/2025 10:34:05.767
Loaded Setting File :  C:\Users\Celltest\OneDrive - store-dot.com\Documents\EC-Lab\Data\Gyutae\16432.mps
Saved on :
	File : 16432_R270-A001 HG-1800_C03.mpr
	Directory : C:\Users\Celltest\OneDrive - store-dot.com\Documents\EC-Lab\Data\Gyutae\
	Host : 169.254.61.224
Device : VMP-3e (SN .003165)
Address : USB
EC-LAB for windows v11.62 (software)
Internet server v27.00 (firmware)
Command interpretor v12.03 (firmware)
Electrode material :
Initial state :
Electrolyte :
Comments :
Electrode surface area : 0.001 cm²
Characteristic mass : 0.001 g
Equivalent Weight : 0.000 g/eq.
Density : 0.000 g/cm3
Volume (V) : 0.001 cm³
Cycle Definition : Charge/Discharge alternance
Mode                Single sine
E (V)               0.0000
vs.                 Eoc
tE (h:m:s)          0:00:0.0000
record              0
dI                  0.000
unit dI             mA
dt (s)              0.000
fi                  100.000
unit fi             kHz
ff                  10.000
unit ff             mHz
Nd                  6
Points              per decade
spacing             Logarithmic
Va (mV)             5.0
pw                  0.10
Na                  2
corr                0
E range min (V)     -10.000
E range max (V)     10.000
I Range             Auto
Bandwidth           5
nc cycles           0
goto Ns'            0
nr cycles           0
inc. cycle          0

freq/Hz	Re(Z)/Ohm	-Im(Z)/Ohm	|Z|/Ohm	Phase(Z)/deg	time/s	<Ewe>/V	<I>/mA	Cs/µF	Cp/µF	cycle number	I Range	|Ewe|/V	|I|/A	Ns	(Q-Qo)/mA.h	Re(Y)/Ohm-1	Im(Y)/Ohm-1	|Y|/Ohm-1	Phase(Y)/deg	Re(C)/nF	Im(C)/nF	|C|/nF	Phase(C)/deg	Re(M)	Im(M)	|M|	Phase(M)/deg	Re(Permittivity)	Im(Permittivity)	|Permittivity|	Phase(Permittivity)/deg	Re(Resistivity)/Ohm.cm	Im(Resistivity)/Ohm.cm	|Resistivity|/Ohm.cm	Phase(Resistivity)/deg	Re(Conductivity)/mS/cm	Im(Conductivity)/mS/cm	|Conductivity|/mS/cm	Phase(Conductivity)/deg	Tan(Delta)	Loss Angle(Delta)/deg	dq/mA.h	Pwe/W	Rwe/Ohm
100004	0.944861	0.264719	0.981243	-15.6511	1.8655	0.289102	0.0610432	6.01201	0.437557	1	9	0.00497594	0.00507106	0	-7.58143e-06	0.981329	0.274936	1.01912	15.6511	437.558	1561.78	1621.91	-74.3489	0.0000000E+000	0.0000000E+000	0.0000000E+000	74.3489	0.0000000E+000	0.0000000E+000	0.0000000E+000	-74.3489	0.0000000E+000	0.0000000E+000	0.0000000E+000	-15.6511	0.0000000E+000	0.0000000E+000	0.0000000E+000	15.6511	3.5693	74.3489	-7.58143e-06	1.76477e-05	4736.02
46420.4	1.07896	0.325977	1.12713	-16.8107	3.02149	0.289102	0.0619942	10.5178	0.879734	1	9	0.00504107	0.00447249	0	1.0701e-05	0.849296	0.25659	0.887211	16.8107	879.734	2911.86	3041.85	-73.1893	0.0000000E+000	0.0000000E+000	0.0000000E+000	73.1893	0.0000000E+000	0.0000000E+000	0.0000000E+000	-73.1893	0.0000000E+000	0.0000000E+000	0.0000000E+000	-16.8107	0.0000000E+000	0.0000000E+000	0.0000000E+000	16.8107	3.30993	73.1893	1.82914e-05	1.79227e-05	4663.38
21544.7	1.24598	0.426051	1.31681	-18.8776	4.17748	0.289091	0.0619755	17.3388	1.81508	1	9	0.00496713	0.0037721	0	2.29294e-05	0.718564	0.245706	0.759411	18.8776	1815.08	5308.18	5609.93	-71.1224	0.0000000E+000	0.0000000E+000	0.0000000E+000	71.1224	0.0000000E+000	0.0000000E+000	0.0000000E+000	-71.1224	0.0000000E+000	0.0000000E+000	0.0000000E+000	-18.8776	0.0000000E+000	0.0000000E+000	0.0000000E+000	18.8776	2.92449	71.1224	6.95126e-06	1.79166e-05	4664.61
10002.2	1.44745	0.541712	1.5455	-20.5185	5.0515	0.289098	0.0610805	29.3735	3.60874	1	9	0.00481824	0.0031176	0	3.26098e-05	0.605992	0.226794	0.647041	20.5185	3608.74	9642.52	10295.7	-69.4815	0.0000000E+000	0.0000000E+000	0.0000000E+000	69.4815	0.0000000E+000	0.0000000E+000	0.0000000E+000	-69.4815	0.0000000E+000	0.0000000E+000	0.0000000E+000	-20.5185	0.0000000E+000	0.0000000E+000	0.0000000E+000	20.5185	2.67199	69.4815	8.10015e-06	1.76582e-05	4733.07
4641.49	1.71259	0.712637	1.85494	-22.593	6.0777	0.289036	0.0875216	48.1166	7.10185	1	9	0.00479573	0.00258538	0	2.65078e-05	0.497728	0.207113	0.539101	22.593	7101.84	17066.9	18485.6	-67.407	0.0000000E+000	0.0000000E+000	0.0000000E+000	67.407	0.0000000E+000	0.0000000E+000	0.0000000E+000	-67.407	0.0000000E+000	0.0000000E+000	0.0000000E+000	-22.593	0.0000000E+000	0.0000000E+000	0.0000000E+000	22.593	2.40317	67.407	8.97402e-06	2.52969e-05	3302.46
2155.69	2.02856	0.959266	2.24393	-25.3085	7.01169	0.289038	0.0905424	76.9653	14.0654	1	9	0.00466345	0.00207825	0	4.76536e-05	0.402872	0.19051	0.445646	25.3085	14065.4	29744.1	32902.1	-64.6915	0.0000000E+000	0.0000000E+000	0.0000000E+000	64.6915	0.0000000E+000	0.0000000E+000	0.0000000E+000	-64.6915	0.0000000E+000	0.0000000E+000	0.0000000E+000	-25.3085	0.0000000E+000	0.0000000E+000	0.0000000E+000	25.3085	2.1147	64.6915	8.56996e-06	2.61702e-05	3192.3
1000.32	2.39991	1.37651	2.76665	-29.8371	7.94768	0.289044	0.0919036	115.585	28.6122	1	9	0.00461652	0.00166863	0	6.87831e-05	0.313536	0.179833	0.361448	29.8371	28612.2	49884.8	57507.8	-60.1629	0.0000000E+000	0.0000000E+000	0.0000000E+000	60.1629	0.0000000E+000	0.0000000E+000	0.0000000E+000	-60.1629	0.0000000E+000	0.0000000E+000	0.0000000E+000	-29.8371	0.0000000E+000	0.0000000E+000	0.0000000E+000	29.8371	1.74348	60.1629	1.13135e-05	2.65642e-05	3145.08
463.961	2.91468	2.16297	3.62957	-36.579	9.13721	0.289024	-0.0181938	158.595	56.3222	1	10	0.00467516	0.00128808	0	7.00428e-05	0.221248	0.164188	0.275515	36.579	56322.2	75896	94511.3	-53.421	0.0000000E+000	0.0000000E+000	0.0000000E+000	53.421	0.0000000E+000	0.0000000E+000	0.0000000E+000	-53.421	0.0000000E+000	0.0000000E+000	0.0000000E+000	-36.579	0.0000000E+000	0.0000000E+000	0.0000000E+000	36.579	1.34753	53.421	-1.56892e-06	-5.25846e-06	15885.8
215.345	3.91268	3.58029	5.30354	-42.46	10.0715	0.289017	-0.0173604	206.428	94.0746	1	10	0.00462454	0.000871972	0	6.65084e-05	0.139105	0.127288	0.188553	42.46	94074.6	102808	139354	-47.54	0.0000000E+000	0.0000000E+000	0.0000000E+000	47.54	0.0000000E+000	0.0000000E+000	0.0000000E+000	-47.54	0.0000000E+000	0.0000000E+000	0.0000000E+000	-42.46	0.0000000E+000	0.0000000E+000	0.0000000E+000	42.46	1.09284	47.54	-2.06394e-06	-5.01746e-06	16648
100.032	6.09711	5.55036	8.24508	-42.3124	11.0027	0.289029	-0.0173269	286.655	129.901	1	10	0.00460692	0.000558748	0	6.18089e-05	0.089688	0.0816454	0.121284	42.3124	129901	142697	192968	-47.6876	0.0000000E+000	0.0000000E+000	0.0000000E+000	47.6876	0.0000000E+000	0.0000000E+000	0.0000000E+000	-47.6876	0.0000000E+000	0.0000000E+000	0.0000000E+000	-42.3124	0.0000000E+000	0.0000000E+000	0.0000000E+000	42.3124	1.09851	47.6876	-2.38363e-06	-5.00796e-06	16680.9
46.4415	9.92831	7.01697	12.1577	-35.2513	11.9365	0.289031	-0.0190683	488.387	162.69	1	10	0.00459686	0.000378103	0	5.7131e-05	0.0671698	0.0474732	0.0822525	35.2513	162690	230190	281879	-54.7487	0.0000000E+000	0.0000000E+000	0.0000000E+000	54.7487	0.0000000E+000	0.0000000E+000	0.0000000E+000	-54.7487	0.0000000E+000	0.0000000E+000	0.0000000E+000	-35.2513	0.0000000E+000	0.0000000E+000	0.0000000E+000	35.2513	1.4149	54.7487	-2.54181e-06	-5.51133e-06	15157.7
[...]
1.00006	22.5882	2.15679	22.691	-5.45424	21.2581	0.289059	-0.00922951	73787.7	666.646	1	12	0.00460093	0.000202765	0	3.56027e-05	0.0438709	0.00418893	0.0440704	5.45424	666646	6.98182e+06	7.01358e+06	-84.5458	0.0000000E+000	0.0000000E+000	0.0000000E+000	84.5458	0.0000000E+000	0.0000000E+000	0.0000000E+000	-84.5458	0.0000000E+000	0.0000000E+000	0.0000000E+000	-5.45424	0.0000000E+000	0.0000000E+000	0.0000000E+000	5.45424	10.4731	84.5458	-5.83795e-06	-2.66787e-06	31319
0.464091	23.2294	1.76507	23.2964	-4.34522	28.9427	0.289059	-0.00756188	194292	1115.32	1	12	0.00459725	0.000197337	0	-9.83792e-07	0.0428017	0.00325225	0.0429251	4.34522	1.11532e+06	1.46784e+07	1.47207e+07	-85.6548	0.0000000E+000	0.0000000E+000	0.0000000E+000	85.6548	0.0000000E+000	0.0000000E+000	0.0000000E+000	-85.6548	0.0000000E+000	0.0000000E+000	0.0000000E+000	-4.34522	0.0000000E+000	0.0000000E+000	0.0000000E+000	4.34522	13.1606	85.6548	-2.29768e-05	-2.18583e-06	38225.7
0.215268	23.7558	1.83453	23.8265	-4.41587	45.4216	0.289042	-0.00788093	403011	2389.16	1	12	0.00460045	0.000193081	0	-5.56552e-05	0.0418455	0.00323149	0.04197	4.41587	2.38916e+06	3.09378e+07	3.10299e+07	-85.5841	0.0000000E+000	0.0000000E+000	0.0000000E+000	85.5841	0.0000000E+000	0.0000000E+000	0.0000000E+000	-85.5841	0.0000000E+000	0.0000000E+000	0.0000000E+000	-4.41587	0.0000000E+000	0.0000000E+000	0.0000000E+000	4.41587	12.9493	85.5841	-2.64454e-05	-2.27792e-06	36676.2
0.0999041	24.2252	2.57849	24.3621	-6.07559	80.8281	0.289061	-0.00549882	617833	6921.09	1	12	0.00459619	0.000188662	0	-5.26809e-05	0.0408169	0.00434448	0.0410474	6.07559	6.92109e+06	6.50244e+07	6.53917e+07	-83.9244	0.0000000E+000	0.0000000E+000	0.0000000E+000	83.9244	0.0000000E+000	0.0000000E+000	0.0000000E+000	-83.9244	0.0000000E+000	0.0000000E+000	0.0000000E+000	-6.07559	0.0000000E+000	0.0000000E+000	0.0000000E+000	6.07559	9.39511	83.9244	1.48196e-05	-1.58949e-06	52567.8
0.0464052	25.1255	4.03457	25.4474	-9.12249	157.064	0.289048	-0.00155748	850072	21368	1	12	0.00460601	0.000181001	0	2.79567e-05	0.0387997	0.00623032	0.0392967	9.12249	2.1368e+07	1.3307e+08	1.34775e+08	-80.8775	0.0000000E+000	0.0000000E+000	0.0000000E+000	80.8775	0.0000000E+000	0.0000000E+000	0.0000000E+000	-80.8775	0.0000000E+000	0.0000000E+000	0.0000000E+000	-9.12249	0.0000000E+000	0.0000000E+000	0.0000000E+000	9.12249	6.22756	80.8775	4.69994e-05	-4.50188e-07	185586
0.0215268	26.5349	6.91468	27.421	-14.6058	321.294	0.289057	0.000782705	1.06922e+06	67990.2	1	12	0.00459755	0.000167665	0	-9.05037e-05	0.0352899	0.00919613	0.0364684	14.6058	6.79902e+07	2.6091e+08	2.69623e+08	-75.3942	0.0000000E+000	0.0000000E+000	0.0000000E+000	75.3942	0.0000000E+000	0.0000000E+000	0.0000000E+000	-75.3942	0.0000000E+000	0.0000000E+000	0.0000000E+000	-14.6058	0.0000000E+000	0.0000000E+000	0.0000000E+000	14.6058	3.83747	75.3942	-0.000120046	2.26246e-07	369305
0.0100092	28.9231	11.3457	31.0688	-21.4186	674.508	0.289052	-0.000751861	1.4015e+06	186898	1	12	0.00460158	0.00014811	0	-0.000817511	0.0299638	0.0117539	0.0321867	21.4186	1.86898e+08	4.76451e+08	5.11797e+08	-68.5814	0.0000000E+000	0.0000000E+000	0.0000000E+000	68.5814	0.0000000E+000	0.0000000E+000	0.0000000E+000	-68.5814	0.0000000E+000	0.0000000E+000	0.0000000E+000	-21.4186	0.0000000E+000	0.0000000E+000	0.0000000E+000	21.4186	2.54926	68.5814	-0.000428334	-2.17327e-07	384448

File: 16433_R270_UA640_SOC00_C04.mpt
EC-Lab ASCII FILE
Nb header lines : 63

Potentio Electrochemical Impedance Spectroscopy

Run on channel : 4 (SN 66756)
User :
CE vs. WE compliance from -10 V to 10 V
Electrode connection : standard
Potential control : Ewe
Ewe ctrl range : min = -10.00 V, max = 10.00 V
Safety Limits :
	Do not start on E overload
Acquisition started on : 09/15/2025 10:34:20.380
Loaded Setting File :  C:\Users\Celltest\OneDrive - store-dot.com\Documents\EC-Lab\Data\Gyutae\16432.mps
Saved on :
	File : 16433_R270-A001 HG-1800_C04.mpr
	Directory : C:\Users\Celltest\OneDrive - store-dot.com\Documents\EC-Lab\Data\Gyutae\
	Host : 169.254.61.224
Device : VMP-3e (SN .003165)
Address : USB
EC-LAB for windows v11.62 (software)
Internet server v27.00 (firmware)
Command interpretor v12.03 (firmware)
Electrode material :
Initial state :
Electrolyte :
Comments :
Electrode surface area : 0.001 cm²
Characteristic mass : 0.001 g
Equivalent Weight : 0.000 g/eq.
Density : 0.000 g/cm3
Volume (V) : 0.001 cm³
Cycle Definition : Charge/Discharge alternance
Mode                Single sine
E (V)               0.0000
vs.                 Eoc
tE (h:m:s)          0:00:0.0000
record              0
dI                  0.000
unit dI             mA
dt (s)              0.000
fi                  100.000
unit fi             kHz
ff                  10.000
unit ff             mHz
Nd                  6
Points              per decade
spacing             Logarithmic
Va (mV)             5.0
pw                  0.10
Na                  2
corr                0
E range min (V)     -10.000
E range max (V)     10.000
I Range             Auto
Bandwidth           5
nc cycles           0
goto Ns'            0
nr cycles           0
inc. cycle          0

freq/Hz	Re(Z)/Ohm	-Im(Z)/Ohm	|Z|/Ohm	Phase(Z)/deg	time/s	<Ewe>/V	<I>/mA	Cs/µF	Cp/µF	cycle number	I Range	|Ewe|/V	|I|/A	Ns	(Q-Qo)/mA.h	Re(Y)/Ohm-1	Im(Y)/Ohm-1	|Y|/Ohm-1	Phase(Y)/deg	Re(C)/nF	Im(C)/nF	|C|/nF	Phase(C)/deg	Re(M)	Im(M)	|M|	Phase(M)/deg	Re(Permittivity)	Im(Permittivity)	|Permittivity|	Phase(Permittivity)/deg	Re(Resistivity)/Ohm.cm	Im(Resistivity)/Ohm.cm	|Resistivity|/Ohm.cm	Phase(Resistivity)/deg	Re(Conductivity)/mS/cm	Im(Conductivity)/mS/cm	|Conductivity|/mS/cm	Phase(Conductivity)/deg	Tan(Delta)	Loss Angle(Delta)/deg	dq/mA.h	Pwe/W	Rwe/Ohm
100004	1.38913	0.301344	1.42144	-12.2395	2.0675	0.310099	-0.0324899	5.2813	0.237361	1	9	0.00454527	0.00319765	0	-5.92153e-06	0.687521	0.149144	0.703512	12.2395	237.361	1094.18	1119.63	-77.7605	0.0000000E+000	0.0000000E+000	0.0000000E+000	77.7605	0.0000000E+000	0.0000000E+000	0.0000000E+000	-77.7605	0.0000000E+000	0.0000000E+000	0.0000000E+000	-12.2395	0.0000000E+000	0.0000000E+000	0.0000000E+000	12.2395	4.60978	77.7605	-5.92153e-06	-1.00751e-05	9544.49
46420.4	1.53796	0.364897	1.58065	-13.3473	3.22349	0.310109	-0.031315	9.39596	0.500736	1	9	0.005029	0.0031816	0	-1.43738e-05	0.615561	0.146049	0.63265	13.3473	500.736	2110.49	2169.08	-76.6527	0.0000000E+000	0.0000000E+000	0.0000000E+000	76.6527	0.0000000E+000	0.0000000E+000	0.0000000E+000	-76.6527	0.0000000E+000	0.0000000E+000	0.0000000E+000	-13.3473	0.0000000E+000	0.0000000E+000	0.0000000E+000	13.3473	4.21477	76.6527	2.92443e-07	-9.71108e-06	9902.89
21544.7	1.71847	0.465218	1.78032	-15.1479	4.23849	0.310098	-0.0316694	15.879	1.08427	1	9	0.00523514	0.00294056	0	-3.62565e-05	0.542179	0.146777	0.561696	15.1479	1084.27	4005.19	4149.36	-74.8521	0.0000000E+000	0.0000000E+000	0.0000000E+000	74.8521	0.0000000E+000	0.0000000E+000	0.0000000E+000	-74.8521	0.0000000E+000	0.0000000E+000	0.0000000E+000	-15.1479	0.0000000E+000	0.0000000E+000	0.0000000E+000	15.1479	3.69389	74.8521	-7.70684e-06	-9.82061e-06	9791.75
10002.2	1.93933	0.599805	2.02997	-17.186	4.97149	0.310094	-0.0315388	26.5285	2.31609	1	9	0.00504124	0.00248341	0	-4.06367e-05	0.470623	0.145557	0.492619	17.186	2316.09	7488.54	7838.52	-72.814	0.0000000E+000	0.0000000E+000	0.0000000E+000	72.814	0.0000000E+000	0.0000000E+000	0.0000000E+000	-72.814	0.0000000E+000	0.0000000E+000	0.0000000E+000	-17.186	0.0000000E+000	0.0000000E+000	0.0000000E+000	17.186	3.23327	72.814	-1.34933e-06	-9.78e-06	9832.13
4641.49	2.21904	0.798111	2.35821	-19.7819	5.82067	0.310102	-0.0136734	42.9635	4.92111	1	9	0.00481669	0.00204252	0	-4.55563e-05	0.399027	0.143516	0.424051	19.7819	4921.11	13682.5	14540.6	-70.2181	0.0000000E+000	0.0000000E+000	0.0000000E+000	70.2181	0.0000000E+000	0.0000000E+000	0.0000000E+000	-70.2181	0.0000000E+000	0.0000000E+000	0.0000000E+000	-19.7819	0.0000000E+000	0.0000000E+000	0.0000000E+000	19.7819	2.78037	70.2181	-5.74309e-07	-4.24016e-06	22679.2
2155.69	2.56628	1.07226	2.78128	-22.6765	6.75467	0.310104	-0.00876885	68.8547	10.234	1	9	0.00470345	0.00169111	0	-4.86699e-05	0.331752	0.138615	0.359547	22.6765	10234	24493.3	26545.4	-67.3235	0.0000000E+000	0.0000000E+000	0.0000000E+000	67.3235	0.0000000E+000	0.0000000E+000	0.0000000E+000	-67.3235	0.0000000E+000	0.0000000E+000	0.0000000E+000	-22.6765	0.0000000E+000	0.0000000E+000	0.0000000E+000	22.6765	2.39333	67.3235	-2.32995e-06	-2.71926e-06	35364.3
1000.32	2.99288	1.55124	3.37101	-27.3982	7.94468	0.310107	-0.01289	102.565	21.7191	1	10	0.00476162	0.00141252	0	-5.3514e-05	0.263372	0.136509	0.296647	27.3982	21719.1	41903.6	47197.8	-62.6018	0.0000000E+000	0.0000000E+000	0.0000000E+000	62.6018	0.0000000E+000	0.0000000E+000	0.0000000E+000	-62.6018	0.0000000E+000	0.0000000E+000	0.0000000E+000	-27.3982	0.0000000E+000	0.0000000E+000	0.0000000E+000	27.3982	1.92934	62.6018	-3.99936e-06	-3.99728e-06	24058
463.961	3.5405	2.45235	4.30687	-34.7087	8.87921	0.310107	-0.0133096	139.88	45.3521	1	10	0.00468975	0.0010889	0	-5.68888e-05	0.190871	0.132208	0.232187	34.7087	45352.1	65475.6	79648.4	-55.2913	0.0000000E+000	0.0000000E+000	0.0000000E+000	55.2913	0.0000000E+000	0.0000000E+000	0.0000000E+000	-55.2913	0.0000000E+000	0.0000000E+000	0.0000000E+000	-34.7087	0.0000000E+000	0.0000000E+000	0.0000000E+000	34.7087	1.44372	55.2913	-1.56549e-06	-4.12742e-06	23299.5
215.345	4.48351	4.18847	6.13556	-43.0514	9.81344	0.310111	-0.013401	176.454	82.2303	1	10	0.00464422	0.000756934	0	-6.12869e-05	0.119099	0.111262	0.162984	43.0514	82230.3	88022.9	120457	-46.9486	0.0000000E+000	0.0000000E+000	0.0000000E+000	46.9486	0.0000000E+000	0.0000000E+000	0.0000000E+000	-46.9486	0.0000000E+000	0.0000000E+000	0.0000000E+000	-43.0514	0.0000000E+000	0.0000000E+000	0.0000000E+000	43.0514	1.07044	46.9486	-2.18771e-06	-4.15581e-06	23140.8
100.032	6.62575	7.05982	9.68203	-46.8167	10.7447	0.310113	-0.013636	225.366	119.824	1	10	0.00462052	0.000477226	0	-6.37112e-05	0.070681	0.0753114	0.103284	46.8167	119824	112456	164329	-43.1833	0.0000000E+000	0.0000000E+000	0.0000000E+000	43.1833	0.0000000E+000	0.0000000E+000	0.0000000E+000	-43.1833	0.0000000E+000	0.0000000E+000	0.0000000E+000	-46.8167	0.0000000E+000	0.0000000E+000	0.0000000E+000	46.8167	0.938516	43.1833	-1.16028e-06	-4.22871e-06	22742.1
46.4415	11.3287	10.4627	15.421	-42.724	11.6785	0.310099	-0.0162733	327.546	150.775	1	10	0.00462053	0.000299626	0	-6.65167e-05	0.0476383	0.0439964	0.0648467	42.724	150775	163256	222229	-47.276	0.0000000E+000	0.0000000E+000	0.0000000E+000	47.276	0.0000000E+000	0.0000000E+000	0.0000000E+000	-47.276	0.0000000E+000	0.0000000E+000	0.0000000E+000	-42.724	0.0000000E+000	0.0000000E+000	0.0000000E+000	42.724	1.08278	47.276	-1.73561e-06	-5.04633e-06	19055.7
[...]
1.00006	35.4538	3.97046	35.6754	-6.38992	20.6862	0.310145	-0.0016083	40082.2	496.472	1	12	0.00461751	0.000129431	0	-7.61761e-05	0.0278563	0.00311963	0.0280305	6.38992	496472	4.43319e+06	4.4609e+06	-83.6101	0.0000000E+000	0.0000000E+000	0.0000000E+000	83.6101	0.0000000E+000	0.0000000E+000	0.0000000E+000	-83.6101	0.0000000E+000	0.0000000E+000	0.0000000E+000	-6.38992	0.0000000E+000	0.0000000E+000	0.0000000E+000	6.38992	8.92939	83.6101	-5.3759e-06	-4.98805e-07	192840
0.464091	36.6553	2.93812	36.7729	-4.58277	28.3709	0.310153	-0.00168431	116720	745.13	1	12	0.00461812	0.000125585	0	-8.81321e-05	0.027107	0.00217278	0.027194	4.58277	745130	9.29606e+06	9.32588e+06	-85.4172	0.0000000E+000	0.0000000E+000	0.0000000E+000	85.4172	0.0000000E+000	0.0000000E+000	0.0000000E+000	-85.4172	0.0000000E+000	0.0000000E+000	0.0000000E+000	-4.58277	0.0000000E+000	0.0000000E+000	0.0000000E+000	4.58277	12.4758	85.4172	-5.13987e-06	-5.22394e-07	184142
0.215268	37.4109	2.7493	37.5118	-4.20306	44.851	0.310145	-0.00213517	268918	1444.53	1	12	0.00461612	0.000123058	0	-7.86372e-05	0.0265866	0.00195382	0.0266583	4.20306	1.44453e+06	1.96564e+07	1.97094e+07	-85.7969	0.0000000E+000	0.0000000E+000	0.0000000E+000	85.7969	0.0000000E+000	0.0000000E+000	0.0000000E+000	-85.7969	0.0000000E+000	0.0000000E+000	0.0000000E+000	-4.20306	0.0000000E+000	0.0000000E+000	0.0000000E+000	4.20306	13.6074	85.7969	8.79732e-06	-6.6221e-07	145255
0.0999041	38.1844	3.33918	38.3302	-4.99773	80.2575	0.310147	-0.000926078	477086	3620.72	1	12	0.00461563	0.000120418	0	-4.61415e-05	0.0259899	0.00227278	0.0260891	4.99773	3.62072e+06	4.1404e+07	4.1562e+07	-85.0023	0.0000000E+000	0.0000000E+000	0.0000000E+000	85.0023	0.0000000E+000	0.0000000E+000	0.0000000E+000	-85.0023	0.0000000E+000	0.0000000E+000	0.0000000E+000	-4.99773	0.0000000E+000	0.0000000E+000	0.0000000E+000	4.99773	11.4353	85.0023	1.61357e-05	-2.8722e-07	334904
0.0464052	39.3317	5.19833	39.6737	-7.52895	156.494	0.31015	0.000279886	659766	11326.9	1	12	0.00461859	0.000116414	0	-7.75397e-05	0.0249883	0.00330262	0.0252056	7.52895	1.13269e+07	8.57019e+07	8.64472e+07	-82.4711	0.0000000E+000	0.0000000E+000	0.0000000E+000	82.4711	0.0000000E+000	0.0000000E+000	0.0000000E+000	-82.4711	0.0000000E+000	0.0000000E+000	0.0000000E+000	-7.52895	0.0000000E+000	0.0000000E+000	0.0000000E+000	7.52895	7.56621	82.4711	-3.49171e-05	8.68068e-08	1.10813e+06
0.0215268	41.23	8.1331	42.0245	-11.159	320.723	0.310149	-0.000418136	909044	34048	1	12	0.00461651	0.000109853	0	-0.000315356	0.0233457	0.00460522	0.0237956	11.159	3.4048e+07	1.72603e+08	1.75929e+08	-78.841	0.0000000E+000	0.0000000E+000	0.0000000E+000	78.841	0.0000000E+000	0.0000000E+000	0.0000000E+000	-78.841	0.0000000E+000	0.0000000E+000	0.0000000E+000	-11.159	0.0000000E+000	0.0000000E+000	0.0000000E+000	11.159	5.06941	78.841	-0.000144947	-1.29684e-07	741742
0.0100092	44.291	13.7017	46.362	-17.1897	673.939	0.310144	-0.00124334	1.16051e+06	101361	1	12	0.00461804	9.96083e-05	0	-0.000501049	0.0206059	0.00637455	0.0215694	17.1897	1.01361e+08	3.27653e+08	3.42973e+08	-72.8103	0.0000000E+000	0.0000000E+000	0.0000000E+000	72.8103	0.0000000E+000	0.0000000E+000	0.0000000E+000	-72.8103	0.0000000E+000	0.0000000E+000	0.0000000E+000	-17.1897	0.0000000E+000	0.0000000E+000	0.0000000E+000	17.1897	3.23253	72.8103	-3.93355e-05	-3.85613e-07	249444