Folder: EIS/txt (part 30)

File: 17465_C06.mpt
EC-Lab ASCII FILE
Nb header lines : 64

Potentio Electrochemical Impedance Spectroscopy

Run on channel : 6 (SN 65795)
User :
CE vs. WE compliance from -10 V to 10 V
Electrode connection : standard
Potential control : Ewe
Ewe ctrl range : min = -10.00 V, max = 10.00 V
Safety Limits :
	Do not start on E overload
Acquisition started on : 09/12/2025 10:00:54.865
Technique started on : 09/12/2025 10:00:56.730
Loaded Setting File :  C:\Users\Celltest\OneDrive - store-dot.com\Documents\EC-Lab\Data\Charmaine\R279\17383.mps
Saved on :
	File : 17465_C06.mpr
	Directory : C:\Users\Celltest\OneDrive - store-dot.com\Documents\EC-Lab\Data\Gyutae\R277\
	Host : 169.254.61.224
Device : VMP-3e (SN .003165)
Address : USB
EC-LAB for windows v11.62 (software)
Internet server v27.00 (firmware)
Command interpretor v12.03 (firmware)
Electrode material :
Initial state :
Electrolyte :
Comments :
Electrode surface area : 0.001 cm²
Characteristic mass : 0.001 g
Equivalent Weight : 0.000 g/eq.
Density : 0.000 g/cm3
Volume (V) : 0.001 cm³
Cycle Definition : Charge/Discharge alternance
Mode                Single sine
E (V)               0.0000
vs.                 Eoc
tE (h:m:s)          0:00:0.0000
record              0
dI                  0.000
unit dI             mA
dt (s)              0.000
fi                  100.000
unit fi             kHz
ff                  10.000
unit ff             mHz
Nd                  6
Points              per decade
spacing             Logarithmic
Va (mV)             5.0
pw                  0.10
Na                  2
corr                0
E range min (V)     -10.000
E range max (V)     10.000
I Range             Auto
Bandwidth           5
nc cycles           0
goto Ns'            0
nr cycles           0
inc. cycle          0

freq/Hz	Re(Z)/Ohm	-Im(Z)/Ohm	|Z|/Ohm	Phase(Z)/deg	time/s	<Ewe>/V	<I>/mA	Cs/µF	Cp/µF	cycle number	I Range	|Ewe|/V	|I|/A	Ns	(Q-Qo)/mA.h	Re(Y)/Ohm-1	Im(Y)/Ohm-1	|Y|/Ohm-1	Phase(Y)/deg	Re(C)/nF	Im(C)/nF	|C|/nF	Phase(C)/deg	Re(M)	Im(M)	|M|	Phase(M)/deg	Re(Permittivity)	Im(Permittivity)	|Permittivity|	Phase(Permittivity)/deg	Re(Resistivity)/Ohm.cm	Im(Resistivity)/Ohm.cm	|Resistivity|/Ohm.cm	Phase(Resistivity)/deg	Re(Conductivity)/mS/cm	Im(Conductivity)/mS/cm	|Conductivity|/mS/cm	Phase(Conductivity)/deg	Tan(Delta)	Loss Angle(Delta)/deg	dq/mA.h	Pwe/W	Rwe/Ohm
100004	1.1073	0.243075	1.13367	-12.3812	1.86549	0.273012	0.0497964	6.54732	0.301003	1	9	0.00471439	0.00415852	0	-8.10833e-06	0.861575	0.189133	0.88209	12.3812	301.003	1371.19	1403.84	-77.6188	0.0000000E+000	0.0000000E+000	0.0000000E+000	77.6188	0.0000000E+000	0.0000000E+000	0.0000000E+000	-77.6188	0.0000000E+000	0.0000000E+000	0.0000000E+000	-12.3812	0.0000000E+000	0.0000000E+000	0.0000000E+000	12.3812	4.5554	77.6188	-8.10833e-06	1.3595e-05	5482.56
46420.4	1.23694	0.302709	1.27344	-13.7514	3.02148	0.27299	0.0486417	11.3262	0.639999	1	9	0.00509047	0.00399742	0	1.09931e-05	0.762765	0.186667	0.785274	13.7514	639.999	2615.19	2692.36	-76.2486	0.0000000E+000	0.0000000E+000	0.0000000E+000	76.2486	0.0000000E+000	0.0000000E+000	0.0000000E+000	-76.2486	0.0000000E+000	0.0000000E+000	0.0000000E+000	-13.7514	0.0000000E+000	0.0000000E+000	0.0000000E+000	13.7514	4.08623	76.2486	3.11351e-06	1.32787e-05	5612.27
21544.7	1.39007	0.388311	1.44329	-15.6075	4.03748	0.272975	0.0465184	19.0239	1.37707	1	9	0.00541183	0.00374965	0	3.63341e-05	0.667315	0.186412	0.692863	15.6075	1377.07	4929.59	5118.32	-74.3925	0.0000000E+000	0.0000000E+000	0.0000000E+000	74.3925	0.0000000E+000	0.0000000E+000	0.0000000E+000	-74.3925	0.0000000E+000	0.0000000E+000	0.0000000E+000	-15.6075	0.0000000E+000	0.0000000E+000	0.0000000E+000	15.6075	3.57978	74.3925	1.0031e-05	1.26983e-05	5868.1
10002.2	1.57473	0.499809	1.65214	-17.6091	4.62948	0.272988	0.0505786	31.8361	2.91362	1	9	0.00464631	0.00281229	0	4.44622e-05	0.576913	0.183109	0.605275	17.6091	2913.61	9179.81	9631.1	-72.3909	0.0000000E+000	0.0000000E+000	0.0000000E+000	72.3909	0.0000000E+000	0.0000000E+000	0.0000000E+000	-72.3909	0.0000000E+000	0.0000000E+000	0.0000000E+000	-17.6091	0.0000000E+000	0.0000000E+000	0.0000000E+000	17.6091	3.15066	72.3909	4.69259e-06	1.38074e-05	5397.3
4641.49	1.82193	0.654965	1.93608	-19.773	5.65569	0.272942	0.0691291	52.3534	5.99148	1	9	0.00476902	0.00246323	0	4.06939e-05	0.486054	0.174731	0.516507	19.773	5991.48	16666.6	17710.8	-70.227	0.0000000E+000	0.0000000E+000	0.0000000E+000	70.227	0.0000000E+000	0.0000000E+000	0.0000000E+000	-70.227	0.0000000E+000	0.0000000E+000	0.0000000E+000	-19.773	0.0000000E+000	0.0000000E+000	0.0000000E+000	19.773	2.78172	70.227	1.05663e-05	1.88682e-05	3948.29
2155.69	2.14293	0.857029	2.30795	-21.7981	6.58969	0.272944	0.0690173	86.1466	11.8789	1	9	0.0046455	0.00201282	0	5.63113e-05	0.402304	0.160895	0.433284	21.7981	11878.9	29702.2	31989.5	-68.2019	0.0000000E+000	0.0000000E+000	0.0000000E+000	68.2019	0.0000000E+000	0.0000000E+000	0.0000000E+000	-68.2019	0.0000000E+000	0.0000000E+000	0.0000000E+000	-21.7981	0.0000000E+000	0.0000000E+000	0.0000000E+000	21.7981	2.50042	68.2019	8.49048e-06	1.88379e-05	3954.72
1000.32	2.53804	1.14263	2.78339	-24.2374	7.5257	0.272941	0.0635788	139.243	23.466	1	9	0.00460099	0.00165302	0	7.1267e-05	0.327605	0.147488	0.359274	24.2374	23466	52123.2	57161.9	-65.7626	0.0000000E+000	0.0000000E+000	0.0000000E+000	65.7626	0.0000000E+000	0.0000000E+000	0.0000000E+000	-65.7626	0.0000000E+000	0.0000000E+000	0.0000000E+000	-24.2374	0.0000000E+000	0.0000000E+000	0.0000000E+000	24.2374	2.22123	65.7626	5.98778e-06	1.73532e-05	4292.95
463.961	3.08287	1.61979	3.4825	-27.7181	8.71419	0.27292	-0.0189837	211.778	45.8158	1	10	0.00463781	0.00133175	0	7.09277e-05	0.254199	0.13356	0.28715	27.7181	45815.8	87199.2	98502.7	-62.2819	0.0000000E+000	0.0000000E+000	0.0000000E+000	62.2819	0.0000000E+000	0.0000000E+000	0.0000000E+000	-62.2819	0.0000000E+000	0.0000000E+000	0.0000000E+000	-27.7181	0.0000000E+000	0.0000000E+000	0.0000000E+000	27.7181	1.90325	62.2819	-2.39735e-06	-5.18104e-06	14376.5
215.345	3.94573	2.31186	4.57312	-30.3666	9.64842	0.272925	-0.0184061	319.687	81.6999	1	10	0.0045954	0.00100487	0	6.4882e-05	0.188669	0.110544	0.218669	30.3666	81699.9	139440	161612	-59.6334	0.0000000E+000	0.0000000E+000	0.0000000E+000	59.6334	0.0000000E+000	0.0000000E+000	0.0000000E+000	-59.6334	0.0000000E+000	0.0000000E+000	0.0000000E+000	-30.3666	0.0000000E+000	0.0000000E+000	0.0000000E+000	30.3666	1.70674	59.6334	-2.94505e-06	-5.0235e-06	14828
100.032	5.3721	3.04276	6.17397	-29.5273	10.5797	0.272924	-0.018026	522.893	127.005	1	10	0.0045806	0.000741921	0	6.17488e-05	0.140934	0.0798251	0.16197	29.5273	127005	224232	257701	-60.4727	0.0000000E+000	0.0000000E+000	0.0000000E+000	60.4727	0.0000000E+000	0.0000000E+000	0.0000000E+000	-60.4727	0.0000000E+000	0.0000000E+000	0.0000000E+000	-29.5273	0.0000000E+000	0.0000000E+000	0.0000000E+000	29.5273	1.76553	60.4727	-1.37252e-06	-4.91974e-06	15140.6
46.4415	7.30721	3.39029	8.05539	-24.8896	11.5135	0.272931	-0.0193136	1010.83	179.051	1	10	0.00457414	0.000567836	0	5.8459e-05	0.11261	0.0522472	0.12414	24.8896	179051	385915	425429	-65.1104	0.0000000E+000	0.0000000E+000	0.0000000E+000	65.1104	0.0000000E+000	0.0000000E+000	0.0000000E+000	-65.1104	0.0000000E+000	0.0000000E+000	0.0000000E+000	-24.8896	0.0000000E+000	0.0000000E+000	0.0000000E+000	24.8896	2.15534	65.1104	-1.88283e-06	-5.27128e-06	14131.6
[...]
1.00006	13.0713	1.22812	13.1289	-5.36749	19.7482	0.27296	-0.00980718	129584	1133.91	1	11	0.00457633	0.00034857	0	4.43797e-05	0.0758341	0.00712503	0.0761681	5.36749	1.13391e+06	1.20686e+07	1.21218e+07	-84.6325	0.0000000E+000	0.0000000E+000	0.0000000E+000	84.6325	0.0000000E+000	0.0000000E+000	0.0000000E+000	-84.6325	0.0000000E+000	0.0000000E+000	0.0000000E+000	-5.36749	0.0000000E+000	0.0000000E+000	0.0000000E+000	5.36749	10.6433	84.6325	6.4434e-06	-2.67696e-06	27832.6
0.464091	13.4827	1.20433	13.5364	-5.10437	27.4328	0.272953	-0.00559364	284754	2254.03	1	11	0.00457779	0.000338184	0	3.68588e-05	0.073582	0.00657268	0.073875	5.10437	2.25403e+06	2.52342e+07	2.53346e+07	-84.8956	0.0000000E+000	0.0000000E+000	0.0000000E+000	84.8956	0.0000000E+000	0.0000000E+000	0.0000000E+000	-84.8956	0.0000000E+000	0.0000000E+000	0.0000000E+000	-5.10437	0.0000000E+000	0.0000000E+000	0.0000000E+000	5.10437	11.1951	84.8956	-1.03122e-05	-1.5268e-06	48797
0.215268	13.8722	1.50435	13.9536	-6.18915	43.9127	0.272956	-0.00376748	491465	5712.41	1	11	0.00457708	0.000328022	0	-4.87344e-05	0.0712486	0.00772642	0.0716663	6.18915	5.71241e+06	5.26766e+07	5.29854e+07	-83.8109	0.0000000E+000	0.0000000E+000	0.0000000E+000	83.8109	0.0000000E+000	0.0000000E+000	0.0000000E+000	-83.8109	0.0000000E+000	0.0000000E+000	0.0000000E+000	-6.18915	0.0000000E+000	0.0000000E+000	0.0000000E+000	6.18915	9.22142	83.8109	-5.48529e-05	-1.02836e-06	72450.6
0.0999041	14.4839	2.30412	14.6661	-9.03892	79.3183	0.272948	-0.00564021	691405	17065.3	1	11	0.00457767	0.000312127	0	-0.000164697	0.0673379	0.0107122	0.0681846	9.03892	1.70653e+07	1.07274e+08	1.08623e+08	-80.9611	0.0000000E+000	0.0000000E+000	0.0000000E+000	80.9611	0.0000000E+000	0.0000000E+000	0.0000000E+000	-80.9611	0.0000000E+000	0.0000000E+000	0.0000000E+000	-9.03892	0.0000000E+000	0.0000000E+000	0.0000000E+000	9.03892	6.28611	80.9611	-4.96395e-05	-1.53949e-06	48393.3
0.0464052	15.2787	3.80039	15.7443	-13.9682	155.555	0.272949	-0.00307332	902455	52582	1	11	0.00457485	0.000290572	0	-4.9815e-05	0.0616371	0.0153315	0.0635152	13.9682	5.2582e+07	2.11395e+08	2.17837e+08	-76.0318	0.0000000E+000	0.0000000E+000	0.0000000E+000	76.0318	0.0000000E+000	0.0000000E+000	0.0000000E+000	-76.0318	0.0000000E+000	0.0000000E+000	0.0000000E+000	-13.9682	0.0000000E+000	0.0000000E+000	0.0000000E+000	13.9682	4.0203	76.0318	0.000116103	-8.38861e-07	88812.3
0.0215268	16.7999	6.44066	17.9922	-20.9755	351.521	0.272939	5.21896e-05	1.14792e+06	147096	1	12	0.00457638	0.000254353	0	0.000358801	0.0518965	0.0198957	0.0555796	20.9755	1.47096e+08	3.83689e+08	4.10919e+08	-69.0245	0.0000000E+000	0.0000000E+000	0.0000000E+000	69.0245	0.0000000E+000	0.0000000E+000	0.0000000E+000	-69.0245	0.0000000E+000	0.0000000E+000	0.0000000E+000	-20.9755	0.0000000E+000	0.0000000E+000	0.0000000E+000	20.9755	2.60842	69.0245	0.000200561	1.42446e-08	5.22975e+06
0.0100092	18.7994	11.3563	21.9632	-31.1353	704.738	0.272932	6.34333e-05	1.40018e+06	374342	1	12	0.00457645	0.000208369	0	-0.000127079	0.038972	0.0235422	0.0455307	31.1353	3.74342e+08	6.1969e+08	7.2398e+08	-58.8647	0.0000000E+000	0.0000000E+000	0.0000000E+000	58.8647	0.0000000E+000	0.0000000E+000	0.0000000E+000	-58.8647	0.0000000E+000	0.0000000E+000	0.0000000E+000	-31.1353	0.0000000E+000	0.0000000E+000	0.0000000E+000	31.1353	1.65541	58.8647	-0.000455417	1.7313e-08	4.30266e+06

File: 17466_R277_UA656_SOC00_C07.mpt
EC-Lab ASCII FILE
Nb header lines : 63

Potentio Electrochemical Impedance Spectroscopy

Run on channel : 7 (SN 66126)
User :
CE vs. WE compliance from -10 V to 10 V
Electrode connection : standard
Potential control : Ewe
Ewe ctrl range : min = -10.00 V, max = 10.00 V
Safety Limits :
	Do not start on E overload
Acquisition started on : 09/12/2025 10:01:06.780
Loaded Setting File :  C:\Users\Celltest\OneDrive - store-dot.com\Documents\EC-Lab\Data\Charmaine\R279\17382_C01.mpr
Saved on :
	File : 17466_C07.mpr
	Directory : C:\Users\Celltest\OneDrive - store-dot.com\Documents\EC-Lab\Data\Gyutae\R277\
	Host : 169.254.61.224
Device : VMP-3e (SN .003165)
Address : USB
EC-LAB for windows v11.62 (software)
Internet server v27.00 (firmware)
Command interpretor v12.03 (firmware)
Electrode material :
Initial state :
Electrolyte :
Comments :
Electrode surface area : 0.001 cm²
Characteristic mass : 0.001 g
Equivalent Weight : 0.000 g/eq.
Density : 0.000 g/cm3
Volume (V) : 0.001 cm³
Cycle Definition : Charge/Discharge alternance
Mode                Single sine
E (V)               0.0000
vs.                 Eoc
tE (h:m:s)          0:00:0.0000
record              0
dI                  0.000
unit dI             mA
dt (s)              0.000
fi                  100.000
unit fi             kHz
ff                  10.000
unit ff             mHz
Nd                  6
Points              per decade
spacing             Logarithmic
Va (mV)             5.0
pw                  0.10
Na                  2
corr                0
E range min (V)     -10.000
E range max (V)     10.000
I Range             Auto
Bandwidth           5
nc cycles           0
goto Ns'            0
nr cycles           0
inc. cycle          0

freq/Hz	Re(Z)/Ohm	-Im(Z)/Ohm	|Z|/Ohm	Phase(Z)/deg	time/s	<Ewe>/V	<I>/mA	Cs/µF	Cp/µF	cycle number	I Range	|Ewe|/V	|I|/A	Ns	(Q-Qo)/mA.h	Re(Y)/Ohm-1	Im(Y)/Ohm-1	|Y|/Ohm-1	Phase(Y)/deg	Re(C)/nF	Im(C)/nF	|C|/nF	Phase(C)/deg	Re(M)	Im(M)	|M|	Phase(M)/deg	Re(Permittivity)	Im(Permittivity)	|Permittivity|	Phase(Permittivity)/deg	Re(Resistivity)/Ohm.cm	Im(Resistivity)/Ohm.cm	|Resistivity|/Ohm.cm	Phase(Resistivity)/deg	Re(Conductivity)/mS/cm	Im(Conductivity)/mS/cm	|Conductivity|/mS/cm	Phase(Conductivity)/deg	Tan(Delta)	Loss Angle(Delta)/deg	dq/mA.h	Pwe/W	Rwe/Ohm
100004	1.56774	0.232238	1.58485	-8.42625	1.91748	0.278294	0.0614468	6.85283	0.14715	1	9	0.00474096	0.00299142	0	8.09316e-06	0.624162	0.0924605	0.630973	8.42625	147.15	993.348	1004.19	-81.5737	0.0000000E+000	0.0000000E+000	0.0000000E+000	81.5737	0.0000000E+000	0.0000000E+000	0.0000000E+000	-81.5737	0.0000000E+000	0.0000000E+000	0.0000000E+000	-8.42625	0.0000000E+000	0.0000000E+000	0.0000000E+000	8.42625	6.75058	81.5737	8.09316e-06	1.71003e-05	4529.02
46420.4	1.68836	0.329486	1.72021	-11.0426	2.79149	0.278316	0.061391	10.4058	0.381758	1	9	0.00524251	0.00304761	0	1.92898e-05	0.570562	0.111346	0.581326	11.0426	381.757	1956.21	1993.11	-78.9574	0.0000000E+000	0.0000000E+000	0.0000000E+000	78.9574	0.0000000E+000	0.0000000E+000	0.0000000E+000	-78.9574	0.0000000E+000	0.0000000E+000	0.0000000E+000	-11.0426	0.0000000E+000	0.0000000E+000	0.0000000E+000	11.0426	5.12421	78.9574	2.33325e-06	1.70861e-05	4533.5
21544.7	1.85352	0.471449	1.91254	-14.2708	4.37048	0.27834	0.0418234	15.6692	0.952126	1	9	0.00510909	0.00267137	0	0.000231564	0.506731	0.128889	0.522866	14.2708	952.127	3743.32	3862.51	-75.7292	0.0000000E+000	0.0000000E+000	0.0000000E+000	75.7292	0.0000000E+000	0.0000000E+000	0.0000000E+000	-75.7292	0.0000000E+000	0.0000000E+000	0.0000000E+000	-14.2708	0.0000000E+000	0.0000000E+000	0.0000000E+000	14.2708	3.93154	75.7292	0.000210502	1.16411e-05	6655.12
10002.2	2.08172	0.603849	2.16753	-16.176	4.96349	0.278339	0.0470551	26.3509	2.04513	1	9	0.0046767	0.00215762	0	0.000237533	0.44309	0.128528	0.461354	16.176	2045.13	7050.42	7341.05	-73.824	0.0000000E+000	0.0000000E+000	0.0000000E+000	73.824	0.0000000E+000	0.0000000E+000	0.0000000E+000	-73.824	0.0000000E+000	0.0000000E+000	0.0000000E+000	-16.176	0.0000000E+000	0.0000000E+000	0.0000000E+000	16.176	3.44742	73.824	4.19564e-06	1.30973e-05	5915.17
4641.49	2.38004	0.787061	2.5068	-18.2986	5.98967	0.278339	0.0675535	43.5667	4.29468	1	9	0.00490874	0.00195817	0	0.000247787	0.378743	0.125247	0.398915	18.2986	4294.68	12987	13678.6	-71.7014	0.0000000E+000	0.0000000E+000	0.0000000E+000	71.7014	0.0000000E+000	0.0000000E+000	0.0000000E+000	-71.7014	0.0000000E+000	0.0000000E+000	0.0000000E+000	-18.2986	0.0000000E+000	0.0000000E+000	0.0000000E+000	18.2986	3.02396	71.7014	6.29182e-06	1.88028e-05	4120.27
2155.69	2.75824	1.0322	2.94505	-20.5171	6.92369	0.278348	0.0640347	71.527	8.78643	1	9	0.00479801	0.00162918	0	0.000264242	0.318014	0.119009	0.339553	20.5171	8786.43	23479.1	25069.2	-69.4829	0.0000000E+000	0.0000000E+000	0.0000000E+000	69.4829	0.0000000E+000	0.0000000E+000	0.0000000E+000	-69.4829	0.0000000E+000	0.0000000E+000	0.0000000E+000	-20.5171	0.0000000E+000	0.0000000E+000	0.0000000E+000	20.5171	2.67219	69.4829	8.17529e-06	1.7824e-05	4346.84
1000.32	3.27177	1.37987	3.55085	-22.8676	8.1137	0.278329	-0.0120051	115.303	17.4122	1	10	0.00483785	0.00136245	0	0.000274921	0.259488	0.109439	0.281622	22.8676	17412.2	41285.6	44807.3	-67.1324	0.0000000E+000	0.0000000E+000	0.0000000E+000	67.1324	0.0000000E+000	0.0000000E+000	0.0000000E+000	-67.1324	0.0000000E+000	0.0000000E+000	0.0000000E+000	-22.8676	0.0000000E+000	0.0000000E+000	0.0000000E+000	22.8676	2.37107	67.1324	4.33734e-06	-3.34138e-06	23184.2
463.961	3.92287	1.89353	4.35596	-25.7661	9.04819	0.278319	-0.0116571	181.162	34.2329	1	10	0.00478343	0.00109813	0	0.000272392	0.206746	0.099794	0.229571	25.7661	34232.9	70921.1	78750.9	-64.2339	0.0000000E+000	0.0000000E+000	0.0000000E+000	64.2339	0.0000000E+000	0.0000000E+000	0.0000000E+000	-64.2339	0.0000000E+000	0.0000000E+000	0.0000000E+000	-25.7661	0.0000000E+000	0.0000000E+000	0.0000000E+000	25.7661	2.07172	64.2339	-1.32872e-06	-3.24439e-06	23875.6
215.345	4.89182	2.68325	5.5794	-28.7455	9.98243	0.27832	-0.0125412	275.439	63.7047	1	10	0.00475183	0.000851673	0	0.000270716	0.157143	0.0861956	0.179231	28.7455	63704.7	116140	132464	-61.2545	0.0000000E+000	0.0000000E+000	0.0000000E+000	61.2545	0.0000000E+000	0.0000000E+000	0.0000000E+000	-61.2545	0.0000000E+000	0.0000000E+000	0.0000000E+000	-28.7455	0.0000000E+000	0.0000000E+000	0.0000000E+000	28.7455	1.8231	61.2545	-8.57865e-07	-3.49047e-06	22192.4
100.032	6.49074	3.60555	7.42494	-29.0518	10.9137	0.278322	-0.0112439	441.275	104.056	1	10	0.00473472	0.000637678	0	0.000266779	0.117736	0.0654012	0.134681	29.0518	104056	187322	214283	-60.9482	0.0000000E+000	0.0000000E+000	0.0000000E+000	60.9482	0.0000000E+000	0.0000000E+000	0.0000000E+000	-60.9482	0.0000000E+000	0.0000000E+000	0.0000000E+000	-29.0518	0.0000000E+000	0.0000000E+000	0.0000000E+000	29.0518	1.80021	60.9482	-2.02552e-06	-3.12941e-06	24753.3
46.4415	8.78639	4.19644	9.73709	-25.5294	11.8475	0.27831	-0.0145813	816.643	151.683	1	10	0.00473688	0.000486478	0	0.000263281	0.0926729	0.0442612	0.1027	25.5294	151683	317590	351953	-64.4706	0.0000000E+000	0.0000000E+000	0.0000000E+000	64.4706	0.0000000E+000	0.0000000E+000	0.0000000E+000	-64.4706	0.0000000E+000	0.0000000E+000	0.0000000E+000	-25.5294	0.0000000E+000	0.0000000E+000	0.0000000E+000	25.5294	2.09377	64.4706	-1.9336e-06	-4.05813e-06	19086.8
[...]
1.00006	16.4802	1.62928	16.5605	-5.64606	21.1862	0.278374	-0.00457037	97678.2	945.448	1	12	0.00473565	0.00028596	0	0.000239074	0.0600915	0.00594081	0.0603845	5.64606	945448	9.56325e+06	9.60988e+06	-84.3539	0.0000000E+000	0.0000000E+000	0.0000000E+000	84.3539	0.0000000E+000	0.0000000E+000	0.0000000E+000	-84.3539	0.0000000E+000	0.0000000E+000	0.0000000E+000	-5.64606	0.0000000E+000	0.0000000E+000	0.0000000E+000	5.64606	10.115	84.3539	-4.29633e-06	-1.27227e-06	60908.3
0.464091	16.9912	1.51075	17.0583	-5.08102	28.8708	0.278371	-0.00442523	226999	1780.5	1	12	0.00473466	0.000277558	0	0.000258128	0.0583922	0.00519187	0.0586226	5.08102	1.7805e+06	2.0025e+07	2.0104e+07	-84.919	0.0000000E+000	0.0000000E+000	0.0000000E+000	84.919	0.0000000E+000	0.0000000E+000	0.0000000E+000	-84.919	0.0000000E+000	0.0000000E+000	0.0000000E+000	-5.08102	0.0000000E+000	0.0000000E+000	0.0000000E+000	5.08102	11.2469	84.919	1.24345e-05	-1.23185e-06	62905.4
0.215268	17.5064	1.81405	17.6001	-5.91602	45.3508	0.27838	-0.000765756	407560	4329.73	1	12	0.00473725	0.00026916	0	0.000262716	0.0565153	0.00585626	0.0568179	5.91602	4.32973e+06	4.17837e+07	4.20074e+07	-84.084	0.0000000E+000	0.0000000E+000	0.0000000E+000	84.084	0.0000000E+000	0.0000000E+000	0.0000000E+000	-84.084	0.0000000E+000	0.0000000E+000	0.0000000E+000	-5.91602	0.0000000E+000	0.0000000E+000	0.0000000E+000	5.91602	9.65041	84.084	-5.36856e-06	-2.13171e-07	363537
0.0999041	18.0818	2.64669	18.2745	-8.32744	80.7564	0.278377	-0.000295617	601912	12625.5	1	12	0.00473618	0.000259169	0	0.000154469	0.0541441	0.00792526	0.0547211	8.32744	1.26256e+07	8.62558e+07	8.71749e+07	-81.6726	0.0000000E+000	0.0000000E+000	0.0000000E+000	81.6726	0.0000000E+000	0.0000000E+000	0.0000000E+000	-81.6726	0.0000000E+000	0.0000000E+000	0.0000000E+000	-8.32744	0.0000000E+000	0.0000000E+000	0.0000000E+000	8.32744	6.83185	81.6726	-7.35539e-05	-8.22931e-08	941682
0.0464052	19.1945	4.26122	19.6619	-12.5168	156.993	0.278389	-0.00215976	804859	37804	1	12	0.00473174	0.000240656	0	-3.33439e-05	0.0496511	0.0110226	0.0508599	12.5168	3.7804e+07	1.70287e+08	1.74433e+08	-77.4832	0.0000000E+000	0.0000000E+000	0.0000000E+000	77.4832	0.0000000E+000	0.0000000E+000	0.0000000E+000	-77.4832	0.0000000E+000	0.0000000E+000	0.0000000E+000	-12.5168	0.0000000E+000	0.0000000E+000	0.0000000E+000	12.5168	4.50447	77.4832	-8.92793e-05	-6.01253e-07	128898
0.0215268	20.5799	7.20387	21.8043	-19.2923	321.222	0.278386	-0.00172683	1.0263e+06	112027	1	12	0.00473475	0.000217147	0	0.000170891	0.0432871	0.0151524	0.0458625	19.2923	1.12027e+08	3.20036e+08	3.39077e+08	-70.7077	0.0000000E+000	0.0000000E+000	0.0000000E+000	70.7077	0.0000000E+000	0.0000000E+000	0.0000000E+000	-70.7077	0.0000000E+000	0.0000000E+000	0.0000000E+000	-19.2923	0.0000000E+000	0.0000000E+000	0.0000000E+000	19.2923	2.85679	70.7077	0.000194102	-4.80726e-07	161212
0.0100092	23.272	12.3181	26.331	-27.8927	674.44	0.278383	-9.38189e-05	1.29086e+06	282508	1	12	0.00473461	0.000179811	0	0.000882874	0.0335659	0.0177668	0.037978	27.8927	2.82508e+08	5.33729e+08	6.03886e+08	-62.1073	0.0000000E+000	0.0000000E+000	0.0000000E+000	62.1073	0.0000000E+000	0.0000000E+000	0.0000000E+000	-62.1073	0.0000000E+000	0.0000000E+000	0.0000000E+000	-27.8927	0.0000000E+000	0.0000000E+000	0.0000000E+000	27.8927	1.88925	62.1073	0.000351023	-2.61176e-08	2.96724e+06