Folder: EIS/txt (part 171)

File: 19153_R306_UA712_SOC00_C01.mpt
EC-Lab ASCII FILE
Nb header lines : 66

Potentio Electrochemical Impedance Spectroscopy

Run on channel : 1 (SN 66354)
Grouped channel(s) : 1, 2, 3, 4
User :
CE vs. WE compliance from -10 V to 10 V
Electrode connection : standard
Potential control : Ewe
Ewe ctrl range : min = -10.00 V, max = 10.00 V
Safety Limits :
	Do not start on E overload
Acquisition started on : 11/12/2025 13:00:33.882
Technique started on : 11/12/2025 13:00:35.793
Loaded Setting File :  C:\Users\Celltest\OneDrive - store-dot.com\Documents\EC-Lab\Data\@Biologic Test Protocols\anode half cell EIS SOC00.mps
Saved on :
	File : 19153_R306_UA712_SOC00_C01.mpr
	Directory : C:\Users\Celltest\OneDrive - store-dot.com\Documents\EC-Lab\Data\Charmaine\
	Host : 169.254.61.224
Device : VMP-3e (SN .003165)
Address : USB
EC-LAB for windows v11.62 (software)
Internet server v27.00 (firmware)
Command interpretor v12.03 (firmware)
Electrode material :
Initial state :
Electrolyte :
Comments :
Electrode surface area : 0.001 cm²
Characteristic mass : 0.001 g
Equivalent Weight : 0.000 g/eq.
Density : 0.000 g/cm3
Volume (V) : 0.001 cm³
Record Ece
Cycle Definition : Charge/Discharge alternance
Mode                Single sine
E (V)               0.0000
vs.                 Eoc
tE (h:m:s)          0:00:0.0000
record              0
dI                  0.000
unit dI             mA
dt (s)              0.000
fi                  100.000
unit fi             kHz
ff                  10.000
unit ff             mHz
Nd                  6
Points              per decade
spacing             Logarithmic
Va (mV)             5.0
pw                  0.10
Na                  2
corr                0
E range min (V)     -10.000
E range max (V)     10.000
I Range             Auto
Bandwidth           5
nc cycles           0
goto Ns'            0
nr cycles           0
inc. cycle          0

freq/Hz	Re(Z)/Ohm	-Im(Z)/Ohm	|Z|/Ohm	Phase(Z)/deg	time/s	<Ewe>/V	<I>/mA	Cs/µF	Cp/µF	cycle number	I Range	|Ewe|/V	|I|/A	Ns	(Q-Qo)/mA.h	<Ece>/V	|Ece|/V	Phase(Zce)/deg	|Zce|/Ohm	Re(Zce)/Ohm	-Im(Zce)/Ohm	Phase(Zwe-ce)/deg	|Zwe-ce|/Ohm	Re(Zwe-ce)/Ohm	-Im(Zwe-ce)/Ohm	Re(Y)/Ohm-1	Im(Y)/Ohm-1	|Y|/Ohm-1	Phase(Y)/deg	Re(C)/nF	Im(C)/nF	|C|/nF	Phase(C)/deg	Re(M)	Im(M)	|M|	Phase(M)/deg	Re(Permittivity)	Im(Permittivity)	|Permittivity|	Phase(Permittivity)/deg	Re(Resistivity)/Ohm.cm	Im(Resistivity)/Ohm.cm	|Resistivity|/Ohm.cm	Phase(Resistivity)/deg	Re(Conductivity)/mS/cm	Im(Conductivity)/mS/cm	|Conductivity|/mS/cm	Phase(Conductivity)/deg	Tan(Delta)	Loss Angle(Delta)/deg	dq/mA.h	Pwe/W	Pce/W	Pwe-ce/W	<Ewe-Ece>/V	Rwe/Ohm	Rce/Ohm	Rwe-ce/Ohm		Ewe-Ece/V
100004	1.79977	0.75356	1.95116	-22.7189	1.91055	0.283289	0.0501398	2.11196	0.315017	1	9	0.00474462	0.00243169	0	2.62447e-06	9.11209e-06	4.48128e-05	94.0527	0.0184287	-0.00130242	-0.0183826	-22.2337	1.94293	1.79847	0.735177	0.472749	0.197938	0.512515	22.7189	315.017	752.375	815.662	-67.2811	0.0000000E+000	0.0000000E+000	0.0000000E+000	67.2811	0.0000000E+000	0.0000000E+000	0.0000000E+000	-67.2811	0.0000000E+000	0.0000000E+000	0.0000000E+000	-22.7189	0.0000000E+000	0.0000000E+000	0.0000000E+000	22.7189	2.38836	67.2811	2.62447e-06	1.4204e-05	4.56878e-10	1.42036e-05	0.28328	5649.98	0.181734	5649.8
31621.1	2.50367	1.05387	2.71643	-22.8278	3.43152	0.283302	0.0455947	4.77589	0.718841	1	9	0.00499573	0.00183908	0	2.81285e-05	4.72667e-05	5.0427e-06	-98.3967	0.00274197	-0.000400402	0.00271258	-22.8838	2.71712	2.50327	1.05659	0.339296	0.14282	0.36813	22.8278	718.841	1707.74	1852.86	-67.1722	0.0000000E+000	0.0000000E+000	0.0000000E+000	67.1722	0.0000000E+000	0.0000000E+000	0.0000000E+000	-67.1722	0.0000000E+000	0.0000000E+000	0.0000000E+000	-22.8278	0.0000000E+000	0.0000000E+000	0.0000000E+000	22.8278	2.37568	67.1722	8.55104e-06	1.29171e-05	2.15511e-09	1.29149e-05	0.283255	6213.49	1.03667	6212.45
10002.2	3.35318	1.26879	3.5852	-20.7258	4.46052	0.283304	0.0459673	12.5411	1.57067	1	9	0.00460353	0.00128404	0	4.10361e-05	0.000123576	1.17649e-05	-34.2886	0.00916246	0.00757011	0.00516178	-20.7601	3.59411	3.36075	1.27395	0.260874	0.0987103	0.278925	20.7258	1570.67	4151.01	4438.23	-69.2742	0.0000000E+000	0.0000000E+000	0.0000000E+000	69.2742	0.0000000E+000	0.0000000E+000	0.0000000E+000	-69.2742	0.0000000E+000	0.0000000E+000	0.0000000E+000	-20.7258	0.0000000E+000	0.0000000E+000	0.0000000E+000	20.7258	2.64282	69.2742	4.09505e-06	1.30227e-05	5.68045e-09	1.3017e-05	0.28318	6163.16	2.68835	6160.47
3163.08	4.28577	1.64187	4.5895	-20.9617	5.64165	0.283221	-0.0185643	30.6459	3.92208	1	10	0.00499604	0.00108858	0	4.2953e-05	-9.96522e-06	6.1407e-06	-17.6483	0.00564102	0.00537553	0.00171021	-20.9576	4.59513	4.29114	1.64358	0.203469	0.0779483	0.217889	20.9617	3922.08	10237.8	10963.4	-69.0383	0.0000000E+000	0.0000000E+000	0.0000000E+000	69.0383	0.0000000E+000	0.0000000E+000	0.0000000E+000	-69.0383	0.0000000E+000	0.0000000E+000	0.0000000E+000	-20.9617	0.0000000E+000	0.0000000E+000	0.0000000E+000	20.9617	2.6103	69.0383	-2.50049e-06	-5.2578e-06	1.84998e-10	-5.25799e-06	0.283231	15256.2	0.536794	15256.7
1000.32	5.51295	2.32382	5.98271	-22.8564	6.9948	0.283235	-0.00944823	68.4665	10.3297	1	10	0.0048713	0.00081423	0	3.91252e-05	6.6344e-05	7.21649e-06	10.4165	0.00886296	0.0087169	-0.00160244	-22.8099	5.99012	5.52167	2.32222	0.154024	0.0649243	0.167148	22.8564	10329.7	24505.9	26594	-67.1436	0.0000000E+000	0.0000000E+000	0.0000000E+000	67.1436	0.0000000E+000	0.0000000E+000	0.0000000E+000	-67.1436	0.0000000E+000	0.0000000E+000	0.0000000E+000	-22.8564	0.0000000E+000	0.0000000E+000	0.0000000E+000	22.8564	2.37236	67.1436	-6.82623e-07	-2.67607e-06	-6.26834e-10	-2.67544e-06	0.283168	29977.5	7.02184	29970.5
316.316	7.25223	3.70875	8.14553	-27.085	8.34407	0.283225	-0.0107974	135.666	28.1247	1	10	0.00482639	0.000592521	0	3.49288e-05	0.000199885	3.97575e-06	-30.8419	0.00670989	0.00576102	0.00343997	-27.088	8.15222	7.25799	3.71219	0.109303	0.0558971	0.122767	27.085	28124.7	54996.1	61770.3	-62.915	0.0000000E+000	0.0000000E+000	0.0000000E+000	62.915	0.0000000E+000	0.0000000E+000	0.0000000E+000	-62.915	0.0000000E+000	0.0000000E+000	0.0000000E+000	-27.085	0.0000000E+000	0.0000000E+000	0.0000000E+000	27.085	1.95544	62.915	-9.53541e-07	-3.0581e-06	-2.15824e-09	-3.05594e-06	0.283026	26230.9	18.5124	26212.4
100.032	10.7784	6.07156	12.3709	-29.3928	9.69081	0.283205	-0.010734	262.048	63.122	1	10	0.00482078	0.000389688	0	3.17746e-05	9.11209e-06	1.60665e-05	-25.4406	0.0412291	0.0372312	0.017711	-29.3797	12.412	10.8157	6.08927	0.0704296	0.0396734	0.0808351	29.3928	63122	112056	128612	-60.6072	0.0000000E+000	0.0000000E+000	0.0000000E+000	60.6072	0.0000000E+000	0.0000000E+000	0.0000000E+000	-60.6072	0.0000000E+000	0.0000000E+000	0.0000000E+000	-29.3928	0.0000000E+000	0.0000000E+000	0.0000000E+000	29.3928	1.77523	60.6072	-1.78888e-06	-3.03994e-06	-9.78095e-11	-3.03984e-06	0.283196	26383.8	0.848896	26383
[...]
1.00006	27.6127	2.61363	27.7361	-5.40712	19.744	0.283293	-0.00402808	60890.3	540.685	1	12	0.00481535	0.000173613	0	2.60962e-05	-6.71971e-05	2.7266e-06	23.7332	0.0157051	0.0143769	-0.00632093	-5.39133	27.7498	27.6271	2.60731	0.0358936	0.00339744	0.0360541	5.40712	540686	5.71228e+06	5.73781e+06	-84.5929	0.0000000E+000	0.0000000E+000	0.0000000E+000	84.5929	0.0000000E+000	0.0000000E+000	0.0000000E+000	-84.5929	0.0000000E+000	0.0000000E+000	0.0000000E+000	-5.40712	0.0000000E+000	0.0000000E+000	0.0000000E+000	5.40712	10.5649	84.5929	7.82918e-07	-1.14113e-06	2.70675e-10	-1.1414e-06	0.28336	70329.5	16.6822	70346.2
0.316193	28.8148	2.44438	28.9183	-4.84882	34.0859	0.283295	-0.00227729	205920	1471.26	1	12	0.00481759	0.000166593	0	-9.6172e-06	0.000161731	3.25635e-06	-13.782	0.0195468	0.018984	0.00465658	-4.85483	28.9376	28.8338	2.44903	0.0344564	0.00292295	0.0345801	4.84882	1.47126e+06	1.73435e+07	1.74058e+07	-85.1512	0.0000000E+000	0.0000000E+000	0.0000000E+000	85.1512	0.0000000E+000	0.0000000E+000	0.0000000E+000	-85.1512	0.0000000E+000	0.0000000E+000	0.0000000E+000	-4.84882	0.0000000E+000	0.0000000E+000	0.0000000E+000	4.84882	11.7882	85.1512	-1.96019e-05	-6.45145e-07	-3.68308e-10	-6.44777e-07	0.283133	124400	71.0187	124329
0.0999041	30.1665	4.05788	30.4382	-7.66123	79.2936	0.283293	-0.00305184	392588	6977.48	1	12	0.00481177	0.000158083	0	-3.93302e-05	2.81894e-05	3.81227e-06	5.73718	0.0241156	0.0239948	-0.00241072	-7.65072	30.4617	30.1905	4.05547	0.0325602	0.00437988	0.0328535	7.66123	6.97748e+06	5.18709e+07	5.23381e+07	-82.3388	0.0000000E+000	0.0000000E+000	0.0000000E+000	82.3388	0.0000000E+000	0.0000000E+000	0.0000000E+000	-82.3388	0.0000000E+000	0.0000000E+000	0.0000000E+000	-7.66123	0.0000000E+000	0.0000000E+000	0.0000000E+000	7.66123	7.43404	82.3388	7.02754e-06	-8.64565e-07	-8.60295e-11	-8.64479e-07	0.283265	92827.1	9.23686	92817.9
0.0315922	32.7828	8.31778	33.8216	-14.2369	222.179	0.283293	0.000124025	605665	36631.9	1	12	0.0048153	0.000142374	0	0.000135721	8.54213e-05	2.29943e-06	-8.56316	0.0161506	0.0159706	0.00240482	-14.2342	33.8377	32.7988	8.32019	0.0286588	0.00727143	0.0295669	14.2369	3.66319e+07	1.44377e+08	1.48952e+08	-75.7631	0.0000000E+000	0.0000000E+000	0.0000000E+000	75.7631	0.0000000E+000	0.0000000E+000	0.0000000E+000	-75.7631	0.0000000E+000	0.0000000E+000	0.0000000E+000	-14.2369	0.0000000E+000	0.0000000E+000	0.0000000E+000	14.2369	3.94129	75.7631	6.81976e-05	3.51356e-08	1.05944e-11	3.5125e-08	0.283208	2.28416e+06	688.74	2.28347e+06
0.0100092	37.652	18.785	42.0779	-26.5151	673.401	0.283292	2.62453e-05	846468	168704	1	12	0.00481477	0.000114425	0	-0.000394376	0.000371581	1.88706e-06	-22.5405	0.0164916	0.0152318	0.00632184	-26.5136	42.0944	37.6673	18.7913	0.0212657	0.0106097	0.0237654	26.5151	1.68704e+08	3.38144e+08	3.77892e+08	-63.4849	0.0000000E+000	0.0000000E+000	0.0000000E+000	63.4849	0.0000000E+000	0.0000000E+000	0.0000000E+000	-63.4849	0.0000000E+000	0.0000000E+000	0.0000000E+000	-26.5151	0.0000000E+000	0.0000000E+000	0.0000000E+000	26.5151	2.00436	63.4849	-0.000339374	7.43508e-09	9.75224e-12	7.42533e-09	0.282921	1.0794e+07	14158	1.07799e+07

File: 19154_R306_UA712_SOC00_C02.mpt
EC-Lab ASCII FILE
Nb header lines : 65

Potentio Electrochemical Impedance Spectroscopy

Run on channel : 2 (SN 66139)
Grouped channel(s) : 1, 2, 3, 4
User :
CE vs. WE compliance from -10 V to 10 V
Electrode connection : standard
Potential control : Ewe
Ewe ctrl range : min = -10.00 V, max = 10.00 V
Safety Limits :
	Do not start on E overload
Acquisition started on : 11/12/2025 13:00:33.882
Loaded Setting File :  C:\Users\Celltest\OneDrive - store-dot.com\Documents\EC-Lab\Data\@Biologic Test Protocols\anode half cell EIS SOC00.mps
Saved on :
	File : 19153_R306_UA712_SOC00_C02.mpr
	Directory : C:\Users\Celltest\OneDrive - store-dot.com\Documents\EC-Lab\Data\Charmaine\
	Host : 169.254.61.224
Device : VMP-3e (SN .003165)
Address : USB
EC-LAB for windows v11.62 (software)
Internet server v27.00 (firmware)
Command interpretor v12.03 (firmware)
Electrode material :
Initial state :
Electrolyte :
Comments :
Electrode surface area : 0.001 cm²
Characteristic mass : 0.001 g
Equivalent Weight : 0.000 g/eq.
Density : 0.000 g/cm3
Volume (V) : 0.001 cm³
Record Ece
Cycle Definition : Charge/Discharge alternance
Mode                Single sine
E (V)               0.0000
vs.                 Eoc
tE (h:m:s)          0:00:0.0000
record              0
dI                  0.000
unit dI             mA
dt (s)              0.000
fi                  100.000
unit fi             kHz
ff                  10.000
unit ff             mHz
Nd                  6
Points              per decade
spacing             Logarithmic
Va (mV)             5.0
pw                  0.10
Na                  2
corr                0
E range min (V)     -10.000
E range max (V)     10.000
I Range             Auto
Bandwidth           5
nc cycles           0
goto Ns'            0
nr cycles           0
inc. cycle          0

freq/Hz	Re(Z)/Ohm	-Im(Z)/Ohm	|Z|/Ohm	Phase(Z)/deg	time/s	<Ewe>/V	<I>/mA	Cs/µF	Cp/µF	cycle number	I Range	|Ewe|/V	|I|/A	Ns	(Q-Qo)/mA.h	<Ece>/V	|Ece|/V	Phase(Zce)/deg	|Zce|/Ohm	Re(Zce)/Ohm	-Im(Zce)/Ohm	Phase(Zwe-ce)/deg	|Zwe-ce|/Ohm	Re(Zwe-ce)/Ohm	-Im(Zwe-ce)/Ohm	Re(Y)/Ohm-1	Im(Y)/Ohm-1	|Y|/Ohm-1	Phase(Y)/deg	Re(C)/nF	Im(C)/nF	|C|/nF	Phase(C)/deg	Re(M)	Im(M)	|M|	Phase(M)/deg	Re(Permittivity)	Im(Permittivity)	|Permittivity|	Phase(Permittivity)/deg	Re(Resistivity)/Ohm.cm	Im(Resistivity)/Ohm.cm	|Resistivity|/Ohm.cm	Phase(Resistivity)/deg	Re(Conductivity)/mS/cm	Im(Conductivity)/mS/cm	|Conductivity|/mS/cm	Phase(Conductivity)/deg	Tan(Delta)	Loss Angle(Delta)/deg	dq/mA.h	Pwe/W	Pce/W	Pwe-ce/W	<Ewe-Ece>/V	Rwe/Ohm	Rce/Ohm	Rwe-ce/Ohm		Ewe-Ece/V
100004	2.61626	0.833611	2.74585	-17.6733	2.14355	0.285189	-0.0357538	1.90915	0.17596	1	9	0.00495033	0.00180284	0	-6.63536e-06	0.000326414	2.53806e-05	87.453	0.0140781	0.00062561	-0.0140642	-17.3893	2.74221	2.61688	0.819547	0.346997	0.110563	0.364186	17.6733	175.96	552.243	579.598	-72.3267	0.0000000E+000	0.0000000E+000	0.0000000E+000	72.3267	0.0000000E+000	0.0000000E+000	0.0000000E+000	-72.3267	0.0000000E+000	0.0000000E+000	0.0000000E+000	-17.6733	0.0000000E+000	0.0000000E+000	0.0000000E+000	17.6733	3.13846	72.3267	-6.63536e-06	-1.01966e-05	-1.16706e-08	-1.01849e-05	0.284863	7976.46	9.12949	7967.33
31621.1	3.42735	1.28991	3.66205	-20.6243	3.54254	0.285189	-0.0378768	3.90195	0.484122	1	9	0.00520809	0.00142218	0	-2.48344e-05	0.000421868	5.10121e-06	-111.054	0.0035869	-0.00128859	0.00334744	-20.6804	3.66202	3.42606	1.29326	0.25557	0.0961861	0.273071	20.6243	484.122	1286.33	1374.42	-69.3757	0.0000000E+000	0.0000000E+000	0.0000000E+000	69.3757	0.0000000E+000	0.0000000E+000	0.0000000E+000	-69.3757	0.0000000E+000	0.0000000E+000	0.0000000E+000	-20.6243	0.0000000E+000	0.0000000E+000	0.0000000E+000	20.6243	2.65704	69.3757	-2.55545e-06	-1.0802e-05	-1.5979e-08	-1.07861e-05	0.284767	7529.37	11.1379	7518.23
10002.2	4.52492	1.58061	4.79304	-19.255	4.84653	0.285241	-0.0270448	10.067	1.09478	1	10	0.00546461	0.00114011	0	-3.78246e-05	9.7324e-05	1.70959e-05	3.44307	0.0149949	0.0149678	-0.000900542	-19.186	4.80688	4.53989	1.57971	0.196965	0.0688024	0.208636	19.255	1094.78	3134.1	3319.81	-70.745	0.0000000E+000	0.0000000E+000	0.0000000E+000	70.745	0.0000000E+000	0.0000000E+000	0.0000000E+000	-70.745	0.0000000E+000	0.0000000E+000	0.0000000E+000	-19.255	0.0000000E+000	0.0000000E+000	0.0000000E+000	19.255	2.86276	70.745	-1.35855e-06	-7.71429e-06	-2.63211e-09	-7.71166e-06	0.285143	10547	3.59862	10543.4
3163.08	5.67886	1.97239	6.01164	-19.1532	5.86867	0.285182	-0.0235655	25.5104	2.7461	1	10	0.00504841	0.000839772	0	-4.30705e-05	0.000192778	4.08925e-06	61.1624	0.00486948	0.00234869	-0.00426562	-19.1075	6.01246	5.68121	1.96812	0.157136	0.0545767	0.166344	19.1532	2746.1	7906.52	8369.84	-70.8468	0.0000000E+000	0.0000000E+000	0.0000000E+000	70.8468	0.0000000E+000	0.0000000E+000	0.0000000E+000	-70.8468	0.0000000E+000	0.0000000E+000	0.0000000E+000	-19.1532	0.0000000E+000	0.0000000E+000	0.0000000E+000	19.1532	2.87918	70.8468	-1.62655e-06	-6.72046e-06	-4.54291e-09	-6.71592e-06	0.28499	12101.7	8.18053	12093.5
1000.32	7.14337	2.77544	7.66361	-21.2328	7.22184	0.285214	-0.01217	57.3257	7.51877	1	10	0.00495904	0.00064709	0	-4.70797e-05	4.00515e-05	6.64146e-06	-40.7835	0.0102636	0.00777141	0.0067042	-21.2585	7.67328	7.15114	2.78215	0.121629	0.0472569	0.130487	21.2328	7518.77	19351.7	20761	-68.7672	0.0000000E+000	0.0000000E+000	0.0000000E+000	68.7672	0.0000000E+000	0.0000000E+000	0.0000000E+000	-68.7672	0.0000000E+000	0.0000000E+000	0.0000000E+000	-21.2328	0.0000000E+000	0.0000000E+000	0.0000000E+000	21.2328	2.57378	68.7672	-1.31113e-06	-3.47107e-06	-4.87428e-10	-3.47058e-06	0.285174	23435.7	3.29099	23432.5
316.316	9.21081	4.3363	10.1805	-25.2103	8.57207	0.285208	-0.012185	116.033	21.0514	1	10	0.00492222	0.000483495	0	-5.07573e-05	0.000326414	6.37706e-06	-20.5113	0.0131895	0.0123534	0.00462151	-25.2042	10.1936	9.22317	4.34092	0.088871	0.041839	0.098227	25.2103	21051.3	44715.6	49423.1	-64.7897	0.0000000E+000	0.0000000E+000	0.0000000E+000	64.7897	0.0000000E+000	0.0000000E+000	0.0000000E+000	-64.7897	0.0000000E+000	0.0000000E+000	0.0000000E+000	-25.2103	0.0000000E+000	0.0000000E+000	0.0000000E+000	25.2103	2.12412	64.7897	-1.06293e-06	-3.47524e-06	-3.97734e-09	-3.47126e-06	0.284881	23406.5	26.7883	23379.7
100.032	13.1107	7.21724	14.9659	-28.8321	9.91786	0.285206	-0.0116634	220.45	51.2679	1	10	0.00492233	0.000328903	0	-5.46481e-05	-5.54027e-05	6.37264e-06	-90.851	0.0193755	-0.000287772	0.0193733	-28.8976	14.975	13.1104	7.23661	0.0585354	0.0322229	0.0668185	28.8321	51267.9	93132.2	106311	-61.1679	0.0000000E+000	0.0000000E+000	0.0000000E+000	61.1679	0.0000000E+000	0.0000000E+000	0.0000000E+000	-61.1679	0.0000000E+000	0.0000000E+000	0.0000000E+000	-28.8321	0.0000000E+000	0.0000000E+000	0.0000000E+000	28.8321	1.81658	61.1679	-1.72116e-06	-3.32648e-06	6.46186e-10	-3.32712e-06	0.285261	24453	4.75013	24457.7
[...]
1.00006	36.3456	3.9038	36.5547	-6.13051	19.6569	0.285257	-0.00737902	40766.6	464.937	1	12	0.00491255	0.000134389	0	-7.93858e-05	0.00023096	2.82e-06	27.1858	0.0209839	0.0186658	-0.00958706	-6.11245	36.5722	36.3643	3.89422	0.0271998	0.00292147	0.0273563	6.13051	464937	4.32871e+06	4.35361e+06	-83.8695	0.0000000E+000	0.0000000E+000	0.0000000E+000	83.8695	0.0000000E+000	0.0000000E+000	0.0000000E+000	-83.8695	0.0000000E+000	0.0000000E+000	0.0000000E+000	-6.13051	0.0000000E+000	0.0000000E+000	0.0000000E+000	6.13051	9.31032	83.8695	-2.01214e-06	-2.10492e-06	-1.70426e-09	-2.10321e-06	0.285026	38657.8	31.2995	38626.5
0.316193	38.1729	3.33847	38.3186	-4.99818	34.0008	0.285249	-0.00524163	150772	1144.45	1	12	0.00491425	0.000128247	0	-8.67571e-05	0.00023096	8.47925e-07	33.0446	0.00661164	0.00554218	-0.00360527	-4.99209	38.3238	38.1784	3.33486	0.0259978	0.00227368	0.026097	4.99818	1.14445e+06	1.30859e+07	1.31359e+07	-85.0018	0.0000000E+000	0.0000000E+000	0.0000000E+000	85.0018	0.0000000E+000	0.0000000E+000	0.0000000E+000	-85.0018	0.0000000E+000	0.0000000E+000	0.0000000E+000	-4.99818	0.0000000E+000	0.0000000E+000	0.0000000E+000	4.99818	11.4342	85.0018	-5.92738e-06	-1.49517e-06	-1.21061e-09	-1.49396e-06	0.285018	54419.9	44.0626	54375.8
0.0999041	39.9674	4.85562	40.2613	-6.9269	79.2087	0.285248	-0.00287932	328089	4772.07	1	12	0.00491239	0.000122013	0	-0.00018965	1.86979e-06	1.59783e-06	19.1751	0.0130956	0.012369	-0.00430132	-6.9187	40.273	39.9798	4.85132	0.0246565	0.00299551	0.0248378	6.9269	4.77207e+06	3.92797e+07	3.95685e+07	-83.0731	0.0000000E+000	0.0000000E+000	0.0000000E+000	83.0731	0.0000000E+000	0.0000000E+000	0.0000000E+000	-83.0731	0.0000000E+000	0.0000000E+000	0.0000000E+000	-6.9269	0.0000000E+000	0.0000000E+000	0.0000000E+000	6.9269	8.23115	83.0731	-5.15402e-05	-8.21321e-07	-5.38372e-12	-8.21315e-07	0.285246	99068	0.649386	99067.4
0.0315922	43.2319	9.83477	44.3364	-12.816	222.092	0.285245	-0.0024235	512243	25204.8	1	12	0.00491274	0.000110806	0	-0.000296431	0.000421868	1.49886e-06	15.4682	0.0135269	0.013037	-0.00360767	-12.8078	44.3483	43.2449	9.83117	0.0219929	0.00500315	0.0225548	12.816	2.52048e+07	1.10796e+08	1.13627e+08	-77.184	0.0000000E+000	0.0000000E+000	0.0000000E+000	77.184	0.0000000E+000	0.0000000E+000	0.0000000E+000	-77.184	0.0000000E+000	0.0000000E+000	0.0000000E+000	-12.816	0.0000000E+000	0.0000000E+000	0.0000000E+000	12.816	4.39582	77.184	2.34865e-06	-6.91292e-07	-1.0224e-09	-6.9027e-07	0.284823	117699	174.074	117525
0.0100092	49.5565	20.9395	53.7988	-22.9059	673.315	0.285236	-0.000238027	759374	115039	1	12	0.0049141	9.13422e-05	0	5.24654e-05	0.000421868	1.60715e-06	-26.2339	0.0175949	0.0157825	0.00777757	-22.907	53.8163	49.5723	20.9473	0.0171221	0.00723472	0.0185878	22.9059	1.15039e+08	2.72256e+08	2.95563e+08	-67.0941	0.0000000E+000	0.0000000E+000	0.0000000E+000	67.0941	0.0000000E+000	0.0000000E+000	0.0000000E+000	-67.0941	0.0000000E+000	0.0000000E+000	0.0000000E+000	-22.9059	0.0000000E+000	0.0000000E+000	0.0000000E+000	22.9059	2.36665	67.0941	0.000113167	-6.7894e-08	-1.00416e-10	-6.77935e-08	0.284814	1.19833e+06	1772.35	1.19656e+06