Folder: EIS/txt (part 27)

File: 17459_C01.mpt
EC-Lab ASCII FILE
Nb header lines : 64

Potentio Electrochemical Impedance Spectroscopy

Run on channel : 1 (SN 66354)
User :
CE vs. WE compliance from -10 V to 10 V
Electrode connection : standard
Potential control : Ewe
Ewe ctrl range : min = -10.00 V, max = 10.00 V
Safety Limits :
	Do not start on E overload
Acquisition started on : 09/12/2025 09:48:20.444
Technique started on : 09/12/2025 09:48:22.511
Loaded Setting File :  C:\Users\Celltest\OneDrive - store-dot.com\Documents\EC-Lab\Data\Gyutae\EIS_SOC0_C01.mpr
Saved on :
	File : 17459_C01.mpr
	Directory : C:\Users\Celltest\OneDrive - store-dot.com\Documents\EC-Lab\Data\Gyutae\R277\
	Host : 169.254.61.224
Device : VMP-3e (SN .003165)
Address : USB
EC-LAB for windows v11.62 (software)
Internet server v27.00 (firmware)
Command interpretor v12.03 (firmware)
Electrode material :
Initial state :
Electrolyte :
Comments :
Electrode surface area : 0.001 cm²
Characteristic mass : 0.001 g
Equivalent Weight : 0.000 g/eq.
Density : 0.000 g/cm3
Volume (V) : 0.001 cm³
Cycle Definition : Charge/Discharge alternance
Mode                Single sine
E (V)               0.0000
vs.                 Eoc
tE (h:m:s)          0:00:0.0000
record              0
dI                  0.000
unit dI             mA
dt (s)              0.000
fi                  100.000
unit fi             kHz
ff                  10.000
unit ff             mHz
Nd                  6
Points              per decade
spacing             Logarithmic
Va (mV)             5.0
pw                  0.10
Na                  2
corr                0
E range min (V)     -10.000
E range max (V)     10.000
I Range             Auto
Bandwidth           5
nc cycles           0
goto Ns'            0
nr cycles           0
inc. cycle          0

freq/Hz	Re(Z)/Ohm	-Im(Z)/Ohm	|Z|/Ohm	Phase(Z)/deg	time/s	<Ewe>/V	<I>/mA	Cs/µF	Cp/µF	cycle number	I Range	|Ewe|/V	|I|/A	Ns	(Q-Qo)/mA.h	Re(Y)/Ohm-1	Im(Y)/Ohm-1	|Y|/Ohm-1	Phase(Y)/deg	Re(C)/nF	Im(C)/nF	|C|/nF	Phase(C)/deg	Re(M)	Im(M)	|M|	Phase(M)/deg	Re(Permittivity)	Im(Permittivity)	|Permittivity|	Phase(Permittivity)/deg	Re(Resistivity)/Ohm.cm	Im(Resistivity)/Ohm.cm	|Resistivity|/Ohm.cm	Phase(Resistivity)/deg	Re(Conductivity)/mS/cm	Im(Conductivity)/mS/cm	|Conductivity|/mS/cm	Phase(Conductivity)/deg	Tan(Delta)	Loss Angle(Delta)/deg	dq/mA.h	Pwe/W	Rwe/Ohm
100004	1.14112	0.241004	1.16629	-11.9256	2.06748	0.274847	0.0766649	6.60357	0.281978	1	9	0.00463439	0.00397361	0	9.05904e-06	0.838912	0.177178	0.857418	11.9256	281.978	1335.12	1364.57	-78.0744	0.0000000E+000	0.0000000E+000	0.0000000E+000	78.0744	0.0000000E+000	0.0000000E+000	0.0000000E+000	-78.0744	0.0000000E+000	0.0000000E+000	0.0000000E+000	-11.9256	0.0000000E+000	0.0000000E+000	0.0000000E+000	11.9256	4.73485	78.0744	9.05904e-06	2.10711e-05	3585.05
46420.4	1.2626	0.283146	1.29396	-12.6398	3.0835	0.274841	0.0752492	12.1088	0.579803	1	9	0.00507035	0.00391847	0	3.50824e-05	0.754092	0.16911	0.772821	12.6398	579.803	2585.45	2649.66	-77.3602	0.0000000E+000	0.0000000E+000	0.0000000E+000	77.3602	0.0000000E+000	0.0000000E+000	0.0000000E+000	-77.3602	0.0000000E+000	0.0000000E+000	0.0000000E+000	-12.6398	0.0000000E+000	0.0000000E+000	0.0000000E+000	12.6398	4.45918	77.3602	1.45656e-05	2.06816e-05	3652.42
21544.7	1.40248	0.359328	1.44778	-14.3706	4.09848	0.274847	0.0816197	20.5584	1.26638	1	9	0.00531728	0.00367271	0	6.60166e-05	0.6691	0.171429	0.690712	14.3706	1266.38	4942.78	5102.43	-75.6294	0.0000000E+000	0.0000000E+000	0.0000000E+000	75.6294	0.0000000E+000	0.0000000E+000	0.0000000E+000	-75.6294	0.0000000E+000	0.0000000E+000	0.0000000E+000	-14.3706	0.0000000E+000	0.0000000E+000	0.0000000E+000	14.3706	3.90307	75.6294	7.94273e-06	2.24329e-05	3367.41
10002.2	1.57222	0.450509	1.63549	-15.9893	4.97249	0.274848	0.0819922	35.3199	2.67998	1	9	0.0049171	0.0030065	0	7.99248e-05	0.587783	0.168426	0.611438	15.9893	2679.98	9352.78	9729.17	-74.0107	0.0000000E+000	0.0000000E+000	0.0000000E+000	74.0107	0.0000000E+000	0.0000000E+000	0.0000000E+000	-74.0107	0.0000000E+000	0.0000000E+000	0.0000000E+000	-15.9893	0.0000000E+000	0.0000000E+000	0.0000000E+000	15.9893	3.48987	74.0107	8.35309e-06	2.25354e-05	3352.13
4641.49	1.80016	0.581156	1.89164	-17.892	6.04471	0.274809	0.105556	59.0025	5.56901	1	9	0.00498149	0.00263342	0	9.64784e-05	0.503075	0.162411	0.528642	17.892	5569.02	17250.3	18126.9	-72.108	0.0000000E+000	0.0000000E+000	0.0000000E+000	72.108	0.0000000E+000	0.0000000E+000	0.0000000E+000	-72.108	0.0000000E+000	0.0000000E+000	0.0000000E+000	-17.892	0.0000000E+000	0.0000000E+000	0.0000000E+000	17.892	3.09754	72.108	2.00593e-05	2.90076e-05	2603.45
2155.69	2.10605	0.75337	2.23674	-19.683	6.9787	0.274825	0.106245	97.9998	11.1176	1	9	0.00486288	0.00217409	0	0.000121048	0.420956	0.150583	0.447078	19.683	11117.6	31079.2	33007.9	-70.317	0.0000000E+000	0.0000000E+000	0.0000000E+000	70.317	0.0000000E+000	0.0000000E+000	0.0000000E+000	-70.317	0.0000000E+000	0.0000000E+000	0.0000000E+000	-19.683	0.0000000E+000	0.0000000E+000	0.0000000E+000	19.683	2.79551	70.317	1.36689e-05	2.91987e-05	2586.71
1000.32	2.50108	0.93784	2.67113	-20.5547	7.91567	0.274828	0.107847	169.649	20.9131	1	9	0.00482713	0.00180715	0	0.000146283	0.350539	0.131443	0.374373	20.5547	20913.1	55772.2	59564.3	-69.4453	0.0000000E+000	0.0000000E+000	0.0000000E+000	69.4453	0.0000000E+000	0.0000000E+000	0.0000000E+000	-69.4453	0.0000000E+000	0.0000000E+000	0.0000000E+000	-20.5547	0.0000000E+000	0.0000000E+000	0.0000000E+000	20.5547	2.66685	69.4453	1.12212e-05	2.96393e-05	2548.32
463.961	3.03439	1.14672	3.24384	-20.7019	9.10418	0.274811	-0.0128975	299.146	37.3832	1	10	0.00485686	0.00149726	0	0.00016399	0.288372	0.108978	0.308277	20.7019	37383.2	98921.8	105750	-69.2981	0.0000000E+000	0.0000000E+000	0.0000000E+000	69.2981	0.0000000E+000	0.0000000E+000	0.0000000E+000	-69.2981	0.0000000E+000	0.0000000E+000	0.0000000E+000	-20.7019	0.0000000E+000	0.0000000E+000	0.0000000E+000	20.7019	2.64616	69.2981	6.46022e-06	-3.54438e-06	21307.3
215.345	3.68874	1.32476	3.91942	-19.7551	10.0385	0.274811	-0.013982	557.889	63.7356	1	10	0.00482727	0.00123163	0	0.000159901	0.240124	0.0862375	0.25514	19.7551	63735.6	177469	188567	-70.2449	0.0000000E+000	0.0000000E+000	0.0000000E+000	70.2449	0.0000000E+000	0.0000000E+000	0.0000000E+000	-70.2449	0.0000000E+000	0.0000000E+000	0.0000000E+000	-19.7551	0.0000000E+000	0.0000000E+000	0.0000000E+000	19.7551	2.78445	70.2449	-1.73272e-06	-3.84242e-06	19654.6
100.032	4.46063	1.37809	4.66865	-17.1683	10.9697	0.274805	-0.0131528	1154.53	100.595	1	10	0.00480676	0.00102958	0	0.000157791	0.20465	0.0632256	0.214194	17.1683	100595	325607	340792	-72.8317	0.0000000E+000	0.0000000E+000	0.0000000E+000	72.8317	0.0000000E+000	0.0000000E+000	0.0000000E+000	-72.8317	0.0000000E+000	0.0000000E+000	0.0000000E+000	-17.1683	0.0000000E+000	0.0000000E+000	0.0000000E+000	17.1683	3.23683	72.8317	-8.21011e-07	-3.61446e-06	20893.3
46.4415	5.21729	1.2167	5.35728	-13.127	11.9035	0.274797	-0.0176643	2816.64	145.28	1	10	0.00480867	0.000897595	0	0.000155973	0.181784	0.042393	0.186662	13.127	145280	622973	639689	-76.873	0.0000000E+000	0.0000000E+000	0.0000000E+000	76.873	0.0000000E+000	0.0000000E+000	0.0000000E+000	-76.873	0.0000000E+000	0.0000000E+000	0.0000000E+000	-13.127	0.0000000E+000	0.0000000E+000	0.0000000E+000	13.127	4.28807	76.873	-1.16925e-06	-4.85408e-06	15556.6
[...]
1.00006	6.7224	0.461464	6.73822	-3.92695	20.4512	0.274853	-0.00413384	344869	1617.48	1	11	0.00481244	0.0007142	0	0.000122398	0.148059	0.0101636	0.148407	3.92695	1.61748e+06	2.35628e+07	2.36182e+07	-86.0731	0.0000000E+000	0.0000000E+000	0.0000000E+000	86.0731	0.0000000E+000	0.0000000E+000	0.0000000E+000	-86.0731	0.0000000E+000	0.0000000E+000	0.0000000E+000	-3.92695	0.0000000E+000	0.0000000E+000	0.0000000E+000	3.92695	14.5676	86.0731	-9.63784e-06	-1.1362e-06	66488.5
0.464091	6.86982	0.612921	6.89711	-5.0984	28.1357	0.274856	-0.00579486	559516	4418.63	1	11	0.00481332	0.000697875	0	0.000169868	0.144415	0.0128846	0.144988	5.0984	4.41863e+06	4.95255e+07	4.97222e+07	-84.9016	0.0000000E+000	0.0000000E+000	0.0000000E+000	84.9016	0.0000000E+000	0.0000000E+000	0.0000000E+000	-84.9016	0.0000000E+000	0.0000000E+000	0.0000000E+000	-5.0984	0.0000000E+000	0.0000000E+000	0.0000000E+000	5.0984	11.2083	84.9016	3.74092e-05	-1.59275e-06	47430.9
0.215268	7.10879	0.929039	7.16924	-7.44571	44.6136	0.274852	0.0025576	795806	13363.7	1	11	0.00481181	0.000671173	0	0.000262073	0.138309	0.0180754	0.139485	7.44571	1.33637e+07	1.02256e+08	1.03126e+08	-82.5543	0.0000000E+000	0.0000000E+000	0.0000000E+000	82.5543	0.0000000E+000	0.0000000E+000	0.0000000E+000	-82.5543	0.0000000E+000	0.0000000E+000	0.0000000E+000	-7.44571	0.0000000E+000	0.0000000E+000	0.0000000E+000	7.44571	7.65177	82.5543	3.93589e-05	7.02962e-07	107465
0.0999041	7.41861	1.56018	7.58089	-11.8766	80.0211	0.274855	0.00437406	1.02109e+06	43248.4	1	11	0.00481627	0.000635317	0	0.000119079	0.129087	0.0271477	0.131911	11.8766	4.32485e+07	2.05645e+08	2.10144e+08	-78.1234	0.0000000E+000	0.0000000E+000	0.0000000E+000	78.1234	0.0000000E+000	0.0000000E+000	0.0000000E+000	-78.1234	0.0000000E+000	0.0000000E+000	0.0000000E+000	-11.8766	0.0000000E+000	0.0000000E+000	0.0000000E+000	11.8766	4.75498	78.1234	-0.000123943	1.20223e-06	62837.5
0.0464052	7.99444	2.62403	8.41407	-18.1715	156.258	0.274853	-0.00162949	1.30703e+06	127119	1	11	0.00481304	0.000572023	0	-0.000394732	0.112921	0.0370643	0.118849	18.1715	1.27119e+08	3.87284e+08	4.07612e+08	-71.8285	0.0000000E+000	0.0000000E+000	0.0000000E+000	71.8285	0.0000000E+000	0.0000000E+000	0.0000000E+000	-71.8285	0.0000000E+000	0.0000000E+000	0.0000000E+000	-18.1715	0.0000000E+000	0.0000000E+000	0.0000000E+000	18.1715	3.04663	71.8285	-0.000291388	-4.47871e-07	168675
0.0215268	8.77641	4.76545	9.98674	-28.5012	320.487	0.274852	-0.00173322	1.55145e+06	353262	1	11	0.00481228	0.000481867	0	-0.000127643	0.0879974	0.0477811	0.100133	28.5012	3.53262e+08	6.50595e+08	7.40316e+08	-61.4988	0.0000000E+000	0.0000000E+000	0.0000000E+000	61.4988	0.0000000E+000	0.0000000E+000	0.0000000E+000	-61.4988	0.0000000E+000	0.0000000E+000	0.0000000E+000	-28.5012	0.0000000E+000	0.0000000E+000	0.0000000E+000	28.5012	1.84168	61.4988	0.000363728	-4.76379e-07	158579
0.0100092	10.385	8.31727	13.3051	-38.691	673.704	0.27485	0.000626469	1.91179e+06	747083	1	11	0.00481353	0.000361782	0	0.00164156	0.058664	0.0469837	0.0751593	38.691	7.47083e+08	9.32811e+08	1.1951e+09	-51.309	0.0000000E+000	0.0000000E+000	0.0000000E+000	51.309	0.0000000E+000	0.0000000E+000	0.0000000E+000	-51.309	0.0000000E+000	0.0000000E+000	0.0000000E+000	-38.691	0.0000000E+000	0.0000000E+000	0.0000000E+000	38.691	1.2486	51.309	0.000929106	1.72185e-07	438728

File: 17460_R277_UA655_SOC00_C02.mpt
EC-Lab ASCII FILE
Nb header lines : 63

Potentio Electrochemical Impedance Spectroscopy

Run on channel : 2 (SN 66139)
User :
CE vs. WE compliance from -10 V to 10 V
Electrode connection : standard
Potential control : Ewe
Ewe ctrl range : min = -10.00 V, max = 10.00 V
Safety Limits :
	Do not start on E overload
Acquisition started on : 09/12/2025 09:48:31.821
Loaded Setting File :  C:\Users\Celltest\OneDrive - store-dot.com\Documents\EC-Lab\Data\Charmaine\R279\17382_C01.mpr
Saved on :
	File : 17460_C02.mpr
	Directory : C:\Users\Celltest\OneDrive - store-dot.com\Documents\EC-Lab\Data\Gyutae\R277\
	Host : 169.254.61.224
Device : VMP-3e (SN .003165)
Address : USB
EC-LAB for windows v11.62 (software)
Internet server v27.00 (firmware)
Command interpretor v12.03 (firmware)
Electrode material :
Initial state :
Electrolyte :
Comments :
Electrode surface area : 0.001 cm²
Characteristic mass : 0.001 g
Equivalent Weight : 0.000 g/eq.
Density : 0.000 g/cm3
Volume (V) : 0.001 cm³
Cycle Definition : Charge/Discharge alternance
Mode                Single sine
E (V)               0.0000
vs.                 Eoc
tE (h:m:s)          0:00:0.0000
record              0
dI                  0.000
unit dI             mA
dt (s)              0.000
fi                  100.000
unit fi             kHz
ff                  10.000
unit ff             mHz
Nd                  6
Points              per decade
spacing             Logarithmic
Va (mV)             5.0
pw                  0.10
Na                  2
corr                0
E range min (V)     -10.000
E range max (V)     10.000
I Range             Auto
Bandwidth           5
nc cycles           0
goto Ns'            0
nr cycles           0
inc. cycle          0

freq/Hz	Re(Z)/Ohm	-Im(Z)/Ohm	|Z|/Ohm	Phase(Z)/deg	time/s	<Ewe>/V	<I>/mA	Cs/µF	Cp/µF	cycle number	I Range	|Ewe|/V	|I|/A	Ns	(Q-Qo)/mA.h	Re(Y)/Ohm-1	Im(Y)/Ohm-1	|Y|/Ohm-1	Phase(Y)/deg	Re(C)/nF	Im(C)/nF	|C|/nF	Phase(C)/deg	Re(M)	Im(M)	|M|	Phase(M)/deg	Re(Permittivity)	Im(Permittivity)	|Permittivity|	Phase(Permittivity)/deg	Re(Resistivity)/Ohm.cm	Im(Resistivity)/Ohm.cm	|Resistivity|/Ohm.cm	Phase(Resistivity)/deg	Re(Conductivity)/mS/cm	Im(Conductivity)/mS/cm	|Conductivity|/mS/cm	Phase(Conductivity)/deg	Tan(Delta)	Loss Angle(Delta)/deg	dq/mA.h	Pwe/W	Rwe/Ohm
100004	1.23306	0.241427	1.25647	-11.0781	1.86547	0.275595	-0.0189372	6.59203	0.243378	1	9	0.00453894	0.00361244	0	-1.65414e-05	0.781048	0.152925	0.795878	11.0781	243.378	1243.03	1266.63	-78.9219	0.0000000E+000	0.0000000E+000	0.0000000E+000	78.9219	0.0000000E+000	0.0000000E+000	0.0000000E+000	-78.9219	0.0000000E+000	0.0000000E+000	0.0000000E+000	-11.0781	0.0000000E+000	0.0000000E+000	0.0000000E+000	11.0781	5.1074	78.9219	-1.65414e-05	-5.21901e-06	14553.1
46420.4	1.35743	0.286889	1.38741	-11.9337	3.0215	0.275591	-0.0105569	11.9508	0.510992	1	9	0.00507659	0.00365903	0	-1.85917e-05	0.705188	0.14904	0.720766	11.9337	510.992	2417.78	2471.19	-78.0663	0.0000000E+000	0.0000000E+000	0.0000000E+000	78.0663	0.0000000E+000	0.0000000E+000	0.0000000E+000	-78.0663	0.0000000E+000	0.0000000E+000	0.0000000E+000	-11.9337	0.0000000E+000	0.0000000E+000	0.0000000E+000	11.9337	4.73154	78.0663	-1.91696e-06	-2.90939e-06	26105.3
21544.7	1.49622	0.364651	1.54002	-13.6968	4.0365	0.275584	-0.0124751	20.2583	1.13581	1	9	0.00533081	0.00346152	0	-2.95113e-05	0.630877	0.153754	0.649343	13.6968	1135.81	4660.42	4796.83	-76.3032	0.0000000E+000	0.0000000E+000	0.0000000E+000	76.3032	0.0000000E+000	0.0000000E+000	0.0000000E+000	-76.3032	0.0000000E+000	0.0000000E+000	0.0000000E+000	-13.6968	0.0000000E+000	0.0000000E+000	0.0000000E+000	13.6968	4.10317	76.3032	-6.29491e-06	-3.43794e-06	22090.8
10002.2	1.67623	0.46226	1.7388	-15.4175	4.62849	0.275582	-0.0147471	34.4221	2.43282	1	9	0.00507972	0.00292139	0	-3.06077e-05	0.554414	0.152893	0.57511	15.4175	2432.82	8821.81	9151.12	-74.5825	0.0000000E+000	0.0000000E+000	0.0000000E+000	74.5825	0.0000000E+000	0.0000000E+000	0.0000000E+000	-74.5825	0.0000000E+000	0.0000000E+000	0.0000000E+000	-15.4175	0.0000000E+000	0.0000000E+000	0.0000000E+000	15.4175	3.62616	74.5825	-4.14528e-07	-4.06403e-06	18687.2
4641.49	1.90195	0.606326	1.99626	-17.6818	5.47669	0.275572	-0.0037223	56.5532	5.21717	1	9	0.00473338	0.00237113	0	-3.53861e-05	0.477271	0.15215	0.500937	17.6818	5217.17	16365.5	17176.9	-72.3182	0.0000000E+000	0.0000000E+000	0.0000000E+000	72.3182	0.0000000E+000	0.0000000E+000	0.0000000E+000	-72.3182	0.0000000E+000	0.0000000E+000	0.0000000E+000	-17.6818	0.0000000E+000	0.0000000E+000	0.0000000E+000	17.6818	3.13685	72.3182	8.92671e-07	-1.02576e-06	74032.5
2155.69	2.20195	0.788242	2.33878	-19.6961	6.41069	0.27557	0.00288882	93.6643	10.6393	1	9	0.00461614	0.00197373	0	-3.47807e-05	0.402557	0.144105	0.427572	19.6961	10639.3	29720.8	31567.7	-70.3039	0.0000000E+000	0.0000000E+000	0.0000000E+000	70.3039	0.0000000E+000	0.0000000E+000	0.0000000E+000	-70.3039	0.0000000E+000	0.0000000E+000	0.0000000E+000	-19.6961	0.0000000E+000	0.0000000E+000	0.0000000E+000	19.6961	2.7935	70.3039	1.47948e-06	7.96071e-07	95391.7
1000.32	2.60681	1.02691	2.80178	-21.5011	7.34668	0.275567	0.00415518	154.935	20.8134	1	9	0.00457105	0.00163148	0	-3.49418e-05	0.332078	0.130816	0.356916	21.5011	20813.4	52835	56786.7	-68.4989	0.0000000E+000	0.0000000E+000	0.0000000E+000	68.4989	0.0000000E+000	0.0000000E+000	0.0000000E+000	-68.4989	0.0000000E+000	0.0000000E+000	0.0000000E+000	-21.5011	0.0000000E+000	0.0000000E+000	0.0000000E+000	21.5011	2.53851	68.4989	5.06555e-07	1.14503e-06	66318.9
463.961	3.12011	1.31751	3.38688	-22.8926	8.53522	0.275576	-0.0317293	260.366	39.3999	1	10	0.00459378	0.00135634	0	-4.32495e-05	0.272001	0.114857	0.295257	22.8926	39399.9	93306.1	101284	-67.1074	0.0000000E+000	0.0000000E+000	0.0000000E+000	67.1074	0.0000000E+000	0.0000000E+000	0.0000000E+000	-67.1074	0.0000000E+000	0.0000000E+000	0.0000000E+000	-22.8926	0.0000000E+000	0.0000000E+000	0.0000000E+000	22.8926	2.36818	67.1074	-3.3166e-06	-8.74382e-06	8685.21
215.345	3.84383	1.70928	4.20674	-23.9739	9.46941	0.275577	-0.0316324	432.387	71.3852	1	10	0.00457031	0.00108643	0	-5.07165e-05	0.217206	0.0965878	0.237714	23.9739	71385.2	160531	175687	-66.0261	0.0000000E+000	0.0000000E+000	0.0000000E+000	66.0261	0.0000000E+000	0.0000000E+000	0.0000000E+000	-66.0261	0.0000000E+000	0.0000000E+000	0.0000000E+000	-23.9739	0.0000000E+000	0.0000000E+000	0.0000000E+000	23.9739	2.2488	66.0261	-4.14194e-06	-8.71716e-06	8711.84
100.032	4.87701	2.0741	5.29973	-23.0391	10.4007	0.275566	-0.0305801	767.098	117.491	1	10	0.00455608	0.000859681	0	-5.87933e-05	0.173639	0.0738452	0.188689	23.0391	117491	276266	300211	-66.9609	0.0000000E+000	0.0000000E+000	0.0000000E+000	66.9609	0.0000000E+000	0.0000000E+000	0.0000000E+000	-66.9609	0.0000000E+000	0.0000000E+000	0.0000000E+000	-23.0391	0.0000000E+000	0.0000000E+000	0.0000000E+000	23.0391	2.35138	66.9609	-4.02902e-06	-8.42681e-06	9011.28
46.4415	6.14358	2.1259	6.501	-19.0875	11.3335	0.275564	-0.0327593	1612.02	172.384	1	10	0.00454485	0.0006991	0	-6.67556e-05	0.145365	0.0503017	0.153822	19.0875	172384	498166	527149	-70.9125	0.0000000E+000	0.0000000E+000	0.0000000E+000	70.9125	0.0000000E+000	0.0000000E+000	0.0000000E+000	-70.9125	0.0000000E+000	0.0000000E+000	0.0000000E+000	-19.0875	0.0000000E+000	0.0000000E+000	0.0000000E+000	19.0875	2.88987	70.9125	-4.30249e-06	-9.02731e-06	8411.79
[...]
1.00006	9.26596	0.738936	9.29538	-4.55954	19.6342	0.275605	-0.0148126	215370	1361.02	1	11	0.00454695	0.000489163	0	-9.19552e-05	0.10724	0.00855209	0.10758	4.55954	1.36102e+06	1.70667e+07	1.71208e+07	-85.4405	0.0000000E+000	0.0000000E+000	0.0000000E+000	85.4405	0.0000000E+000	0.0000000E+000	0.0000000E+000	-85.4405	0.0000000E+000	0.0000000E+000	0.0000000E+000	-4.55954	0.0000000E+000	0.0000000E+000	0.0000000E+000	4.55954	12.5396	85.4405	1.21939e-06	-4.08243e-06	18606.1
0.464091	9.50183	0.835017	9.53845	-5.02223	27.3189	0.275606	-0.0087272	410698	3147.44	1	11	0.00454644	0.000476643	0	-0.00014248	0.104436	0.00917782	0.104839	5.02223	3.14743e+06	3.58153e+07	3.59534e+07	-84.9778	0.0000000E+000	0.0000000E+000	0.0000000E+000	84.9778	0.0000000E+000	0.0000000E+000	0.0000000E+000	-84.9778	0.0000000E+000	0.0000000E+000	0.0000000E+000	-5.02223	0.0000000E+000	0.0000000E+000	0.0000000E+000	5.02223	11.3792	84.9778	-3.7269e-05	-2.40527e-06	31580.1
0.215268	9.80789	1.13804	9.8737	-6.61862	43.7989	0.275604	-0.00897413	649655	8630.58	1	11	0.00454632	0.000460448	0	-0.00026888	0.100604	0.0116734	0.101279	6.61862	8.63058e+06	7.43802e+07	7.48792e+07	-83.3814	0.0000000E+000	0.0000000E+000	0.0000000E+000	83.3814	0.0000000E+000	0.0000000E+000	0.0000000E+000	-83.3814	0.0000000E+000	0.0000000E+000	0.0000000E+000	-6.61862	0.0000000E+000	0.0000000E+000	0.0000000E+000	6.61862	8.61822	83.3814	-6.68757e-05	-2.47331e-06	30711
0.0999041	10.2111	1.84402	10.3763	-10.2367	79.2056	0.275606	-0.00896259	863917	27284.6	1	11	0.00454694	0.000438205	0	-0.000295762	0.0948396	0.017127	0.0963737	10.2367	2.72847e+07	1.51087e+08	1.53531e+08	-79.7633	0.0000000E+000	0.0000000E+000	0.0000000E+000	79.7633	0.0000000E+000	0.0000000E+000	0.0000000E+000	-79.7633	0.0000000E+000	0.0000000E+000	0.0000000E+000	-10.2367	0.0000000E+000	0.0000000E+000	0.0000000E+000	10.2367	5.53743	79.7633	1.74994e-05	-2.47015e-06	30750.7
0.0464052	10.8362	2.96287	11.2339	-15.2923	155.441	0.275607	-0.00214016	1.15755e+06	80519.6	1	11	0.00454533	0.000404607	0	6.32528e-06	0.0858641	0.0234773	0.0890159	15.2923	8.05196e+07	2.94486e+08	3.05296e+08	-74.7077	0.0000000E+000	0.0000000E+000	0.0000000E+000	74.7077	0.0000000E+000	0.0000000E+000	0.0000000E+000	-74.7077	0.0000000E+000	0.0000000E+000	0.0000000E+000	-15.2923	0.0000000E+000	0.0000000E+000	0.0000000E+000	15.2923	3.65732	74.7077	0.00020477	-5.89842e-07	128779
0.0215268	11.7989	5.29778	12.9337	-24.1804	319.672	0.275602	0.000727554	1.39556e+06	234148	1	11	0.00454556	0.000351452	0	9.03069e-05	0.0705337	0.0316701	0.0773175	24.1804	2.34148e+08	5.2148e+08	5.71635e+08	-65.8196	0.0000000E+000	0.0000000E+000	0.0000000E+000	65.8196	0.0000000E+000	0.0000000E+000	0.0000000E+000	-65.8196	0.0000000E+000	0.0000000E+000	0.0000000E+000	-24.1804	0.0000000E+000	0.0000000E+000	0.0000000E+000	24.1804	2.22714	65.8196	-8.88667e-05	2.00516e-07	378807
0.0100092	13.3022	9.31138	16.2373	-34.9916	772.964	0.275601	-0.000698882	1.70769e+06	561576	1	12	0.00454708	0.000280039	0	-0.0013306	0.050454	0.0353172	0.0615866	34.9916	5.61576e+08	8.02265e+08	9.79284e+08	-55.0084	0.0000000E+000	0.0000000E+000	0.0000000E+000	55.0084	0.0000000E+000	0.0000000E+000	0.0000000E+000	-55.0084	0.0000000E+000	0.0000000E+000	0.0000000E+000	-34.9916	0.0000000E+000	0.0000000E+000	0.0000000E+000	34.9916	1.42859	55.0084	-0.000893681	-1.92612e-07	394345