Folder: EIS/txt (part 53)

File: 17693_R287_UA658_SOC00_C08.mpt
EC-Lab ASCII FILE
Nb header lines : 63

Potentio Electrochemical Impedance Spectroscopy

Run on channel : 8 (SN 65398)
User :
CE vs. WE compliance from -10 V to 10 V
Electrode connection : standard
Potential control : Ewe
Ewe ctrl range : min = -10.00 V, max = 10.00 V
Safety Limits :
	Do not start on E overload
Acquisition started on : 09/22/2025 08:45:42.394
Loaded Setting File :  C:\Users\Celltest\OneDrive - store-dot.com\Documents\EC-Lab\Data\Charmaine\17688_R288_UA670_SOC00_C03.mpr
Saved on :
	File : 17693_R287_UA658_SOC00_C08.mpr
	Directory : C:\Users\Celltest\OneDrive - store-dot.com\Documents\EC-Lab\Data\Charmaine\
	Host : 169.254.61.224
Device : VMP-3e (SN .003165)
Address : USB
EC-LAB for windows v11.62 (software)
Internet server v27.00 (firmware)
Command interpretor v12.03 (firmware)
Electrode material :
Initial state :
Electrolyte :
Comments :
Electrode surface area : 0.001 cm²
Characteristic mass : 0.001 g
Equivalent Weight : 0.000 g/eq.
Density : 0.000 g/cm3
Volume (V) : 0.001 cm³
Cycle Definition : Charge/Discharge alternance
Mode                Single sine
E (V)               0.0000
vs.                 Eoc
tE (h:m:s)          0:00:0.0000
record              0
dI                  0.000
unit dI             mA
dt (s)              0.000
fi                  100.000
unit fi             kHz
ff                  10.000
unit ff             mHz
Nd                  6
Points              per decade
spacing             Logarithmic
Va (mV)             5.0
pw                  0.10
Na                  2
corr                0
E range min (V)     -10.000
E range max (V)     10.000
I Range             Auto
Bandwidth           5
nc cycles           0
goto Ns'            0
nr cycles           0
inc. cycle          0

freq/Hz	Re(Z)/Ohm	-Im(Z)/Ohm	|Z|/Ohm	Phase(Z)/deg	time/s	<Ewe>/V	<I>/mA	Cs/µF	Cp/µF	cycle number	I Range	|Ewe|/V	|I|/A	Ns	(Q-Qo)/mA.h	Re(Y)/Ohm-1	Im(Y)/Ohm-1	|Y|/Ohm-1	Phase(Y)/deg	Re(C)/nF	Im(C)/nF	|C|/nF	Phase(C)/deg	Re(M)	Im(M)	|M|	Phase(M)/deg	Re(Permittivity)	Im(Permittivity)	|Permittivity|	Phase(Permittivity)/deg	Re(Resistivity)/Ohm.cm	Im(Resistivity)/Ohm.cm	|Resistivity|/Ohm.cm	Phase(Resistivity)/deg	Re(Conductivity)/mS/cm	Im(Conductivity)/mS/cm	|Conductivity|/mS/cm	Phase(Conductivity)/deg	Tan(Delta)	Loss Angle(Delta)/deg	dq/mA.h	Pwe/W	Rwe/Ohm
100004	1.00855	0.18017	1.02452	-10.1286	1.86449	0.279417	0.0236445	8.83328	0.273178	1	9	0.00483222	0.00471657	0	-8.36478e-07	0.960856	0.171649	0.976067	10.1286	273.178	1529.19	1553.4	-79.8714	0.0000000E+000	0.0000000E+000	0.0000000E+000	79.8714	0.0000000E+000	0.0000000E+000	0.0000000E+000	-79.8714	0.0000000E+000	0.0000000E+000	0.0000000E+000	-10.1286	0.0000000E+000	0.0000000E+000	0.0000000E+000	10.1286	5.59779	79.8714	-8.36478e-07	6.60668e-06	11817.4
46420.4	1.09834	0.217924	1.11975	-11.2224	2.87949	0.279428	0.0283878	15.7328	0.5959	1	9	0.00505476	0.00451418	0	4.01605e-06	0.875979	0.173805	0.893055	11.2224	595.9	3003.35	3061.89	-78.7776	0.0000000E+000	0.0000000E+000	0.0000000E+000	78.7776	0.0000000E+000	0.0000000E+000	0.0000000E+000	-78.7776	0.0000000E+000	0.0000000E+000	0.0000000E+000	-11.2224	0.0000000E+000	0.0000000E+000	0.0000000E+000	11.2224	5.04001	78.7776	6.2515e-06	7.93234e-06	9843.26
21544.7	1.20493	0.280578	1.23716	-13.1083	3.89549	0.279424	0.0267137	26.3285	1.35419	1	9	0.00540928	0.00437233	0	8.03181e-06	0.78724	0.183316	0.808302	13.1083	1354.19	5815.5	5971.09	-76.8917	0.0000000E+000	0.0000000E+000	0.0000000E+000	76.8917	0.0000000E+000	0.0000000E+000	0.0000000E+000	-76.8917	0.0000000E+000	0.0000000E+000	0.0000000E+000	-13.1083	0.0000000E+000	0.0000000E+000	0.0000000E+000	13.1083	4.29443	76.8917	-1.96625e-06	7.46444e-06	10460
10002.2	1.33753	0.361908	1.38563	-15.1405	4.48749	0.279419	0.0244257	43.9669	2.99935	1	9	0.00498274	0.00359601	0	1.31121e-05	0.696642	0.188497	0.721693	15.1405	2999.35	11084.9	11483.6	-74.8595	0.0000000E+000	0.0000000E+000	0.0000000E+000	74.8595	0.0000000E+000	0.0000000E+000	0.0000000E+000	-74.8595	0.0000000E+000	0.0000000E+000	0.0000000E+000	-15.1405	0.0000000E+000	0.0000000E+000	0.0000000E+000	15.1405	3.69578	74.8595	9.96215e-07	6.82499e-06	11439.5
4641.49	1.51997	0.48062	1.59414	-17.5472	5.33767	0.279371	0.0234026	71.3447	6.48501	1	9	0.00454553	0.00285139	0	8.28277e-06	0.598108	0.189124	0.627296	17.5472	6485.01	20508.9	21509.8	-72.4528	0.0000000E+000	0.0000000E+000	0.0000000E+000	72.4528	0.0000000E+000	0.0000000E+000	0.0000000E+000	-72.4528	0.0000000E+000	0.0000000E+000	0.0000000E+000	-17.5472	0.0000000E+000	0.0000000E+000	0.0000000E+000	17.5472	3.16251	72.4528	4.60017e-06	6.538e-06	11937.6
2155.69	1.74808	0.63375	1.85942	-19.9276	6.49467	0.279376	0.0227144	116.497	13.5331	1	9	0.00493746	0.00265538	0	1.41743e-05	0.505601	0.183301	0.537803	19.9276	13533.1	37328.6	39706.1	-70.0724	0.0000000E+000	0.0000000E+000	0.0000000E+000	70.0724	0.0000000E+000	0.0000000E+000	0.0000000E+000	-70.0724	0.0000000E+000	0.0000000E+000	0.0000000E+000	-19.9276	0.0000000E+000	0.0000000E+000	0.0000000E+000	19.9276	2.75832	70.0724	2.46203e-06	6.34584e-06	12299.5
1000.32	2.03096	0.872829	2.21057	-23.2562	7.43067	0.279373	0.0259138	182.285	28.4186	1	9	0.00488952	0.00221188	0	1.93997e-05	0.415616	0.178616	0.452372	23.2562	28418.6	66126.2	71974.2	-66.7438	0.0000000E+000	0.0000000E+000	0.0000000E+000	66.7438	0.0000000E+000	0.0000000E+000	0.0000000E+000	-66.7438	0.0000000E+000	0.0000000E+000	0.0000000E+000	-23.2562	0.0000000E+000	0.0000000E+000	0.0000000E+000	23.2562	2.32687	66.7438	1.32546e-06	7.23961e-06	10780.9
463.961	2.45163	1.23572	2.74545	-26.7499	8.36522	0.279376	0.0203334	277.6	56.2382	1	9	0.00487484	0.00177561	0	2.31203e-05	0.325258	0.163943	0.364239	26.7499	56238.2	111575	124947	-63.2501	0.0000000E+000	0.0000000E+000	0.0000000E+000	63.2501	0.0000000E+000	0.0000000E+000	0.0000000E+000	-63.2501	0.0000000E+000	0.0000000E+000	0.0000000E+000	-26.7499	0.0000000E+000	0.0000000E+000	0.0000000E+000	26.7499	1.98398	63.2501	1.35644e-06	5.68067e-06	13739.8
215.345	3.08776	1.76622	3.55722	-29.7698	9.55244	0.279384	-0.0230654	418.448	103.16	1	10	0.00488967	0.00137458	0	1.74315e-05	0.244019	0.13958	0.281119	29.7698	103160	180347	207767	-60.2302	0.0000000E+000	0.0000000E+000	0.0000000E+000	60.2302	0.0000000E+000	0.0000000E+000	0.0000000E+000	-60.2302	0.0000000E+000	0.0000000E+000	0.0000000E+000	-29.7698	0.0000000E+000	0.0000000E+000	0.0000000E+000	29.7698	1.74823	60.2302	-3.23146e-06	-6.4441e-06	12112.7
100.032	4.13048	2.41941	4.7869	-30.3595	10.4837	0.279389	-0.0226859	657.615	167.99	1	10	0.00487334	0.00101806	0	1.32583e-05	0.180257	0.105585	0.208904	30.3595	167990	286796	332374	-59.6405	0.0000000E+000	0.0000000E+000	0.0000000E+000	59.6405	0.0000000E+000	0.0000000E+000	0.0000000E+000	-59.6405	0.0000000E+000	0.0000000E+000	0.0000000E+000	-30.3595	0.0000000E+000	0.0000000E+000	0.0000000E+000	30.3595	1.70723	59.6405	-1.8979e-06	-6.3382e-06	12315.5
46.4415	5.68469	2.88462	6.3747	-26.9049	11.4175	0.279379	-0.0262422	1188.02	243.267	1	10	0.0048633	0.000762907	0	8.69801e-06	0.13989	0.0709856	0.15687	26.9049	243267	479404	537594	-63.0951	0.0000000E+000	0.0000000E+000	0.0000000E+000	63.0951	0.0000000E+000	0.0000000E+000	0.0000000E+000	-63.0951	0.0000000E+000	0.0000000E+000	0.0000000E+000	-26.9049	0.0000000E+000	0.0000000E+000	0.0000000E+000	26.9049	1.97069	63.0951	-2.51986e-06	-7.33154e-06	10646.2
[...]
1.00006	11.2518	1.26336	11.3225	-6.40637	19.7172	0.279412	-0.0118276	125970	1568.32	1	11	0.00486632	0.000429792	0	-3.40183e-05	0.0877683	0.00985467	0.0883198	6.40637	1.56832e+06	1.39679e+07	1.40556e+07	-83.5936	0.0000000E+000	0.0000000E+000	0.0000000E+000	83.5936	0.0000000E+000	0.0000000E+000	0.0000000E+000	-83.5936	0.0000000E+000	0.0000000E+000	0.0000000E+000	-6.40637	0.0000000E+000	0.0000000E+000	0.0000000E+000	6.40637	8.90627	83.5936	-5.85937e-07	-3.30478e-06	23623.7
0.464091	11.6598	1.21561	11.723	-5.95193	27.4019	0.279405	-0.00969772	282114	3033.42	1	11	0.00486546	0.000415035	0	-1.28684e-05	0.0848426	0.00884536	0.0853024	5.95193	3.03342e+06	2.90959e+07	2.92536e+07	-84.0481	0.0000000E+000	0.0000000E+000	0.0000000E+000	84.0481	0.0000000E+000	0.0000000E+000	0.0000000E+000	-84.0481	0.0000000E+000	0.0000000E+000	0.0000000E+000	-5.95193	0.0000000E+000	0.0000000E+000	0.0000000E+000	5.95193	9.59176	84.0481	1.28715e-05	-2.70959e-06	28811.4
0.215268	12.1032	1.51173	12.1972	-7.11954	43.8819	0.279409	-0.003456	489067	7512.61	1	11	0.00486301	0.000398698	0	-3.71389e-05	0.0813536	0.0101613	0.0819857	7.11954	7.51261e+06	6.01475e+07	6.06149e+07	-82.8805	0.0000000E+000	0.0000000E+000	0.0000000E+000	82.8805	0.0000000E+000	0.0000000E+000	0.0000000E+000	-82.8805	0.0000000E+000	0.0000000E+000	0.0000000E+000	-7.11954	0.0000000E+000	0.0000000E+000	0.0000000E+000	7.11954	8.00621	82.8805	-2.66554e-05	-9.65635e-07	80847.4
0.0999041	12.6727	2.1514	12.854	-9.63506	79.2886	0.279411	-0.00232847	740484	20743.5	1	11	0.00486549	0.000378519	0	-0.000229866	0.0766993	0.013021	0.0777968	9.63506	2.07435e+07	1.22188e+08	1.23936e+08	-80.3649	0.0000000E+000	0.0000000E+000	0.0000000E+000	80.3649	0.0000000E+000	0.0000000E+000	0.0000000E+000	-80.3649	0.0000000E+000	0.0000000E+000	0.0000000E+000	-9.63506	0.0000000E+000	0.0000000E+000	0.0000000E+000	9.63506	5.89043	80.3649	-0.000120996	-6.50599e-07	119998
0.0464052	13.6218	3.36736	14.0318	-13.8854	155.525	0.279413	-0.00417371	1.01851e+06	58656.5	1	11	0.00486508	0.000346718	0	-0.000457033	0.0691841	0.0171026	0.0712667	13.8854	5.86565e+07	2.37279e+08	2.44422e+08	-76.1146	0.0000000E+000	0.0000000E+000	0.0000000E+000	76.1146	0.0000000E+000	0.0000000E+000	0.0000000E+000	-76.1146	0.0000000E+000	0.0000000E+000	0.0000000E+000	-13.8854	0.0000000E+000	0.0000000E+000	0.0000000E+000	13.8854	4.04524	76.1146	-9.10158e-05	-1.16619e-06	66945.8
0.0215268	14.7362	5.39156	15.6915	-20.0962	319.755	0.279398	-0.00233979	1.37128e+06	161892	1	11	0.00486637	0.000310128	0	-5.97766e-05	0.0598488	0.0218971	0.0637288	20.0962	1.61892e+08	4.42483e+08	4.71169e+08	-69.9038	0.0000000E+000	0.0000000E+000	0.0000000E+000	69.9038	0.0000000E+000	0.0000000E+000	0.0000000E+000	-69.9038	0.0000000E+000	0.0000000E+000	0.0000000E+000	-20.0962	0.0000000E+000	0.0000000E+000	0.0000000E+000	20.0962	2.73319	69.9038	0.000320229	-6.53731e-07	119412
0.0100092	16.712	9.06675	19.0131	-28.4811	741.215	0.279413	-1.39563e-05	1.75376e+06	398812	1	12	0.0048612	0.000255677	0	0.000773672	0.04623	0.0250811	0.0525953	28.4811	3.98812e+08	7.35099e+08	8.36314e+08	-61.5189	0.0000000E+000	0.0000000E+000	0.0000000E+000	61.5189	0.0000000E+000	0.0000000E+000	0.0000000E+000	-61.5189	0.0000000E+000	0.0000000E+000	0.0000000E+000	-28.4811	0.0000000E+000	0.0000000E+000	0.0000000E+000	28.4811	1.84322	61.5189	0.000351877	-3.89956e-09	2.00207e+07

File: 17694_R287_UA658_SOC00_C01.mpt
EC-Lab ASCII FILE
Nb header lines : 63

Potentio Electrochemical Impedance Spectroscopy

Run on channel : 1 (SN 66354)
User :
CE vs. WE compliance from -10 V to 10 V
Electrode connection : standard
Potential control : Ewe
Ewe ctrl range : min = -10.00 V, max = 10.00 V
Safety Limits :
	Do not start on E overload
Acquisition started on : 09/22/2025 09:03:24.167
Loaded Setting File :  C:\Users\Celltest\OneDrive - store-dot.com\Documents\EC-Lab\Data\txt_done\14380_R229_UA592_SOC00_C01.mpr
Saved on :
	File : 17694_R287_UA658_SOC00_C01.mpr
	Directory : C:\Users\Celltest\OneDrive - store-dot.com\Documents\EC-Lab\Data\Charmaine\
	Host : 169.254.61.224
Device : VMP-3e (SN .003165)
Address : USB
EC-LAB for windows v11.62 (software)
Internet server v27.00 (firmware)
Command interpretor v12.03 (firmware)
Electrode material :
Initial state :
Electrolyte :
Comments :
Electrode surface area : 0.001 cm²
Characteristic mass : 0.001 g
Equivalent Weight : 0.000 g/eq.
Density : 0.000 g/cm3
Volume (V) : 0.001 cm³
Cycle Definition : Charge/Discharge alternance
Mode                Single sine
E (V)               0.0000
vs.                 Eoc
tE (h:m:s)          0:00:0.0000
record              0
dI                  0.000
unit dI             mA
dt (s)              0.000
fi                  100.000
unit fi             kHz
ff                  10.000
unit ff             mHz
Nd                  6
Points              per decade
spacing             Logarithmic
Va (mV)             5.0
pw                  0.10
Na                  2
corr                0
E range min (V)     -10.000
E range max (V)     10.000
I Range             Auto
Bandwidth           5
nc cycles           0
goto Ns'            0
nr cycles           0
inc. cycle          0

freq/Hz	Re(Z)/Ohm	-Im(Z)/Ohm	|Z|/Ohm	Phase(Z)/deg	time/s	<Ewe>/V	<I>/mA	Cs/µF	Cp/µF	cycle number	I Range	|Ewe|/V	|I|/A	Ns	(Q-Qo)/mA.h	Re(Y)/Ohm-1	Im(Y)/Ohm-1	|Y|/Ohm-1	Phase(Y)/deg	Re(C)/nF	Im(C)/nF	|C|/nF	Phase(C)/deg	Re(M)	Im(M)	|M|	Phase(M)/deg	Re(Permittivity)	Im(Permittivity)	|Permittivity|	Phase(Permittivity)/deg	Re(Resistivity)/Ohm.cm	Im(Resistivity)/Ohm.cm	|Resistivity|/Ohm.cm	Phase(Resistivity)/deg	Re(Conductivity)/mS/cm	Im(Conductivity)/mS/cm	|Conductivity|/mS/cm	Phase(Conductivity)/deg	Tan(Delta)	Loss Angle(Delta)/deg	dq/mA.h	Pwe/W	Rwe/Ohm
100004	0.974703	0.0170145	0.974852	-1.00006	1.86549	0.273634	0.0742434	93.5372	0.0284935	1	9	0.00491496	0.00504175	0	8.03735e-06	1.02564	0.0179037	1.0258	1.00006	28.4936	1632.3	1632.55	-88.9999	0.0000000E+000	0.0000000E+000	0.0000000E+000	88.9999	0.0000000E+000	0.0000000E+000	0.0000000E+000	-88.9999	0.0000000E+000	0.0000000E+000	0.0000000E+000	-1.00006	0.0000000E+000	0.0000000E+000	0.0000000E+000	1.00006	57.2866	88.9999	8.03735e-06	2.03155e-05	3685.64
46420.4	0.876142	0.416152	0.969952	-25.4069	3.0225	0.2736	0.0801668	8.23873	1.51657	1	9	0.00489196	0.00504351	0	2.10708e-05	0.931267	0.442335	1.03098	25.4069	1516.57	3192.9	3534.77	-64.5931	0.0000000E+000	0.0000000E+000	0.0000000E+000	64.5931	0.0000000E+000	0.0000000E+000	0.0000000E+000	-64.5931	0.0000000E+000	0.0000000E+000	0.0000000E+000	-25.4069	0.0000000E+000	0.0000000E+000	0.0000000E+000	25.4069	2.10534	64.5931	1.16326e-05	2.19336e-05	3412.88
21544.7	1.14079	0.289415	1.17693	-14.2355	4.03949	0.273617	0.0809864	25.5246	1.54348	1	9	0.00498476	0.0042354	0	6.02134e-05	0.82358	0.20894	0.84967	14.2355	1543.48	6083.95	6276.69	-75.7645	0.0000000E+000	0.0000000E+000	0.0000000E+000	75.7645	0.0000000E+000	0.0000000E+000	0.0000000E+000	-75.7645	0.0000000E+000	0.0000000E+000	0.0000000E+000	-14.2355	0.0000000E+000	0.0000000E+000	0.0000000E+000	14.2355	3.9417	75.7645	1.41186e-05	2.21593e-05	3378.56
10002.2	1.27618	0.369897	1.32871	-16.164	4.77248	0.273625	0.07456	43.0173	3.33385	1	9	0.00491122	0.00369624	0	8.11088e-05	0.72286	0.209518	0.752611	16.164	3333.85	11502.1	11975.5	-73.836	0.0000000E+000	0.0000000E+000	0.0000000E+000	73.836	0.0000000E+000	0.0000000E+000	0.0000000E+000	-73.836	0.0000000E+000	0.0000000E+000	0.0000000E+000	-16.164	0.0000000E+000	0.0000000E+000	0.0000000E+000	16.164	3.4501	73.836	1.38261e-05	2.04015e-05	3669.86
4641.49	1.46046	0.490237	1.54055	-18.5555	5.84471	0.273556	0.052878	69.945	7.08303	1	9	0.00503634	0.00326919	0	9.22801e-05	0.615376	0.206565	0.64912	18.5555	7083.03	21101	22258.1	-71.4445	0.0000000E+000	0.0000000E+000	0.0000000E+000	71.4445	0.0000000E+000	0.0000000E+000	0.0000000E+000	-71.4445	0.0000000E+000	0.0000000E+000	0.0000000E+000	-18.5555	0.0000000E+000	0.0000000E+000	0.0000000E+000	18.5555	2.9791	71.4445	1.28938e-05	1.44651e-05	5173.34
2155.69	1.69674	0.647141	1.81596	-20.877	6.77769	0.273546	0.0470104	114.087	14.4884	1	9	0.00488398	0.00268947	0	0.000105823	0.514519	0.196239	0.550672	20.877	14488.4	37987	40656.2	-69.123	0.0000000E+000	0.0000000E+000	0.0000000E+000	69.123	0.0000000E+000	0.0000000E+000	0.0000000E+000	-69.123	0.0000000E+000	0.0000000E+000	0.0000000E+000	-20.877	0.0000000E+000	0.0000000E+000	0.0000000E+000	20.877	2.6219	69.123	8.42888e-06	1.28595e-05	5818.84
1000.32	1.99715	0.880176	2.1825	-23.7839	7.71367	0.273553	0.0481653	180.764	29.3997	1	9	0.00484281	0.00221893	0	0.000116715	0.419278	0.184783	0.45819	23.7839	29399.7	66708.7	72899.9	-66.2161	0.0000000E+000	0.0000000E+000	0.0000000E+000	66.2161	0.0000000E+000	0.0000000E+000	0.0000000E+000	-66.2161	0.0000000E+000	0.0000000E+000	0.0000000E+000	-23.7839	0.0000000E+000	0.0000000E+000	0.0000000E+000	23.7839	2.26903	66.2161	4.41083e-06	1.31757e-05	5679.46
463.961	2.38917	1.24921	2.69605	-27.6033	8.6472	0.273551	0.053474	274.603	58.9547	1	9	0.00482492	0.00178963	0	0.000128863	0.328695	0.171862	0.370914	27.6033	58954.8	112754	127236	-62.3967	0.0000000E+000	0.0000000E+000	0.0000000E+000	62.3967	0.0000000E+000	0.0000000E+000	0.0000000E+000	-62.3967	0.0000000E+000	0.0000000E+000	0.0000000E+000	-27.6033	0.0000000E+000	0.0000000E+000	0.0000000E+000	27.6033	1.91255	62.3967	7.21877e-06	1.46279e-05	5115.59
215.345	3.02608	1.82264	3.53259	-31.0609	9.83344	0.273599	-0.0221105	405.495	107.944	1	10	0.00483987	0.00137006	0	0.000126434	0.24249	0.146054	0.283079	31.0609	107944	179218	209215	-58.9391	0.0000000E+000	0.0000000E+000	0.0000000E+000	58.9391	0.0000000E+000	0.0000000E+000	0.0000000E+000	-58.9391	0.0000000E+000	0.0000000E+000	0.0000000E+000	-31.0609	0.0000000E+000	0.0000000E+000	0.0000000E+000	31.0609	1.66028	58.9391	-3.81986e-06	-6.04941e-06	12374.2
100.032	4.05245	2.58191	4.80506	-32.5022	10.7647	0.27358	-0.0217732	616.226	177.92	1	10	0.00482304	0.00100374	0	0.000122201	0.175517	0.111826	0.208114	32.5022	177920	279255	331117	-57.4978	0.0000000E+000	0.0000000E+000	0.0000000E+000	57.4978	0.0000000E+000	0.0000000E+000	0.0000000E+000	-57.4978	0.0000000E+000	0.0000000E+000	0.0000000E+000	-32.5022	0.0000000E+000	0.0000000E+000	0.0000000E+000	32.5022	1.56956	57.4978	-1.95035e-06	-5.95672e-06	12565
46.4415	5.70375	3.2594	6.56936	-29.7457	11.6986	0.273586	-0.0244343	1051.42	258.824	1	10	0.00481469	0.000732902	0	0.000117496	0.132164	0.0755251	0.152222	29.7457	258824	452927	521664	-60.2543	0.0000000E+000	0.0000000E+000	0.0000000E+000	60.2543	0.0000000E+000	0.0000000E+000	0.0000000E+000	-60.2543	0.0000000E+000	0.0000000E+000	0.0000000E+000	-29.7457	0.0000000E+000	0.0000000E+000	0.0000000E+000	29.7457	1.74994	60.2543	-2.90263e-06	-6.68487e-06	11196.8
[...]
1.00006	12.5452	1.55383	12.6411	-7.06061	19.9331	0.273638	-0.0061613	102421	1547.49	1	11	0.00481405	0.000380826	0	0.000103441	0.0785074	0.0097238	0.0791073	7.06061	1.54749e+06	1.2494e+07	1.25895e+07	-82.9394	0.0000000E+000	0.0000000E+000	0.0000000E+000	82.9394	0.0000000E+000	0.0000000E+000	0.0000000E+000	-82.9394	0.0000000E+000	0.0000000E+000	0.0000000E+000	-7.06061	0.0000000E+000	0.0000000E+000	0.0000000E+000	7.06061	8.07373	82.9394	-4.09603e-06	-1.68597e-06	44412.4
0.464091	13.0432	1.40951	13.1192	-6.16772	27.6178	0.273642	-0.00441232	243304	2808.5	1	11	0.00481538	0.00036705	0	5.73279e-05	0.0757832	0.00818949	0.0762244	6.16772	2.8085e+06	2.5989e+07	2.61403e+07	-83.8323	0.0000000E+000	0.0000000E+000	0.0000000E+000	83.8323	0.0000000E+000	0.0000000E+000	0.0000000E+000	-83.8323	0.0000000E+000	0.0000000E+000	0.0000000E+000	-6.16772	0.0000000E+000	0.0000000E+000	0.0000000E+000	6.16772	9.25372	83.8323	-3.00877e-05	-1.2074e-06	62017.6
0.215268	13.5855	1.62845	13.6828	-6.83524	44.0978	0.273639	-0.00598338	454011	6430.83	1	11	0.00481666	0.000352024	0	-8.59083e-07	0.0725651	0.00869814	0.0730846	6.83524	6.43084e+06	5.36499e+07	5.4034e+07	-83.1648	0.0000000E+000	0.0000000E+000	0.0000000E+000	83.1648	0.0000000E+000	0.0000000E+000	0.0000000E+000	-83.1648	0.0000000E+000	0.0000000E+000	0.0000000E+000	-6.83524	0.0000000E+000	0.0000000E+000	0.0000000E+000	6.83524	8.34261	83.1648	-2.30087e-05	-1.63728e-06	45733.1
0.0999041	14.1747	2.28723	14.3581	-9.16623	79.502	0.27363	-0.00489884	696510	17674.8	1	11	0.00481619	0.000335434	0	6.84038e-05	0.068758	0.0110948	0.0696473	9.16623	1.76748e+07	1.09537e+08	1.10954e+08	-80.8338	0.0000000E+000	0.0000000E+000	0.0000000E+000	80.8338	0.0000000E+000	0.0000000E+000	0.0000000E+000	-80.8338	0.0000000E+000	0.0000000E+000	0.0000000E+000	-9.16623	0.0000000E+000	0.0000000E+000	0.0000000E+000	9.16623	6.19733	80.8338	5.89061e-05	-1.34047e-06	55856
0.0464052	15.2014	3.43685	15.5851	-12.7397	155.737	0.273624	0.000132646	997913	48528.2	1	11	0.00481626	0.00030903	0	0.000273615	0.0625842	0.0141495	0.0641638	12.7397	4.85282e+07	2.14644e+08	2.20061e+08	-77.2603	0.0000000E+000	0.0000000E+000	0.0000000E+000	77.2603	0.0000000E+000	0.0000000E+000	0.0000000E+000	-77.2603	0.0000000E+000	0.0000000E+000	0.0000000E+000	-12.7397	0.0000000E+000	0.0000000E+000	0.0000000E+000	12.7397	4.42307	77.2603	0.000108993	3.62951e-08	2.06281e+06
0.0215268	16.4842	5.56663	17.3987	-18.6596	351.704	0.273623	0.000831063	1.32815e+06	135956	1	12	0.00481399	0.000276687	0	3.30916e-05	0.0544544	0.018389	0.0574755	18.6596	1.35956e+08	4.026e+08	4.24936e+08	-71.3404	0.0000000E+000	0.0000000E+000	0.0000000E+000	71.3404	0.0000000E+000	0.0000000E+000	0.0000000E+000	-71.3404	0.0000000E+000	0.0000000E+000	0.0000000E+000	-18.6596	0.0000000E+000	0.0000000E+000	0.0000000E+000	18.6596	2.96125	71.3404	-0.000242195	2.27398e-07	329245
0.0100092	18.5469	8.99167	20.6116	-25.8644	704.92	0.27362	-0.00123375	1.76841e+06	336542	1	12	0.00481552	0.000233631	0	-0.00110634	0.0436564	0.0211649	0.0485164	25.8644	3.36542e+08	6.94177e+08	7.71454e+08	-64.1356	0.0000000E+000	0.0000000E+000	0.0000000E+000	64.1356	0.0000000E+000	0.0000000E+000	0.0000000E+000	-64.1356	0.0000000E+000	0.0000000E+000	0.0000000E+000	-25.8644	0.0000000E+000	0.0000000E+000	0.0000000E+000	25.8644	2.06268	64.1356	-0.000628141	-3.3758e-07	221778