Folder: EIS/txt (part 110)

File: 18699_R307_UC91_26p5_SOC50_C01.mpt
EC-Lab ASCII FILE
Nb header lines : 65

Potentio Electrochemical Impedance Spectroscopy

Run on channel : 1 (SN 66354)
User :
CE vs. WE compliance from -10 V to 10 V
Electrode connection : standard
Potential control : Ewe
Ewe ctrl range : min = -10.00 V, max = 10.00 V
Safety Limits :
	Do not start on E overload
Acquisition started on : 10/30/2025 15:42:55.319
Technique started on : 10/30/2025 15:42:58.014
Loaded Setting File :  C:\Users\Celltest\OneDrive - store-dot.com\Documents\EC-Lab\Data\@Biologic Test Protocols\cathode half cell EIS SOC50.mps
Saved on :
	File : 18699_R307_UC91_26p5_SOC50_C01.mpr
	Directory : C:\Users\Celltest\OneDrive - store-dot.com\Documents\EC-Lab\Data\Anna\
	Host : 169.254.61.224
Device : VMP-3e (SN .003165)
Address : USB
EC-LAB for windows v11.62 (software)
Internet server v27.00 (firmware)
Command interpretor v12.03 (firmware)
Electrode material :
Initial state :
Electrolyte :
Comments :
Electrode surface area : 0.001 cm²
Characteristic mass : 0.001 g
Equivalent Weight : 0.000 g/eq.
Density : 0.000 g/cm3
Volume (V) : 0.001 cm³
Record Ece
Cycle Definition : Charge/Discharge alternance
Mode                Multi sine
E (V)               0.0000
vs.                 Eoc
tE (h:m:s)          0:00:0.0000
record              0
dI                  0.000
unit dI             mA
dt (s)              0.000
fi                  1.000
unit fi             MHz
ff                  0.100
unit ff             mHz
Nd                  10
Points              per decade
spacing             Logarithmic
Va (mV)             5.0
pw                  0.10
Na                  2
corr                0
E range min (V)     -10.000
E range max (V)     10.000
I Range             Auto
Bandwidth           5
nc cycles           0
goto Ns'            0
nr cycles           0
inc. cycle          0

freq/Hz	Re(Z)/Ohm	-Im(Z)/Ohm	|Z|/Ohm	Phase(Z)/deg	time/s	<Ewe>/V	<I>/mA	Cs/µF	Cp/µF	cycle number	I Range	|Ewe|/V	|I|/A	Ns	(Q-Qo)/mA.h	<Ece>/V	|Ece|/V	Phase(Zce)/deg	|Zce|/Ohm	Re(Zce)/Ohm	-Im(Zce)/Ohm	Phase(Zwe-ce)/deg	|Zwe-ce|/Ohm	Re(Zwe-ce)/Ohm	-Im(Zwe-ce)/Ohm	Re(Y)/Ohm-1	Im(Y)/Ohm-1	|Y|/Ohm-1	Phase(Y)/deg	Re(C)/nF	Im(C)/nF	|C|/nF	Phase(C)/deg	Re(M)	Im(M)	|M|	Phase(M)/deg	Re(Permittivity)	Im(Permittivity)	|Permittivity|	Phase(Permittivity)/deg	Re(Resistivity)/Ohm.cm	Im(Resistivity)/Ohm.cm	|Resistivity|/Ohm.cm	Phase(Resistivity)/deg	Re(Conductivity)/mS/cm	Im(Conductivity)/mS/cm	|Conductivity|/mS/cm	Phase(Conductivity)/deg	Tan(Delta)	Loss Angle(Delta)/deg	dq/mA.h	Pwe/W	Pce/W	Pwe-ce/W	<Ewe-Ece>/V	Rwe/Ohm	Rce/Ohm	Rwe-ce/Ohm		Ewe-Ece/V
1.00002e+06	2.69995	2.38261	3.60091	-41.4273	2.69451	3.97149	-0.00158069	0.0667973	0.0292442	1	10	0.000237662	6.60006e-05	0	4.74604e-06	2.1417e-05	0.000191202	-71.0865	2.89697	0.939022	2.74056	-54.6139	6.28403	3.63897	5.12317	0.208224	0.18375	0.277708	41.4273	29.2442	33.1393	44.1977	-48.5727	0.0000000E+000	0.0000000E+000	0.0000000E+000	48.5727	0.0000000E+000	0.0000000E+000	0.0000000E+000	-48.5727	0.0000000E+000	0.0000000E+000	0.0000000E+000	-41.4273	0.0000000E+000	0.0000000E+000	0.0000000E+000	41.4273	1.13319	48.5727	4.74604e-06	-6.27767e-06	-3.38535e-11	-6.27764e-06	3.97147	2.51251e+06	13.5492	2.5125e+06
251206	1.39561	0.460529	1.46963	-18.2621	5.39554	3.97107	0.000703263	1.37573	0.135093	1	9	0.00381324	0.00259469	0	3.1428e-06	0.000402963	5.44594e-05	115.059	0.0209887	-0.0088897	-0.0190132	-17.6609	1.45531	1.38672	0.441516	0.646172	0.213227	0.680444	18.2621	135.093	409.391	431.104	-71.7379	0.0000000E+000	0.0000000E+000	0.0000000E+000	71.7379	0.0000000E+000	0.0000000E+000	0.0000000E+000	-71.7379	0.0000000E+000	0.0000000E+000	0.0000000E+000	-18.2621	0.0000000E+000	0.0000000E+000	0.0000000E+000	18.2621	3.03045	71.7379	-2.375e-06	2.79271e-06	2.83389e-10	2.79243e-06	3.97067	5.64664e+06	572.99	5.64607e+06
63093.8	2.05943	1.24102	2.40445	-31.0732	7.81957	3.97106	0.0194794	2.03262	0.541476	1	9	0.00546402	0.00227246	0	-2.07165e-05	2.1417e-05	2.8836e-05	89.9964	0.0126893	8.01169e-07	-0.0126893	-30.8135	2.39793	2.05943	1.22833	0.356218	0.214658	0.415895	31.0732	541.476	898.564	1049.1	-58.9268	0.0000000E+000	0.0000000E+000	0.0000000E+000	58.9268	0.0000000E+000	0.0000000E+000	0.0000000E+000	-58.9268	0.0000000E+000	0.0000000E+000	0.0000000E+000	-31.0732	0.0000000E+000	0.0000000E+000	0.0000000E+000	31.0732	1.65947	58.9268	4.18709e-06	7.73542e-05	4.1719e-10	7.73537e-05	3.97104	203859	1.09946	203858
15847.7	3.57942	2.15877	4.18002	-31.0943	10.2436	3.97104	0.01825	4.6521	1.2408	1	9	0.00451691	0.0010806	0	2.97795e-06	-0.000112124	8.87076e-06	-111.634	0.00820914	-0.00302653	0.00763086	-31.2053	4.18138	3.5764	2.1664	0.20486	0.123552	0.239233	31.0943	1240.8	2057.36	2402.57	-58.9057	0.0000000E+000	0.0000000E+000	0.0000000E+000	58.9057	0.0000000E+000	0.0000000E+000	0.0000000E+000	-58.9057	0.0000000E+000	0.0000000E+000	0.0000000E+000	-31.0943	0.0000000E+000	0.0000000E+000	0.0000000E+000	31.0943	1.65809	58.9057	9.13934e-07	7.24715e-05	-2.04627e-09	7.24736e-05	3.97115	217591	6.14379	217597
3983.6	5.69683	3.0757	6.47408	-28.3645	12.1251	3.97098	-0.0220714	12.9897	2.93178	1	10	0.00467006	0.000721347	0	-6.69589e-07	0.000154958	1.04345e-05	-1.15349	0.0144653	0.0144624	0.000291199	-28.3061	6.48695	5.71129	3.07599	0.135918	0.0733816	0.154462	28.3645	2931.78	5430.26	6171.15	-61.6355	0.0000000E+000	0.0000000E+000	0.0000000E+000	61.6355	0.0000000E+000	0.0000000E+000	0.0000000E+000	-61.6355	0.0000000E+000	0.0000000E+000	0.0000000E+000	-28.3645	0.0000000E+000	0.0000000E+000	0.0000000E+000	28.3645	1.8522	61.6355	-9.95356e-07	-8.7645e-05	-3.42014e-09	-8.76416e-05	3.97083	179915	7.02077	179908
1000.32	8.85914	4.77132	10.0623	-28.3058	14.9678	3.97099	0.00472158	33.3459	7.49765	1	10	0.00498156	0.000495072	0	3.72212e-06	2.1417e-05	1.40521e-05	-82.0553	0.0283839	0.00392316	0.0281115	-28.436	10.0791	8.86306	4.79943	0.0874978	0.0471242	0.0993809	28.3058	7497.66	13921.3	15811.9	-61.6942	0.0000000E+000	0.0000000E+000	0.0000000E+000	61.6942	0.0000000E+000	0.0000000E+000	0.0000000E+000	-61.6942	0.0000000E+000	0.0000000E+000	0.0000000E+000	-28.3058	0.0000000E+000	0.0000000E+000	0.0000000E+000	28.3058	1.85675	61.6942	8.11605e-07	1.87494e-05	1.01122e-10	1.87493e-05	3.97097	841030	4.53597	841026
251.044	14.6763	6.26726	15.9585	-23.124	17.6681	3.971	0.00475512	101.156	15.6014	1	10	0.00493871	0.000309473	0	6.87017e-06	0.000307577	4.36184e-06	-75.9059	0.0140944	0.00343222	0.0136702	-23.1643	15.967	14.6797	6.28093	0.0576281	0.0246091	0.0626627	23.124	15601.4	36534.6	39726.3	-66.876	0.0000000E+000	0.0000000E+000	0.0000000E+000	66.876	0.0000000E+000	0.0000000E+000	0.0000000E+000	-66.876	0.0000000E+000	0.0000000E+000	0.0000000E+000	-23.124	0.0000000E+000	0.0000000E+000	0.0000000E+000	23.124	2.34174	66.876	6.68862e-07	1.88826e-05	1.46256e-09	1.88811e-05	3.97069	835100	64.6833	835035
[...]
0.0602816	27.0914	3.62478	27.3328	-7.62079	241.027	3.97103	-0.000507831	728373	12809.9	1	11	0.00502778	0.000183946	0	-0.000772406	0.000135881	6.30768e-07	-33.2634	0.00342909	0.00286726	0.00188082	-7.6239	27.3359	27.0943	3.62666	0.0362629	0.0048519	0.036586	7.62079	1.28099e+07	9.57409e+07	9.6594e+07	-82.3792	0.0000000E+000	0.0000000E+000	0.0000000E+000	82.3792	0.0000000E+000	0.0000000E+000	0.0000000E+000	-82.3792	0.0000000E+000	0.0000000E+000	0.0000000E+000	-7.62079	0.0000000E+000	0.0000000E+000	0.0000000E+000	7.62079	7.47396	82.3792	0.000000000000000E+000	-2.01661e-06	-6.90045e-11	-2.01654e-06	3.9709	7.8196e+06	267.571	7.81933e+06
0.00796479	36.6322	7.9635	37.4878	-12.2647	20329.9	3.97105	0.000393495	2.50924e+06	113232	1	11	0.00502072	0.000133929	0	-0.0030335	-3.5815e-05	3.97047e-07	-6.45454	0.0029646	0.00294581	0.000333265	-12.2643	37.4907	36.6351	7.96383	0.0260665	0.00566663	0.0266754	12.2647	1.13232e+08	5.2087e+08	5.33036e+08	-77.7353	0.0000000E+000	0.0000000E+000	0.0000000E+000	77.7353	0.0000000E+000	0.0000000E+000	0.0000000E+000	-77.7353	0.0000000E+000	0.0000000E+000	0.0000000E+000	-12.2647	0.0000000E+000	0.0000000E+000	0.0000000E+000	12.2647	4.60001	77.7353	-0.00226109	1.56259e-06	-1.4093e-11	1.5626e-06	3.97108	1.00917e+07	91.0176	1.00918e+07
0.0019912	44.6135	11.4503	46.0594	-14.3945	20329.9	3.97105	0.000393495	6.98057e+06	431404	1	11	0.00503337	0.00010928	0	-0.0030335	-3.5815e-05	4.6366e-07	-24.6148	0.00424287	0.00385731	0.00176722	-14.3955	46.0636	44.6173	11.452	0.0210295	0.00539732	0.0217111	14.3945	4.31404e+08	1.68087e+09	1.73535e+09	-75.6055	0.0000000E+000	0.0000000E+000	0.0000000E+000	75.6055	0.0000000E+000	0.0000000E+000	0.0000000E+000	-75.6055	0.0000000E+000	0.0000000E+000	0.0000000E+000	-14.3945	0.0000000E+000	0.0000000E+000	0.0000000E+000	14.3945	3.89629	75.6055	0.000000000000000E+000	1.56259e-06	-1.4093e-11	1.5626e-06	3.97108	1.00917e+07	91.0176	1.00918e+07
0.000497799	49.9555	17.6486	52.9814	-19.4576	20329.9	3.97105	0.000393495	1.81158e+07	2.01015e+06	1	11	0.00503808	9.50915e-05	0	-0.0030335	-3.5815e-05	1.37415e-06	-24.3179	0.0144508	0.0131686	0.00595082	-19.4589	52.9958	49.9687	17.6545	0.0177966	0.00628728	0.0188746	19.4576	2.01015e+09	5.68988e+09	6.03452e+09	-70.5424	0.0000000E+000	0.0000000E+000	0.0000000E+000	70.5424	0.0000000E+000	0.0000000E+000	0.0000000E+000	-70.5424	0.0000000E+000	0.0000000E+000	0.0000000E+000	-19.4576	0.0000000E+000	0.0000000E+000	0.0000000E+000	19.4576	2.83057	70.5424	0.000000000000000E+000	1.56259e-06	-1.4093e-11	1.5626e-06	3.97108	1.00917e+07	91.0176	1.00918e+07
9.95598e-05	57.8858	80.4022	99.0721	-54.2479	20329.9	3.97105	0.000393495	1.98824e+07	1.30949e+07	1	11	0.0050319	5.07903e-05	0	-0.0030335	-3.5815e-05	2.02935e-06	-42.492	0.0399554	0.029462	0.0269893	-54.2432	99.1112	57.9153	80.4292	0.00589752	0.00819154	0.0100937	54.2479	1.30949e+10	9.4277e+09	1.61356e+10	-35.7521	0.0000000E+000	0.0000000E+000	0.0000000E+000	35.7521	0.0000000E+000	0.0000000E+000	0.0000000E+000	-35.7521	0.0000000E+000	0.0000000E+000	0.0000000E+000	-54.2479	0.0000000E+000	0.0000000E+000	0.0000000E+000	54.2479	0.719953	35.7521	0.000000000000000E+000	1.56259e-06	-1.4093e-11	1.5626e-06	3.97108	1.00917e+07	91.0176	1.00918e+07

File: 18700_R307_UC91_26p5_SOC50_C02.mpt
EC-Lab ASCII FILE
Nb header lines : 65

Potentio Electrochemical Impedance Spectroscopy

Run on channel : 2 (SN 66139)
User :
CE vs. WE compliance from -10 V to 10 V
Electrode connection : standard
Potential control : Ewe
Ewe ctrl range : min = -10.00 V, max = 10.00 V
Safety Limits :
	Do not start on E overload
Acquisition started on : 10/30/2025 15:43:03.841
Technique started on : 10/30/2025 15:43:06.076
Loaded Setting File :  C:\Users\Celltest\OneDrive - store-dot.com\Documents\EC-Lab\Data\@Biologic Test Protocols\cathode half cell EIS SOC50.mps
Saved on :
	File : 18700_R307_UC91_26p5_SOC50_C02.mpr
	Directory : C:\Users\Celltest\OneDrive - store-dot.com\Documents\EC-Lab\Data\Anna\
	Host : 169.254.61.224
Device : VMP-3e (SN .003165)
Address : USB
EC-LAB for windows v11.62 (software)
Internet server v27.00 (firmware)
Command interpretor v12.03 (firmware)
Electrode material :
Initial state :
Electrolyte :
Comments :
Electrode surface area : 0.001 cm²
Characteristic mass : 0.001 g
Equivalent Weight : 0.000 g/eq.
Density : 0.000 g/cm3
Volume (V) : 0.001 cm³
Record Ece
Cycle Definition : Charge/Discharge alternance
Mode                Multi sine
E (V)               0.0000
vs.                 Eoc
tE (h:m:s)          0:00:0.0000
record              0
dI                  0.000
unit dI             mA
dt (s)              0.000
fi                  1.000
unit fi             MHz
ff                  0.100
unit ff             mHz
Nd                  10
Points              per decade
spacing             Logarithmic
Va (mV)             5.0
pw                  0.10
Na                  2
corr                0
E range min (V)     -10.000
E range max (V)     10.000
I Range             Auto
Bandwidth           5
nc cycles           0
goto Ns'            0
nr cycles           0
inc. cycle          0

freq/Hz	Re(Z)/Ohm	-Im(Z)/Ohm	|Z|/Ohm	Phase(Z)/deg	time/s	<Ewe>/V	<I>/mA	Cs/µF	Cp/µF	cycle number	I Range	|Ewe|/V	|I|/A	Ns	(Q-Qo)/mA.h	<Ece>/V	|Ece|/V	Phase(Zce)/deg	|Zce|/Ohm	Re(Zce)/Ohm	-Im(Zce)/Ohm	Phase(Zwe-ce)/deg	|Zwe-ce|/Ohm	Re(Zwe-ce)/Ohm	-Im(Zwe-ce)/Ohm	Re(Y)/Ohm-1	Im(Y)/Ohm-1	|Y|/Ohm-1	Phase(Y)/deg	Re(C)/nF	Im(C)/nF	|C|/nF	Phase(C)/deg	Re(M)	Im(M)	|M|	Phase(M)/deg	Re(Permittivity)	Im(Permittivity)	|Permittivity|	Phase(Permittivity)/deg	Re(Resistivity)/Ohm.cm	Im(Resistivity)/Ohm.cm	|Resistivity|/Ohm.cm	Phase(Resistivity)/deg	Re(Conductivity)/mS/cm	Im(Conductivity)/mS/cm	|Conductivity|/mS/cm	Phase(Conductivity)/deg	Tan(Delta)	Loss Angle(Delta)/deg	dq/mA.h	Pwe/W	Pce/W	Pwe-ce/W	<Ewe-Ece>/V	Rwe/Ohm	Rce/Ohm	Rwe-ce/Ohm		Ewe-Ece/V
1.00002e+06	2.37349	2.87032	3.72454	-50.4123	2.23455	3.97197	-0.030893	0.0554475	0.0329304	1	10	0.000227336	6.10375e-05	0	-1.33162e-05	-0.000152384	0.000180363	-68.1508	2.95495	1.09973	2.74269	-58.2515	6.60069	3.47322	5.613	0.171097	0.206912	0.26849	50.4123	32.9304	27.2305	42.7306	-39.5877	0.0000000E+000	0.0000000E+000	0.0000000E+000	39.5877	0.0000000E+000	0.0000000E+000	0.0000000E+000	-39.5877	0.0000000E+000	0.0000000E+000	0.0000000E+000	-50.4123	0.0000000E+000	0.0000000E+000	0.0000000E+000	50.4123	0.82691	39.5877	-1.33162e-05	-0.000122706	4.70761e-09	-0.000122711	3.97212	128572	4.93265	128577
251206	1.53825	0.524339	1.62516	-18.8225	4.93756	3.97197	-0.013518	1.20831	0.125779	1	9	0.00380507	0.00234134	0	-2.33997e-05	3.42479e-07	3.01948e-05	79.8691	0.0128964	0.00226843	-0.0126953	-18.3725	1.62327	1.54052	0.511644	0.582416	0.198526	0.615322	18.8225	125.779	368.997	389.845	-71.1775	0.0000000E+000	0.0000000E+000	0.0000000E+000	71.1775	0.0000000E+000	0.0000000E+000	0.0000000E+000	-71.1775	0.0000000E+000	0.0000000E+000	0.0000000E+000	-18.8225	0.0000000E+000	0.0000000E+000	0.0000000E+000	18.8225	2.9337	71.1775	-1.07757e-06	-5.3693e-05	-4.62963e-12	-5.3693e-05	3.97197	293829	0.0253351	293829
63093.8	2.28878	1.33408	2.64921	-30.2369	7.23753	3.97183	-0.0125869	1.89083	0.479494	1	9	0.00531805	0.00200741	0	-3.04589e-05	-0.000114203	1.67516e-05	36.4345	0.00834484	0.00671373	-0.00495603	-30.0714	2.65252	2.2955	1.32912	0.326117	0.190086	0.377472	30.2369	479.494	822.633	952.176	-59.7631	0.0000000E+000	0.0000000E+000	0.0000000E+000	59.7631	0.0000000E+000	0.0000000E+000	0.0000000E+000	-59.7631	0.0000000E+000	0.0000000E+000	0.0000000E+000	-30.2369	0.0000000E+000	0.0000000E+000	0.0000000E+000	30.2369	1.71563	59.7631	-1.44705e-06	-4.99929e-05	1.43745e-09	-4.99943e-05	3.97195	315554	9.07316	315563
15847.7	3.84694	2.12966	4.39709	-28.9689	9.53552	3.97185	-0.0122889	4.71567	1.1062	1	9	0.00511416	0.00116308	0	-3.5628e-05	0.000305796	1.02918e-05	-95.9946	0.00884873	-0.00092412	0.00880034	-29.0749	4.40055	3.84602	2.13846	0.198969	0.110149	0.227423	28.9689	1106.2	1998.2	2283.96	-61.0311	0.0000000E+000	0.0000000E+000	0.0000000E+000	61.0311	0.0000000E+000	0.0000000E+000	0.0000000E+000	-61.0311	0.0000000E+000	0.0000000E+000	0.0000000E+000	-28.9689	0.0000000E+000	0.0000000E+000	0.0000000E+000	28.9689	1.80636	61.0311	-1.989e-06	-4.88097e-05	-3.7579e-09	-4.88059e-05	3.97154	323206	24.8839	323181
3983.6	5.85754	3.04314	6.60087	-27.4531	11.7851	3.97181	-0.0266388	13.1287	2.79039	1	10	0.00502878	0.000761837	0	-5.13726e-05	-3.78392e-05	5.80108e-06	-54.8862	0.0076146	0.00437994	0.00622882	-27.4835	6.60763	5.86192	3.04937	0.134435	0.0698426	0.151495	27.4531	2790.39	5371.02	6052.62	-62.547	0.0000000E+000	0.0000000E+000	0.0000000E+000	62.547	0.0000000E+000	0.0000000E+000	0.0000000E+000	-62.547	0.0000000E+000	0.0000000E+000	0.0000000E+000	-27.4531	0.0000000E+000	0.0000000E+000	0.0000000E+000	27.4531	1.92483	62.547	-2.14775e-06	-0.000105804	1.00799e-09	-0.000105805	3.97184	149099	1.42046	149100
1000.32	8.98508	4.85646	10.2136	-28.3913	14.4138	3.97177	-0.0227199	32.7613	7.40707	1	10	0.0047441	0.00046449	0	-6.799e-05	0.000153069	1.19061e-05	56.42	0.0256325	0.0141774	-0.0213548	-28.2482	10.2159	8.99926	4.8351	0.0861326	0.0465549	0.097909	28.3913	7407.07	13704	15577.7	-61.6087	0.0000000E+000	0.0000000E+000	0.0000000E+000	61.6087	0.0000000E+000	0.0000000E+000	0.0000000E+000	-61.6087	0.0000000E+000	0.0000000E+000	0.0000000E+000	-28.3913	0.0000000E+000	0.0000000E+000	0.0000000E+000	28.3913	1.85013	61.6087	-3.05755e-06	-9.02382e-05	-3.47771e-09	-9.02347e-05	3.97162	174815	6.73724	174808
251.044	14.9245	6.55806	16.3018	-23.7215	17.1141	3.97176	-0.0230998	96.6705	15.645	1	10	0.00468144	0.000287173	0	-8.5131e-05	-0.000209657	6.24118e-06	21.109	0.0217332	0.0202748	-0.00782706	-23.6677	16.3172	14.9448	6.55024	0.0561602	0.0246777	0.0613429	23.7215	15645	35604	38889.7	-66.2785	0.0000000E+000	0.0000000E+000	0.0000000E+000	66.2785	0.0000000E+000	0.0000000E+000	0.0000000E+000	-66.2785	0.0000000E+000	0.0000000E+000	0.0000000E+000	-23.7215	0.0000000E+000	0.0000000E+000	0.0000000E+000	23.7215	2.27575	66.2785	-2.60298e-06	-9.17471e-05	4.84304e-09	-9.1752e-05	3.97197	171939	9.07611	171948
[...]
0.0602816	27.8567	3.67913	28.0986	-7.52371	240.48	3.97177	-0.0150207	717612	12303	1	11	0.00499763	0.00017786	0	-0.00186612	7.67059e-05	7.45608e-07	27.4094	0.0041921	0.0037215	-0.00192982	-7.51881	28.1021	27.8604	3.6772	0.0352825	0.00465989	0.0355889	7.52371	1.2303e+07	9.31526e+07	9.39615e+07	-82.4763	0.0000000E+000	0.0000000E+000	0.0000000E+000	82.4763	0.0000000E+000	0.0000000E+000	0.0000000E+000	-82.4763	0.0000000E+000	0.0000000E+000	0.0000000E+000	-7.52371	0.0000000E+000	0.0000000E+000	0.0000000E+000	7.52371	7.57155	82.4763	0.000000000000000E+000	-5.9659e-05	-1.15218e-09	-5.96579e-05	3.9717	264419	5.10666	264414
0.00796479	37.19	8.53289	38.1563	-12.9223	20329.4	3.97181	-0.000542934	2.3418e+06	117114	1	11	0.00499413	0.000130886	0	-0.0138965	7.67059e-05	3.3355e-07	-115.986	0.0025484	-0.0011166	0.00229076	-12.926	38.1557	37.1889	8.53518	0.0255442	0.00586088	0.026208	12.9223	1.17114e+08	5.10433e+08	5.23696e+08	-77.0777	0.0000000E+000	0.0000000E+000	0.0000000E+000	77.0777	0.0000000E+000	0.0000000E+000	0.0000000E+000	-77.0777	0.0000000E+000	0.0000000E+000	0.0000000E+000	-12.9223	0.0000000E+000	0.0000000E+000	0.0000000E+000	12.9223	4.35843	77.0777	-0.0120304	-2.15643e-06	-4.16462e-11	-2.15639e-06	3.97173	7.31545e+06	141.28	7.31531e+06
0.0019912	46.0835	12.5677	47.7665	-15.2544	20329.4	3.97181	-0.000542934	6.35992e+06	440264	1	11	0.0050066	0.000104814	0	-0.0138965	7.67059e-05	6.53662e-07	48.3976	0.00623639	0.0041407	-0.00466339	-15.2477	47.7693	46.0877	12.563	0.0201976	0.00550817	0.0209352	15.2544	4.40264e+08	1.61438e+09	1.67333e+09	-74.7456	0.0000000E+000	0.0000000E+000	0.0000000E+000	74.7456	0.0000000E+000	0.0000000E+000	0.0000000E+000	-74.7456	0.0000000E+000	0.0000000E+000	0.0000000E+000	-15.2544	0.0000000E+000	0.0000000E+000	0.0000000E+000	15.2544	3.66684	74.7456	0.000000000000000E+000	-2.15643e-06	-4.16462e-11	-2.15639e-06	3.97173	7.31545e+06	141.28	7.31531e+06
0.000497799	52.3548	18.0408	55.3759	-19.0133	20329.4	3.97181	-0.000542934	1.77219e+07	1.88096e+06	1	11	0.00501168	9.05029e-05	0	-0.0138965	7.67059e-05	1.23914e-06	67.3899	0.0136917	0.00526389	-0.0126394	-18.9992	55.3768	52.36	18.0281	0.0170732	0.0058832	0.0180584	19.0133	1.88096e+09	5.45859e+09	5.77358e+09	-70.9867	0.0000000E+000	0.0000000E+000	0.0000000E+000	70.9867	0.0000000E+000	0.0000000E+000	0.0000000E+000	-70.9867	0.0000000E+000	0.0000000E+000	0.0000000E+000	-19.0133	0.0000000E+000	0.0000000E+000	0.0000000E+000	19.0133	2.90202	70.9867	0.000000000000000E+000	-2.15643e-06	-4.16462e-11	-2.15639e-06	3.97173	7.31545e+06	141.28	7.31531e+06
9.95598e-05	61.8037	83.2705	103.7	-53.417	20329.4	3.97181	-0.000542934	1.91975e+07	1.23786e+07	1	11	0.00500487	4.8263e-05	0	-0.0138965	7.67059e-05	2.62845e-06	55.2397	0.0544609	0.0310506	-0.044742	-53.3885	103.683	61.8348	83.2257	0.00574722	0.00774344	0.00964321	53.417	1.23786e+10	9.18743e+09	1.54155e+10	-36.583	0.0000000E+000	0.0000000E+000	0.0000000E+000	36.583	0.0000000E+000	0.0000000E+000	0.0000000E+000	-36.583	0.0000000E+000	0.0000000E+000	0.0000000E+000	-53.417	0.0000000E+000	0.0000000E+000	0.0000000E+000	53.417	0.742205	36.583	0.000000000000000E+000	-2.15643e-06	-4.16462e-11	-2.15639e-06	3.97173	7.31545e+06	141.28	7.31531e+06