Folder: EIS/txt (part 33)

File: 17484_R279_UA653_SOC00_C03.mpt
EC-Lab ASCII FILE
Nb header lines : 63

Potentio Electrochemical Impedance Spectroscopy

Run on channel : 3 (SN 65921)
User :
CE vs. WE compliance from -10 V to 10 V
Electrode connection : standard
Potential control : Ewe
Ewe ctrl range : min = -10.00 V, max = 10.00 V
Safety Limits :
	Do not start on E overload
Acquisition started on : 09/15/2025 08:59:18.803
Loaded Setting File :  C:\Users\Celltest\OneDrive - store-dot.com\Documents\EC-Lab\Data\Charmaine\R279\17382_C01.mpr
Saved on :
	File : 17484_C03.mpr
	Directory : C:\Users\Celltest\OneDrive - store-dot.com\Documents\EC-Lab\Data\Charmaine\R279\
	Host : 169.254.61.224
Device : VMP-3e (SN .003165)
Address : USB
EC-LAB for windows v11.62 (software)
Internet server v27.00 (firmware)
Command interpretor v12.03 (firmware)
Electrode material :
Initial state :
Electrolyte :
Comments :
Electrode surface area : 0.001 cm²
Characteristic mass : 0.001 g
Equivalent Weight : 0.000 g/eq.
Density : 0.000 g/cm3
Volume (V) : 0.001 cm³
Cycle Definition : Charge/Discharge alternance
Mode                Single sine
E (V)               0.0000
vs.                 Eoc
tE (h:m:s)          0:00:0.0000
record              0
dI                  0.000
unit dI             mA
dt (s)              0.000
fi                  100.000
unit fi             kHz
ff                  10.000
unit ff             mHz
Nd                  6
Points              per decade
spacing             Logarithmic
Va (mV)             5.0
pw                  0.10
Na                  2
corr                0
E range min (V)     -10.000
E range max (V)     10.000
I Range             Auto
Bandwidth           5
nc cycles           0
goto Ns'            0
nr cycles           0
inc. cycle          0

freq/Hz	Re(Z)/Ohm	-Im(Z)/Ohm	|Z|/Ohm	Phase(Z)/deg	time/s	<Ewe>/V	<I>/mA	Cs/µF	Cp/µF	cycle number	I Range	|Ewe|/V	|I|/A	Ns	(Q-Qo)/mA.h	Re(Y)/Ohm-1	Im(Y)/Ohm-1	|Y|/Ohm-1	Phase(Y)/deg	Re(C)/nF	Im(C)/nF	|C|/nF	Phase(C)/deg	Re(M)	Im(M)	|M|	Phase(M)/deg	Re(Permittivity)	Im(Permittivity)	|Permittivity|	Phase(Permittivity)/deg	Re(Resistivity)/Ohm.cm	Im(Resistivity)/Ohm.cm	|Resistivity|/Ohm.cm	Phase(Resistivity)/deg	Re(Conductivity)/mS/cm	Im(Conductivity)/mS/cm	|Conductivity|/mS/cm	Phase(Conductivity)/deg	Tan(Delta)	Loss Angle(Delta)/deg	dq/mA.h	Pwe/W	Rwe/Ohm
100004	1.31109	0.290282	1.34284	-12.4841	1.86448	0.266506	0.00348057	5.48257	0.256196	1	9	0.00451053	0.00335894	0	-4.23715e-06	0.72708	0.160979	0.744688	12.4841	256.196	1157.14	1185.16	-77.5159	0.0000000E+000	0.0000000E+000	0.0000000E+000	77.5159	0.0000000E+000	0.0000000E+000	0.0000000E+000	-77.5159	0.0000000E+000	0.0000000E+000	0.0000000E+000	-12.4841	0.0000000E+000	0.0000000E+000	0.0000000E+000	12.4841	4.51662	77.5159	-4.23715e-06	9.27593e-07	76569.7
46420.4	1.45648	0.323771	1.49203	-12.5329	2.8795	0.266511	-0.00185241	10.5895	0.498648	1	9	0.0050712	0.00339886	0	-1.03004e-05	0.654257	0.145439	0.670227	12.5329	498.647	2243.16	2297.91	-77.4671	0.0000000E+000	0.0000000E+000	0.0000000E+000	77.4671	0.0000000E+000	0.0000000E+000	0.0000000E+000	-77.4671	0.0000000E+000	0.0000000E+000	0.0000000E+000	-12.5329	0.0000000E+000	0.0000000E+000	0.0000000E+000	12.5329	4.49849	77.4671	-6.83567e-07	-4.93688e-07	143872
21544.7	1.60974	0.376474	1.65318	-13.1633	3.89448	0.266518	0.00493502	19.6221	1.01759	1	9	0.0052241	0.00316003	0	-4.51437e-06	0.589001	0.137751	0.604894	13.1633	1017.59	4351.07	4468.48	-76.8367	0.0000000E+000	0.0000000E+000	0.0000000E+000	76.8367	0.0000000E+000	0.0000000E+000	0.0000000E+000	-76.8367	0.0000000E+000	0.0000000E+000	0.0000000E+000	-13.1633	0.0000000E+000	0.0000000E+000	0.0000000E+000	13.1633	4.27585	76.8367	5.39514e-06	1.31527e-06	54005.6
10002.2	1.78393	0.458307	1.84186	-14.4082	4.62848	0.266519	0.00487906	34.719	2.14965	1	9	0.00497259	0.00269977	0	-3.42722e-06	0.525854	0.135097	0.54293	14.4082	2149.65	8367.36	8639.08	-75.5918	0.0000000E+000	0.0000000E+000	0.0000000E+000	75.5918	0.0000000E+000	0.0000000E+000	0.0000000E+000	-75.5918	0.0000000E+000	0.0000000E+000	0.0000000E+000	-14.4082	0.0000000E+000	0.0000000E+000	0.0000000E+000	14.4082	3.89243	75.5918	-1.27563e-06	1.30036e-06	54625
4641.49	1.9891	0.594695	2.07609	-16.6455	5.47671	0.266518	0.038033	57.6592	4.73112	1	9	0.00477688	0.0023009	0	-7.82167e-06	0.46149	0.137975	0.481674	16.6455	4731.12	15824.3	16516.4	-73.3545	0.0000000E+000	0.0000000E+000	0.0000000E+000	73.3545	0.0000000E+000	0.0000000E+000	0.0000000E+000	-73.3545	0.0000000E+000	0.0000000E+000	0.0000000E+000	-16.6455	0.0000000E+000	0.0000000E+000	0.0000000E+000	16.6455	3.34473	73.3545	2.18823e-06	1.01365e-05	7007.53
2155.69	2.23501	0.814091	2.37866	-20.0139	6.41071	0.266532	0.0398604	90.6904	10.6229	1	9	0.0046754	0.00196556	0	5.56948e-08	0.395017	0.143883	0.420405	20.0139	10622.9	29164.2	31038.6	-69.9861	0.0000000E+000	0.0000000E+000	0.0000000E+000	69.9861	0.0000000E+000	0.0000000E+000	0.0000000E+000	-69.9861	0.0000000E+000	0.0000000E+000	0.0000000E+000	-20.0139	0.0000000E+000	0.0000000E+000	0.0000000E+000	20.0139	2.74541	69.9861	5.0358e-06	1.06241e-05	6686.63
1000.32	2.57172	1.20637	2.84061	-25.1309	7.3467	0.266535	0.0365786	131.887	23.787	1	9	0.00462888	0.00162954	0	8.34437e-06	0.318714	0.149506	0.352037	25.1309	23787	50708.6	56010.6	-64.8691	0.0000000E+000	0.0000000E+000	0.0000000E+000	64.8691	0.0000000E+000	0.0000000E+000	0.0000000E+000	-64.8691	0.0000000E+000	0.0000000E+000	0.0000000E+000	-25.1309	0.0000000E+000	0.0000000E+000	0.0000000E+000	25.1309	2.13178	64.8691	3.16944e-06	9.74948e-06	7286.66
463.961	3.09203	1.88701	3.62236	-31.395	8.53518	0.26653	-0.0266286	181.788	49.3323	1	10	0.00465339	0.00128463	0	5.00527e-06	0.235647	0.143811	0.276063	31.395	49332.3	80835.2	94699.5	-58.605	0.0000000E+000	0.0000000E+000	0.0000000E+000	58.605	0.0000000E+000	0.0000000E+000	0.0000000E+000	-58.605	0.0000000E+000	0.0000000E+000	0.0000000E+000	-31.395	0.0000000E+000	0.0000000E+000	0.0000000E+000	31.395	1.63859	58.605	-2.9115e-06	-7.09732e-06	10009.2
215.345	4.11737	2.93729	5.05771	-35.5036	9.46946	0.266527	-0.0256311	251.617	84.8643	1	10	0.00461547	0.000912562	0	-2.66207e-06	0.160958	0.114826	0.197718	35.5036	84864.3	118959	146128	-54.4964	0.0000000E+000	0.0000000E+000	0.0000000E+000	54.4964	0.0000000E+000	0.0000000E+000	0.0000000E+000	-54.4964	0.0000000E+000	0.0000000E+000	0.0000000E+000	-35.5036	0.0000000E+000	0.0000000E+000	0.0000000E+000	35.5036	1.40176	54.4964	-4.11584e-06	-6.83137e-06	10398.6
100.032	6.00379	4.0989	7.26956	-34.3221	10.4007	0.266499	-0.0264776	388.162	123.405	1	10	0.00459358	0.000631892	0	-8.43707e-06	0.113608	0.0775624	0.13756	34.3221	123405	180755	218863	-55.6779	0.0000000E+000	0.0000000E+000	0.0000000E+000	55.6779	0.0000000E+000	0.0000000E+000	0.0000000E+000	-55.6779	0.0000000E+000	0.0000000E+000	0.0000000E+000	-34.3221	0.0000000E+000	0.0000000E+000	0.0000000E+000	34.3221	1.46473	55.6779	-2.78633e-06	-7.05623e-06	10065.1
46.4415	8.80793	4.58958	9.93196	-27.5228	11.3345	0.266499	-0.027751	746.69	159.447	1	10	0.00458397	0.000461538	0	-1.45045e-05	0.0892902	0.0465268	0.100685	27.5228	159447	305997	345047	-62.4772	0.0000000E+000	0.0000000E+000	0.0000000E+000	62.4772	0.0000000E+000	0.0000000E+000	0.0000000E+000	-62.4772	0.0000000E+000	0.0000000E+000	0.0000000E+000	-27.5228	0.0000000E+000	0.0000000E+000	0.0000000E+000	27.5228	1.91911	62.4772	-3.26534e-06	-7.39562e-06	9603.25
[...]
1.00006	14.7512	1.03201	14.7873	-4.00193	19.6203	0.266563	-0.015552	154209	751.098	1	11	0.00458993	0.000310397	0	-5.77452e-05	0.0674607	0.00471959	0.0676256	4.00193	751098	1.0736e+07	1.07623e+07	-85.9981	0.0000000E+000	0.0000000E+000	0.0000000E+000	85.9981	0.0000000E+000	0.0000000E+000	0.0000000E+000	-85.9981	0.0000000E+000	0.0000000E+000	0.0000000E+000	-4.00193	0.0000000E+000	0.0000000E+000	0.0000000E+000	4.00193	14.2938	85.9981	-1.6117e-05	-4.14559e-06	17140.1
0.464091	15.1608	1.00237	15.1939	-3.78265	27.3055	0.266533	-0.0151857	342130	1489.04	1	11	0.00459374	0.000302342	0	-0.000121829	0.0656726	0.004342	0.065816	3.78265	1.48904e+06	2.25217e+07	2.25709e+07	-86.2173	0.0000000E+000	0.0000000E+000	0.0000000E+000	86.2173	0.0000000E+000	0.0000000E+000	0.0000000E+000	-86.2173	0.0000000E+000	0.0000000E+000	0.0000000E+000	-3.78265	0.0000000E+000	0.0000000E+000	0.0000000E+000	3.78265	15.125	86.2173	-3.6135e-05	-4.04747e-06	17551.6
0.215268	15.5534	1.19198	15.599	-4.38245	43.7847	0.266529	-0.013947	620258	3621.72	1	11	0.00459184	0.000294367	0	-0.000175066	0.0639191	0.00489862	0.0641066	4.38245	3.62172e+06	4.72576e+07	4.73962e+07	-85.6175	0.0000000E+000	0.0000000E+000	0.0000000E+000	85.6175	0.0000000E+000	0.0000000E+000	0.0000000E+000	-85.6175	0.0000000E+000	0.0000000E+000	0.0000000E+000	-4.38245	0.0000000E+000	0.0000000E+000	0.0000000E+000	4.38245	13.0484	85.6175	-1.8622e-05	-3.71727e-06	19110.2
0.0999041	15.9216	1.63074	16.0049	-5.84801	79.1909	0.266528	-0.00825717	976907	10141.8	1	11	0.00458904	0.000286727	0	-0.000150693	0.0621557	0.00636617	0.0624809	5.84801	1.01418e+07	9.90189e+07	9.95369e+07	-84.152	0.0000000E+000	0.0000000E+000	0.0000000E+000	84.152	0.0000000E+000	0.0000000E+000	0.0000000E+000	-84.152	0.0000000E+000	0.0000000E+000	0.0000000E+000	-5.84801	0.0000000E+000	0.0000000E+000	0.0000000E+000	5.84801	9.76344	84.152	2.40392e-05	-2.20076e-06	32278.3
0.0464052	16.5537	2.7008	16.7726	-9.26638	170.181	0.266532	-0.00165322	1.26988e+06	32926.6	1	12	0.00458632	0.000273442	0	-0.00017477	0.0588432	0.00960049	0.0596212	9.26638	3.29266e+07	2.01813e+08	2.04482e+08	-80.7336	0.0000000E+000	0.0000000E+000	0.0000000E+000	80.7336	0.0000000E+000	0.0000000E+000	0.0000000E+000	-80.7336	0.0000000E+000	0.0000000E+000	0.0000000E+000	-9.26638	0.0000000E+000	0.0000000E+000	0.0000000E+000	9.26638	6.12918	80.7336	-2.89526e-05	-4.40635e-07	161220
0.0215268	17.3874	4.72856	18.0189	-15.2138	334.41	0.266537	-0.00124599	1.56355e+06	107675	1	12	0.00458605	0.000254513	0	-0.000716779	0.0535523	0.0145637	0.0554973	15.2138	1.07675e+08	3.9593e+08	4.10311e+08	-74.7862	0.0000000E+000	0.0000000E+000	0.0000000E+000	74.7862	0.0000000E+000	0.0000000E+000	0.0000000E+000	-74.7862	0.0000000E+000	0.0000000E+000	0.0000000E+000	-15.2138	0.0000000E+000	0.0000000E+000	0.0000000E+000	15.2138	3.6771	74.7862	-0.000367983	-3.32102e-07	213916
0.0100092	19.1871	8.41524	20.9514	-23.6817	687.625	0.266534	-0.00285551	1.88954e+06	304834	1	12	0.0045878	0.000218974	0	-0.00161256	0.0437103	0.0191708	0.0477295	23.6817	3.04834e+08	6.95033e+08	7.58943e+08	-66.3183	0.0000000E+000	0.0000000E+000	0.0000000E+000	66.3183	0.0000000E+000	0.0000000E+000	0.0000000E+000	-66.3183	0.0000000E+000	0.0000000E+000	0.0000000E+000	-23.6817	0.0000000E+000	0.0000000E+000	0.0000000E+000	23.6817	2.28004	66.3183	-0.000383255	-7.61092e-07	93340.3

File: 17485_R279_UA653_SOC00_C04.mpt
EC-Lab ASCII FILE
Nb header lines : 63

Potentio Electrochemical Impedance Spectroscopy

Run on channel : 4 (SN 66756)
User :
CE vs. WE compliance from -10 V to 10 V
Electrode connection : standard
Potential control : Ewe
Ewe ctrl range : min = -10.00 V, max = 10.00 V
Safety Limits :
	Do not start on E overload
Acquisition started on : 09/15/2025 08:59:30.852
Loaded Setting File :  C:\Users\Celltest\OneDrive - store-dot.com\Documents\EC-Lab\Data\Charmaine\R279\17382.mps
Saved on :
	File : 17485_C04.mpr
	Directory : C:\Users\Celltest\OneDrive - store-dot.com\Documents\EC-Lab\Data\Charmaine\R279\
	Host : 169.254.61.224
Device : VMP-3e (SN .003165)
Address : USB
EC-LAB for windows v11.62 (software)
Internet server v27.00 (firmware)
Command interpretor v12.03 (firmware)
Electrode material :
Initial state :
Electrolyte :
Comments :
Electrode surface area : 0.001 cm²
Characteristic mass : 0.001 g
Equivalent Weight : 0.000 g/eq.
Density : 0.000 g/cm3
Volume (V) : 0.001 cm³
Cycle Definition : Charge/Discharge alternance
Mode                Single sine
E (V)               0.0000
vs.                 Eoc
tE (h:m:s)          0:00:0.0000
record              0
dI                  0.000
unit dI             mA
dt (s)              0.000
fi                  100.000
unit fi             kHz
ff                  10.000
unit ff             mHz
Nd                  6
Points              per decade
spacing             Logarithmic
Va (mV)             5.0
pw                  0.10
Na                  2
corr                0
E range min (V)     -10.000
E range max (V)     10.000
I Range             Auto
Bandwidth           5
nc cycles           0
goto Ns'            0
nr cycles           0
inc. cycle          0

freq/Hz	Re(Z)/Ohm	-Im(Z)/Ohm	|Z|/Ohm	Phase(Z)/deg	time/s	<Ewe>/V	<I>/mA	Cs/µF	Cp/µF	cycle number	I Range	|Ewe|/V	|I|/A	Ns	(Q-Qo)/mA.h	Re(Y)/Ohm-1	Im(Y)/Ohm-1	|Y|/Ohm-1	Phase(Y)/deg	Re(C)/nF	Im(C)/nF	|C|/nF	Phase(C)/deg	Re(M)	Im(M)	|M|	Phase(M)/deg	Re(Permittivity)	Im(Permittivity)	|Permittivity|	Phase(Permittivity)/deg	Re(Resistivity)/Ohm.cm	Im(Resistivity)/Ohm.cm	|Resistivity|/Ohm.cm	Phase(Resistivity)/deg	Re(Conductivity)/mS/cm	Im(Conductivity)/mS/cm	|Conductivity|/mS/cm	Phase(Conductivity)/deg	Tan(Delta)	Loss Angle(Delta)/deg	dq/mA.h	Pwe/W	Rwe/Ohm
100004	1.19092	0.193101	1.20647	-9.21008	1.7155	0.270225	-0.0706823	8.24173	0.211133	1	9	0.00521777	0.00432482	0	-3.1878e-05	0.818178	0.132664	0.828864	9.21008	211.133	1302.12	1319.13	-80.7899	0.0000000E+000	0.0000000E+000	0.0000000E+000	80.7899	0.0000000E+000	0.0000000E+000	0.0000000E+000	-80.7899	0.0000000E+000	0.0000000E+000	0.0000000E+000	-9.21008	0.0000000E+000	0.0000000E+000	0.0000000E+000	9.21008	6.16731	80.7899	-3.1878e-05	-1.91001e-05	3823.09
46420.4	1.28199	0.284873	1.31326	-12.5282	2.73147	0.270214	-0.0784588	12.0354	0.566317	1	9	0.00547223	0.0041669	0	-5.83618e-05	0.743331	0.165176	0.761462	12.5282	566.317	2548.55	2610.72	-77.4718	0.0000000E+000	0.0000000E+000	0.0000000E+000	77.4718	0.0000000E+000	0.0000000E+000	0.0000000E+000	-77.4718	0.0000000E+000	0.0000000E+000	0.0000000E+000	-12.5282	0.0000000E+000	0.0000000E+000	0.0000000E+000	12.5282	4.50023	77.4718	-8.68284e-06	-2.12007e-05	3444.02
21544.7	1.41924	0.357493	1.46357	-14.1381	3.74648	0.270209	-0.0742629	20.6639	1.23287	1	9	0.00540754	0.00369475	0	-9.23435e-05	0.662563	0.166893	0.683259	14.1381	1232.87	4894.49	5047.37	-75.8619	0.0000000E+000	0.0000000E+000	0.0000000E+000	75.8619	0.0000000E+000	0.0000000E+000	0.0000000E+000	-75.8619	0.0000000E+000	0.0000000E+000	0.0000000E+000	-14.1381	0.0000000E+000	0.0000000E+000	0.0000000E+000	14.1381	3.96999	75.8619	-1.32548e-05	-2.00665e-05	3638.55
10002.2	1.58768	0.463634	1.65399	-16.2789	4.62149	0.270218	-0.0765007	34.32	2.69671	1	9	0.00547922	0.00331273	0	-0.000110446	0.58036	0.169477	0.604599	16.2789	2696.71	9234.65	9620.35	-73.7211	0.0000000E+000	0.0000000E+000	0.0000000E+000	73.7211	0.0000000E+000	0.0000000E+000	0.0000000E+000	-73.7211	0.0000000E+000	0.0000000E+000	0.0000000E+000	-16.2789	0.0000000E+000	0.0000000E+000	0.0000000E+000	16.2789	3.42442	73.7211	-7.75596e-06	-2.06719e-05	3532.23
4641.49	1.79606	0.613883	1.89807	-18.8701	5.87071	0.27022	-0.0777875	55.857	5.84282	1	9	0.00542222	0.00285669	0	-0.000146367	0.498534	0.170396	0.52685	18.8701	5842.82	17094.6	18065.5	-71.1299	0.0000000E+000	0.0000000E+000	0.0000000E+000	71.1299	0.0000000E+000	0.0000000E+000	0.0000000E+000	-71.1299	0.0000000E+000	0.0000000E+000	0.0000000E+000	-18.8701	0.0000000E+000	0.0000000E+000	0.0000000E+000	18.8701	2.92574	71.1299	-1.53168e-05	-2.10197e-05	3473.82
2155.69	2.05668	0.863085	2.23044	-22.7653	7.25068	0.270235	-0.0764448	85.5422	12.8088	1	9	0.00499173	0.00223801	0	-0.00017243	0.413416	0.173489	0.448342	22.7653	12808.8	30522.5	33101.2	-67.2347	0.0000000E+000	0.0000000E+000	0.0000000E+000	67.2347	0.0000000E+000	0.0000000E+000	0.0000000E+000	-67.2347	0.0000000E+000	0.0000000E+000	0.0000000E+000	-22.7653	0.0000000E+000	0.0000000E+000	0.0000000E+000	22.7653	2.38294	67.2347	-1.49782e-05	-2.0658e-05	3535.03
1000.32	2.40662	1.2855	2.72843	-28.1089	8.18667	0.270243	-0.0739459	123.768	27.4744	1	9	0.0051115	0.00187343	0	-0.00019248	0.323283	0.172682	0.366512	28.1089	27474.4	51435.6	58313.5	-61.8911	0.0000000E+000	0.0000000E+000	0.0000000E+000	61.8911	0.0000000E+000	0.0000000E+000	0.0000000E+000	-61.8911	0.0000000E+000	0.0000000E+000	0.0000000E+000	-28.1089	0.0000000E+000	0.0000000E+000	0.0000000E+000	28.1089	1.87213	61.8911	-9.30777e-06	-1.99834e-05	3654.61
463.961	2.97793	2.03266	3.60552	-34.3164	9.37522	0.270249	-0.0577043	168.762	53.6373	1	10	0.00496697	0.0013776	0	-0.000212101	0.229075	0.156361	0.277352	34.3164	53637.3	78581	95141.6	-55.6836	0.0000000E+000	0.0000000E+000	0.0000000E+000	55.6836	0.0000000E+000	0.0000000E+000	0.0000000E+000	-55.6836	0.0000000E+000	0.0000000E+000	0.0000000E+000	-34.3164	0.0000000E+000	0.0000000E+000	0.0000000E+000	34.3164	1.46504	55.6836	-6.80473e-06	-1.55945e-05	4683.34
215.345	4.04698	3.17816	5.14575	-38.1432	10.3094	0.270232	-0.0565256	232.547	88.7084	1	10	0.0048218	0.000937044	0	-0.000225612	0.152839	0.120027	0.194335	38.1432	88708.4	112959	143627	-51.8568	0.0000000E+000	0.0000000E+000	0.0000000E+000	51.8568	0.0000000E+000	0.0000000E+000	0.0000000E+000	-51.8568	0.0000000E+000	0.0000000E+000	0.0000000E+000	-38.1432	0.0000000E+000	0.0000000E+000	0.0000000E+000	38.1432	1.27337	51.8568	-6.95341e-06	-1.5275e-05	4780.7
100.032	6.0465	4.54626	7.56496	-36.9389	11.2407	0.270216	-0.0545262	349.967	126.393	1	10	0.00475866	0.00062904	0	-0.000240561	0.105655	0.0794404	0.132188	36.9389	126393	168102	210317	-53.0611	0.0000000E+000	0.0000000E+000	0.0000000E+000	53.0611	0.0000000E+000	0.0000000E+000	0.0000000E+000	-53.0611	0.0000000E+000	0.0000000E+000	0.0000000E+000	-36.9389	0.0000000E+000	0.0000000E+000	0.0000000E+000	36.9389	1.32999	53.0611	-7.46699e-06	-1.47339e-05	4955.71
46.4415	9.16982	5.23518	10.559	-29.7227	12.1745	0.270229	-0.0556677	654.609	160.916	1	10	0.00472305	0.000447301	0	-0.000255114	0.0822459	0.0469553	0.0947058	29.7227	160916	281856	324556	-60.2774	0.0000000E+000	0.0000000E+000	0.0000000E+000	60.2774	0.0000000E+000	0.0000000E+000	0.0000000E+000	-60.2774	0.0000000E+000	0.0000000E+000	0.0000000E+000	-29.7227	0.0000000E+000	0.0000000E+000	0.0000000E+000	29.7227	1.75158	60.2774	-7.25582e-06	-1.5043e-05	4854.33
[...]
1.00006	16.3378	1.20369	16.3821	-4.21366	21.5133	0.270267	-0.038656	132214	713.786	1	12	0.00472978	0.000288717	0	-0.000368628	0.0608772	0.00448513	0.0610422	4.21366	713785	9.6883e+06	9.71455e+06	-85.7863	0.0000000E+000	0.0000000E+000	0.0000000E+000	85.7863	0.0000000E+000	0.0000000E+000	0.0000000E+000	-85.7863	0.0000000E+000	0.0000000E+000	0.0000000E+000	-4.21366	0.0000000E+000	0.0000000E+000	0.0000000E+000	4.21366	13.5731	85.7863	-2.81924e-05	-1.04475e-05	6991.6
0.464091	16.7531	1.14469	16.7921	-3.90879	29.199	0.270264	-0.0334721	299591	1392.18	1	12	0.00472733	0.000281521	0	-0.000418712	0.0594132	0.00405955	0.0595518	3.90879	1.39218e+06	2.03751e+07	2.04226e+07	-86.0912	0.0000000E+000	0.0000000E+000	0.0000000E+000	86.0912	0.0000000E+000	0.0000000E+000	0.0000000E+000	-86.0912	0.0000000E+000	0.0000000E+000	0.0000000E+000	-3.90879	0.0000000E+000	0.0000000E+000	0.0000000E+000	3.90879	14.6354	86.0912	-3.13861e-05	-9.04631e-06	8074.33
0.215268	17.2134	1.17294	17.2533	-3.89818	45.6789	0.270264	-0.0242971	630325	2913.22	1	12	0.00473669	0.000274538	0	-0.000571032	0.0578258	0.00394033	0.0579599	3.89818	2.91322e+06	4.27526e+07	4.28518e+07	-86.1018	0.0000000E+000	0.0000000E+000	0.0000000E+000	86.1018	0.0000000E+000	0.0000000E+000	0.0000000E+000	-86.1018	0.0000000E+000	0.0000000E+000	0.0000000E+000	-3.89818	0.0000000E+000	0.0000000E+000	0.0000000E+000	3.89818	14.6754	86.1018	-9.47363e-05	-6.56662e-06	11123.3
0.0999041	17.6763	1.5668	17.7456	-5.06536	81.0861	0.270281	-0.0168489	1.01677e+06	7926.25	1	12	0.00473869	0.000267035	0	-0.000874957	0.0561319	0.00497544	0.056352	5.06536	7.92626e+06	8.94225e+07	8.97731e+07	-84.9346	0.0000000E+000	0.0000000E+000	0.0000000E+000	84.9346	0.0000000E+000	0.0000000E+000	0.0000000E+000	-84.9346	0.0000000E+000	0.0000000E+000	0.0000000E+000	-5.06536	0.0000000E+000	0.0000000E+000	0.0000000E+000	5.06536	11.2818	84.9346	-0.000167666	-4.55394e-06	16041.5
0.0464052	18.2299	2.70577	18.4296	-8.44248	157.323	0.270269	-0.0109811	1.26754e+06	27322	1	12	0.00474165	0.000257284	0	-0.0011587	0.0536726	0.00796634	0.0542606	8.44248	2.7322e+07	1.8408e+08	1.86096e+08	-81.5575	0.0000000E+000	0.0000000E+000	0.0000000E+000	81.5575	0.0000000E+000	0.0000000E+000	0.0000000E+000	-81.5575	0.0000000E+000	0.0000000E+000	0.0000000E+000	-8.44248	0.0000000E+000	0.0000000E+000	0.0000000E+000	8.44248	6.73742	81.5575	-0.000113465	-2.96786e-06	24612.1
0.0215268	18.9333	4.67546	19.502	-13.8713	321.553	0.270275	-0.00483542	1.58131e+06	90887.7	1	12	0.00473271	0.000242678	0	-0.000965834	0.0497813	0.0122932	0.0512767	13.8713	9.08877e+07	3.6805e+08	3.79106e+08	-76.1287	0.0000000E+000	0.0000000E+000	0.0000000E+000	76.1287	0.0000000E+000	0.0000000E+000	0.0000000E+000	-76.1287	0.0000000E+000	0.0000000E+000	0.0000000E+000	-13.8713	0.0000000E+000	0.0000000E+000	0.0000000E+000	13.8713	4.0495	76.1287	0.000174706	-1.30689e-06	55894.9
0.0100092	20.6335	8.50026	22.3158	-22.3899	674.769	0.270271	-0.00212744	1.87064e+06	271412	1	12	0.00473753	0.000212295	0	-0.000796394	0.0414331	0.017069	0.0448113	22.3899	2.71412e+08	6.58824e+08	7.12541e+08	-67.6101	0.0000000E+000	0.0000000E+000	0.0000000E+000	67.6101	0.0000000E+000	0.0000000E+000	0.0000000E+000	-67.6101	0.0000000E+000	0.0000000E+000	0.0000000E+000	-22.3899	0.0000000E+000	0.0000000E+000	0.0000000E+000	22.3899	2.42739	67.6101	-4.10672e-05	-5.74985e-07	127040