Folder: EIS/txt (part 80)

File: 18354_R257_UA646_SOC00_C08.mpt
EC-Lab ASCII FILE
Nb header lines : 65

Potentio Electrochemical Impedance Spectroscopy

Run on channel : 8 (SN 65398)
User :
CE vs. WE compliance from -10 V to 10 V
Electrode connection : standard
Potential control : Ewe
Ewe ctrl range : min = -10.00 V, max = 10.00 V
Safety Limits :
	Do not start on E overload
Acquisition started on : 10/13/2025 14:40:50.095
Technique started on : 10/13/2025 14:40:52.150
Loaded Setting File :  C:\Users\Celltest\OneDrive - store-dot.com\Documents\EC-Lab\Data\@Biologic Test Protocols\anode half cell EIS SOC00.mps
Saved on :
	File : 18354_R257_UA646_SOC00_C08.mpr
	Directory : C:\Users\Celltest\OneDrive - store-dot.com\Documents\EC-Lab\Data\John\
	Host : 169.254.61.224
Device : VMP-3e (SN .003165)
Address : USB
EC-LAB for windows v11.62 (software)
Internet server v27.00 (firmware)
Command interpretor v12.03 (firmware)
Electrode material :
Initial state :
Electrolyte :
Comments :
Electrode surface area : 0.001 cm²
Characteristic mass : 0.001 g
Equivalent Weight : 0.000 g/eq.
Density : 0.000 g/cm3
Volume (V) : 0.001 cm³
Record Ece
Cycle Definition : Charge/Discharge alternance
Mode                Single sine
E (V)               0.0000
vs.                 Eoc
tE (h:m:s)          0:00:0.0000
record              0
dI                  0.000
unit dI             mA
dt (s)              0.000
fi                  100.000
unit fi             kHz
ff                  10.000
unit ff             mHz
Nd                  6
Points              per decade
spacing             Logarithmic
Va (mV)             5.0
pw                  0.10
Na                  2
corr                0
E range min (V)     -10.000
E range max (V)     10.000
I Range             Auto
Bandwidth           5
nc cycles           0
goto Ns'            0
nr cycles           0
inc. cycle          0

freq/Hz	Re(Z)/Ohm	-Im(Z)/Ohm	|Z|/Ohm	Phase(Z)/deg	time/s	<Ewe>/V	<I>/mA	Cs/µF	Cp/µF	cycle number	I Range	|Ewe|/V	|I|/A	Ns	(Q-Qo)/mA.h	<Ece>/V	|Ece|/V	Phase(Zce)/deg	|Zce|/Ohm	Re(Zce)/Ohm	-Im(Zce)/Ohm	Phase(Zwe-ce)/deg	|Zwe-ce|/Ohm	Re(Zwe-ce)/Ohm	-Im(Zwe-ce)/Ohm	Re(Y)/Ohm-1	Im(Y)/Ohm-1	|Y|/Ohm-1	Phase(Y)/deg	Re(C)/nF	Im(C)/nF	|C|/nF	Phase(C)/deg	Re(M)	Im(M)	|M|	Phase(M)/deg	Re(Permittivity)	Im(Permittivity)	|Permittivity|	Phase(Permittivity)/deg	Re(Resistivity)/Ohm.cm	Im(Resistivity)/Ohm.cm	|Resistivity|/Ohm.cm	Phase(Resistivity)/deg	Re(Conductivity)/mS/cm	Im(Conductivity)/mS/cm	|Conductivity|/mS/cm	Phase(Conductivity)/deg	Tan(Delta)	Loss Angle(Delta)/deg	dq/mA.h	Pwe/W	Pce/W	Pwe-ce/W	<Ewe-Ece>/V	Rwe/Ohm	Rce/Ohm	Rwe-ce/Ohm		Ewe-Ece/V
100004	1.38236	0.473157	1.4611	-18.8951	2.05456	0.2539	0.0318847	3.36356	0.352738	1	9	0.00493876	0.00338018	0	1.9816e-06	0.000254454	4.63284e-05	62.6901	0.0137059	0.00628831	-0.0121782	-18.3642	1.46316	1.38865	0.460979	0.647536	0.22164	0.684418	18.8951	352.737	1030.55	1089.24	-71.1049	0.0000000E+000	0.0000000E+000	0.0000000E+000	71.1049	0.0000000E+000	0.0000000E+000	0.0000000E+000	-71.1049	0.0000000E+000	0.0000000E+000	0.0000000E+000	-18.8951	0.0000000E+000	0.0000000E+000	0.0000000E+000	18.8951	2.92157	71.1049	1.9816e-06	8.09554e-06	8.11319e-09	8.08742e-06	0.253646	7963.06	7.98043	7955.08
31621.1	1.82042	0.746814	1.96765	-22.3056	3.20354	0.253888	0.0344517	6.73954	0.970866	1	9	0.005398	0.00274338	0	1.58372e-05	6.35733e-05	2.04106e-05	38.0109	0.00743998	0.00586191	-0.00458162	-22.1177	1.97135	1.82628	0.742232	0.470192	0.192893	0.50822	22.3056	970.866	2366.56	2557.97	-67.6944	0.0000000E+000	0.0000000E+000	0.0000000E+000	67.6944	0.0000000E+000	0.0000000E+000	0.0000000E+000	-67.6944	0.0000000E+000	0.0000000E+000	0.0000000E+000	-22.3056	0.0000000E+000	0.0000000E+000	0.0000000E+000	22.3056	2.43758	67.6944	1.04903e-05	8.74688e-06	2.19021e-09	8.74469e-06	0.253825	7369.41	1.84529	7367.56
10002.2	2.41171	1.0414	2.62695	-23.3552	4.35452	0.253894	0.0315871	15.2794	2.40125	1	9	0.00523031	0.00199102	0	1.89981e-05	0.000159014	1.30583e-05	-25.6553	0.00655858	0.005912	0.00283957	-23.3609	2.6335	2.41762	1.04424	0.34948	0.150909	0.38067	23.3552	2401.26	5560.91	6057.21	-66.6448	0.0000000E+000	0.0000000E+000	0.0000000E+000	66.6448	0.0000000E+000	0.0000000E+000	0.0000000E+000	-66.6448	0.0000000E+000	0.0000000E+000	0.0000000E+000	-23.3552	0.0000000E+000	0.0000000E+000	0.0000000E+000	23.3552	2.31583	66.6448	1.46669e-07	8.01977e-06	5.02277e-09	8.01475e-06	0.253735	8037.9	5.03413	8032.87
3163.08	3.20451	1.51696	3.54543	-25.3321	5.50261	0.253836	0.00803806	33.1692	6.07222	1	9	0.00510029	0.00143855	0	2.11705e-05	-7.00431e-05	4.19872e-06	-123.567	0.00291871	-0.00161378	0.00243199	-25.3788	3.54501	3.2029	1.51939	0.254932	0.120681	0.282053	25.3321	6072.22	12827.3	14191.9	-64.6679	0.0000000E+000	0.0000000E+000	0.0000000E+000	64.6679	0.0000000E+000	0.0000000E+000	0.0000000E+000	-64.6679	0.0000000E+000	0.0000000E+000	0.0000000E+000	-25.3321	0.0000000E+000	0.0000000E+000	0.0000000E+000	25.3321	2.11245	64.6679	1.89212e-06	2.04035e-06	-5.63011e-10	2.04091e-06	0.253906	31579.3	8.71393	31588
1000.32	4.26997	2.36873	4.88299	-29.0189	7.10178	0.253859	-0.0079493	67.1685	15.8061	1	10	0.0049528	0.0010143	0	2.01648e-05	0.000368982	2.15816e-05	3.84905	0.0212774	0.0212294	-0.00142831	-28.8839	4.90087	4.2912	2.3673	0.179083	0.0993446	0.204793	29.0189	15806.1	28492.8	32583.3	-60.9811	0.0000000E+000	0.0000000E+000	0.0000000E+000	60.9811	0.0000000E+000	0.0000000E+000	0.0000000E+000	-60.9811	0.0000000E+000	0.0000000E+000	0.0000000E+000	-29.0189	0.0000000E+000	0.0000000E+000	0.0000000E+000	29.0189	1.80264	60.9811	-1.86719e-06	-2.018e-06	-2.93315e-09	-2.01507e-06	0.25349	31934.8	46.4169	31888.3
316.316	5.97154	4.47974	7.46507	-36.8766	8.451	0.253858	-0.00924758	112.317	40.4468	1	10	0.00480567	0.000643754	0	1.72527e-05	0.000216278	1.03284e-05	-70.3039	0.0160441	0.00540736	0.0151054	-36.9443	7.47847	5.97695	4.49485	0.107156	0.0803868	0.133957	36.8766	40446.8	53915.9	67400.8	-53.1234	0.0000000E+000	0.0000000E+000	0.0000000E+000	53.1234	0.0000000E+000	0.0000000E+000	0.0000000E+000	-53.1234	0.0000000E+000	0.0000000E+000	0.0000000E+000	-36.8766	0.0000000E+000	0.0000000E+000	0.0000000E+000	36.8766	1.33301	53.1234	-1.6345e-06	-2.34758e-06	-2.00005e-09	-2.34558e-06	0.253642	27451.3	23.3875	27427.9
100.032	10.5391	8.16324	13.3309	-37.7601	9.7988	0.253873	-0.00827668	194.903	73.0849	1	10	0.00474308	0.000355797	0	1.41263e-05	0.000273542	8.41338e-06	43.756	0.0236466	0.0170797	-0.0163537	-37.6596	13.3344	10.5562	8.14688	0.0593047	0.0459353	0.0750139	37.7601	73084.9	94356.1	119350	-52.2399	0.0000000E+000	0.0000000E+000	0.0000000E+000	52.2399	0.0000000E+000	0.0000000E+000	0.0000000E+000	-52.2399	0.0000000E+000	0.0000000E+000	0.0000000E+000	-37.7601	0.0000000E+000	0.0000000E+000	0.0000000E+000	37.7601	1.29105	52.2399	-1.20859e-06	-2.10123e-06	-2.26402e-09	-2.09896e-06	0.253599	30673.3	33.0497	30640.2
[...]
1.00006	31.507	3.52845	31.7039	-6.38989	19.8549	0.253882	-0.00471124	45103.3	558.663	1	12	0.00473948	0.000149492	0	-7.04079e-06	0.000254454	3.04455e-06	10.6945	0.020366	0.0200123	-0.00377937	-6.37909	31.7234	31.527	3.52467	0.0313459	0.0035104	0.0315418	6.38989	558662	4.98853e+06	5.01972e+06	-83.6101	0.0000000E+000	0.0000000E+000	0.0000000E+000	83.6101	0.0000000E+000	0.0000000E+000	0.0000000E+000	-83.6101	0.0000000E+000	0.0000000E+000	0.0000000E+000	-6.38989	0.0000000E+000	0.0000000E+000	0.0000000E+000	6.38989	8.92942	83.6101	-7.08411e-06	-1.1961e-06	-1.19879e-09	-1.1949e-06	0.253627	53888.6	54.01	53834.5
0.316193	33.4656	3.63176	33.6621	-6.19364	34.1987	0.253883	-0.00514757	138596	1613.26	1	12	0.00474171	0.000140862	0	-5.23223e-06	-0.000127307	1.55422e-06	-25.0029	0.0110336	0.0099996	0.00466351	-6.19969	33.6725	33.4756	3.63643	0.0295336	0.00320506	0.029707	6.19364	1.61326e+06	1.48657e+07	1.4953e+07	-83.8064	0.0000000E+000	0.0000000E+000	0.0000000E+000	83.8064	0.0000000E+000	0.0000000E+000	0.0000000E+000	-83.8064	0.0000000E+000	0.0000000E+000	0.0000000E+000	-6.19364	0.0000000E+000	0.0000000E+000	0.0000000E+000	6.19364	9.21469	83.8064	2.94387e-06	-1.30688e-06	6.55324e-10	-1.30754e-06	0.254011	49321	24.7315	49345.7
0.0999041	35.9389	5.47955	36.3542	-8.66905	79.4067	0.253881	-0.00522311	290731	6605	1	12	0.00474342	0.000130478	0	-8.48766e-05	-0.000318188	2.72465e-06	12.5556	0.0208821	0.0203827	-0.00453948	-8.65714	36.3737	35.9593	5.47501	0.0271929	0.00414606	0.0275071	8.66905	6.605e+06	4.33204e+07	4.3821e+07	-81.3309	0.0000000E+000	0.0000000E+000	0.0000000E+000	81.3309	0.0000000E+000	0.0000000E+000	0.0000000E+000	-81.3309	0.0000000E+000	0.0000000E+000	0.0000000E+000	-8.66905	0.0000000E+000	0.0000000E+000	0.0000000E+000	8.66905	6.55872	81.3309	-5.56294e-05	-1.32605e-06	1.66193e-09	-1.32771e-06	0.254199	48607.2	60.9192	48668.1
0.0315922	40.0692	8.96138	41.059	-12.6066	222.29	0.253879	-0.00883342	562167	26779.2	1	12	0.00474028	0.00011545	0	-0.000536789	0.000273542	4.3512e-06	5.75505	0.0376889	0.037499	-0.00377929	-12.5901	41.0948	40.1067	8.9576	0.023768	0.00531566	0.0243552	12.6066	2.67792e+07	1.19738e+08	1.22696e+08	-77.3934	0.0000000E+000	0.0000000E+000	0.0000000E+000	77.3934	0.0000000E+000	0.0000000E+000	0.0000000E+000	-77.3934	0.0000000E+000	0.0000000E+000	0.0000000E+000	-12.6066	0.0000000E+000	0.0000000E+000	0.0000000E+000	12.6066	4.47132	77.3934	-0.000197755	-2.24262e-06	-2.41631e-09	-2.2402e-06	0.253605	28740.7	30.9667	28709.7
0.0100092	46.6565	16.5512	49.5052	-19.532	673.513	0.253878	-0.0112498	960708	107387	1	12	0.00474086	9.57648e-05	0	-0.00138662	-0.000241836	2.29827e-06	4.06036	0.0239991	0.0239389	-0.00169932	-19.5209	49.5272	46.6804	16.5495	0.0190375	0.00675349	0.0201999	19.532	1.07387e+08	3.02713e+08	3.21197e+08	-70.468	0.0000000E+000	0.0000000E+000	0.0000000E+000	70.468	0.0000000E+000	0.0000000E+000	0.0000000E+000	-70.468	0.0000000E+000	0.0000000E+000	0.0000000E+000	-19.532	0.0000000E+000	0.0000000E+000	0.0000000E+000	19.532	2.81891	70.468	-0.000371435	-2.85606e-06	2.72059e-09	-2.85878e-06	0.25412	22567.4	21.497	22588.9

File: 18355_R257_UA646_SOC00_C01.mpt
EC-Lab ASCII FILE
Nb header lines : 65

Potentio Electrochemical Impedance Spectroscopy

Run on channel : 1 (SN 66354)
User :
CE vs. WE compliance from -10 V to 10 V
Electrode connection : standard
Potential control : Ewe
Ewe ctrl range : min = -10.00 V, max = 10.00 V
Safety Limits :
	Do not start on E overload
Acquisition started on : 10/13/2025 14:53:07.701
Technique started on : 10/13/2025 14:53:09.612
Loaded Setting File :  C:\Users\Celltest\OneDrive - store-dot.com\Documents\EC-Lab\Data\@Biologic Test Protocols\anode half cell EIS SOC00.mps
Saved on :
	File : 18355_R257_UA646_SOC00_C01.mpr
	Directory : C:\Users\Celltest\OneDrive - store-dot.com\Documents\EC-Lab\Data\John\
	Host : 169.254.61.224
Device : VMP-3e (SN .003165)
Address : USB
EC-LAB for windows v11.62 (software)
Internet server v27.00 (firmware)
Command interpretor v12.03 (firmware)
Electrode material :
Initial state :
Electrolyte :
Comments :
Electrode surface area : 0.001 cm²
Characteristic mass : 0.001 g
Equivalent Weight : 0.000 g/eq.
Density : 0.000 g/cm3
Volume (V) : 0.001 cm³
Record Ece
Cycle Definition : Charge/Discharge alternance
Mode                Single sine
E (V)               0.0000
vs.                 Eoc
tE (h:m:s)          0:00:0.0000
record              0
dI                  0.000
unit dI             mA
dt (s)              0.000
fi                  100.000
unit fi             kHz
ff                  10.000
unit ff             mHz
Nd                  6
Points              per decade
spacing             Logarithmic
Va (mV)             5.0
pw                  0.10
Na                  2
corr                0
E range min (V)     -10.000
E range max (V)     10.000
I Range             Auto
Bandwidth           5
nc cycles           0
goto Ns'            0
nr cycles           0
inc. cycle          0

freq/Hz	Re(Z)/Ohm	-Im(Z)/Ohm	|Z|/Ohm	Phase(Z)/deg	time/s	<Ewe>/V	<I>/mA	Cs/µF	Cp/µF	cycle number	I Range	|Ewe|/V	|I|/A	Ns	(Q-Qo)/mA.h	<Ece>/V	|Ece|/V	Phase(Zce)/deg	|Zce|/Ohm	Re(Zce)/Ohm	-Im(Zce)/Ohm	Phase(Zwe-ce)/deg	|Zwe-ce|/Ohm	Re(Zwe-ce)/Ohm	-Im(Zwe-ce)/Ohm	Re(Y)/Ohm-1	Im(Y)/Ohm-1	|Y|/Ohm-1	Phase(Y)/deg	Re(C)/nF	Im(C)/nF	|C|/nF	Phase(C)/deg	Re(M)	Im(M)	|M|	Phase(M)/deg	Re(Permittivity)	Im(Permittivity)	|Permittivity|	Phase(Permittivity)/deg	Re(Resistivity)/Ohm.cm	Im(Resistivity)/Ohm.cm	|Resistivity|/Ohm.cm	Phase(Resistivity)/deg	Re(Conductivity)/mS/cm	Im(Conductivity)/mS/cm	|Conductivity|/mS/cm	Phase(Conductivity)/deg	Tan(Delta)	Loss Angle(Delta)/deg	dq/mA.h	Pwe/W	Pce/W	Pwe-ce/W	<Ewe-Ece>/V	Rwe/Ohm	Rce/Ohm	Rwe-ce/Ohm		Ewe-Ece/V
100004	1.37317	0.483476	1.4558	-19.3965	1.91056	0.254345	0.0761433	3.29176	0.363059	1	9	0.00471738	0.00324041	0	7.13194e-06	-0.000131202	4.1922e-05	92.2751	0.0129373	-0.000513581	-0.0129271	-18.9218	1.45107	1.37266	0.470549	0.647921	0.228125	0.686908	19.3965	363.059	1031.16	1093.21	-70.6035	0.0000000E+000	0.0000000E+000	0.0000000E+000	70.6035	0.0000000E+000	0.0000000E+000	0.0000000E+000	-70.6035	0.0000000E+000	0.0000000E+000	0.0000000E+000	-19.3965	0.0000000E+000	0.0000000E+000	0.0000000E+000	19.3965	2.8402	70.6035	7.13194e-06	1.93666e-05	-9.99012e-09	1.93766e-05	0.254476	3340.34	1.72309	3342.06
31621.1	1.81333	0.736971	1.95737	-22.1178	3.43356	0.25436	0.0746531	6.82956	0.968164	1	9	0.00503578	0.00257273	0	2.33815e-05	0.000116803	1.21208e-05	47.7874	0.00471127	0.00316542	-0.00348943	-21.9884	1.95899	1.81649	0.733481	0.473295	0.192356	0.510891	22.1178	968.164	2382.18	2571.41	-67.8822	0.0000000E+000	0.0000000E+000	0.0000000E+000	67.8822	0.0000000E+000	0.0000000E+000	0.0000000E+000	-67.8822	0.0000000E+000	0.0000000E+000	0.0000000E+000	-22.1178	0.0000000E+000	0.0000000E+000	0.0000000E+000	22.1178	2.46051	67.8822	6.59988e-06	1.89888e-05	8.71975e-09	1.898e-05	0.254243	3407.22	1.56462	3405.66
10002.2	2.38873	1.00747	2.5925	-22.8681	4.33453	0.254372	0.0746531	15.794	2.38517	1	9	0.004502	0.00173655	0	4.44846e-05	9.77262e-05	8.44959e-06	-34.5151	0.00486573	0.00400925	0.00275704	-22.8897	2.59726	2.39274	1.01023	0.355411	0.149898	0.385729	22.8681	2385.17	5655.29	6137.69	-67.132	0.0000000E+000	0.0000000E+000	0.0000000E+000	67.132	0.0000000E+000	0.0000000E+000	0.0000000E+000	-67.132	0.0000000E+000	0.0000000E+000	0.0000000E+000	-22.8681	0.0000000E+000	0.0000000E+000	0.0000000E+000	22.8681	2.37102	67.132	4.40508e-06	1.89897e-05	7.29556e-09	1.89824e-05	0.254274	3407.39	1.30907	3406.08
3163.08	3.16986	1.46913	3.49376	-24.8662	5.35868	0.254146	0.0339714	34.2492	6.05598	1	9	0.00477165	0.00136576	0	6.00934e-05	2.33964e-06	6.54379e-06	-82.5657	0.0047913	0.000619943	0.00475103	-24.9326	3.49632	3.17048	1.47388	0.25969	0.120358	0.286225	24.8662	6055.98	13066.7	14401.8	-65.1338	0.0000000E+000	0.0000000E+000	0.0000000E+000	65.1338	0.0000000E+000	0.0000000E+000	0.0000000E+000	-65.1338	0.0000000E+000	0.0000000E+000	0.0000000E+000	-24.8662	0.0000000E+000	0.0000000E+000	0.0000000E+000	24.8662	2.15765	65.1338	6.96728e-06	8.63368e-06	7.94809e-11	8.6336e-06	0.254143	7481.18	0.0688711	7481.11
1000.32	4.16497	2.32733	4.7711	-29.1959	6.95686	0.254284	-0.00758476	68.3634	16.2668	1	10	0.0047849	0.00100289	0	6.52316e-05	5.95716e-05	7.23583e-06	15.2901	0.00721496	0.00695957	-0.00190263	-29.1352	4.77625	4.17193	2.32542	0.182968	0.10224	0.209595	29.1959	16266.8	29110.9	33347.5	-60.8041	0.0000000E+000	0.0000000E+000	0.0000000E+000	60.8041	0.0000000E+000	0.0000000E+000	0.0000000E+000	-60.8041	0.0000000E+000	0.0000000E+000	0.0000000E+000	-29.1959	0.0000000E+000	0.0000000E+000	0.0000000E+000	29.1959	1.78959	60.8041	-1.54777e-06	-1.92869e-06	-4.51836e-10	-1.92823e-06	0.254225	33525.7	7.85412	33517.9
316.316	5.77888	4.43934	7.2872	-37.5315	8.30609	0.254289	-0.00709654	113.339	42.0627	1	10	0.00471446	0.000646952	0	6.27163e-05	0.000135881	4.55868e-06	79.4209	0.0070464	0.00129367	-0.00692663	-37.4821	7.284	5.78018	4.43241	0.108824	0.0835983	0.137227	37.5315	42062.7	54754.8	69046	-52.4685	0.0000000E+000	0.0000000E+000	0.0000000E+000	52.4685	0.0000000E+000	0.0000000E+000	0.0000000E+000	-52.4685	0.0000000E+000	0.0000000E+000	0.0000000E+000	-37.5315	0.0000000E+000	0.0000000E+000	0.0000000E+000	37.5315	1.30174	52.4685	-1.29008e-06	-1.80457e-06	-9.64283e-10	-1.8036e-06	0.254153	35832.8	19.1475	35813.6
100.032	10.2897	8.3761	13.2679	-39.1465	9.65377	0.254273	-0.00824072	189.95	75.7039	1	10	0.00469243	0.000353667	0	6.03861e-05	5.95716e-05	1.44388e-05	-24.67	0.0408259	0.0370996	0.0170404	-39.1025	13.3074	10.3268	8.39314	0.0584519	0.0475814	0.0753698	39.1465	75703.9	92999.4	119916	-50.8535	0.0000000E+000	0.0000000E+000	0.0000000E+000	50.8535	0.0000000E+000	0.0000000E+000	0.0000000E+000	-50.8535	0.0000000E+000	0.0000000E+000	0.0000000E+000	-39.1465	0.0000000E+000	0.0000000E+000	0.0000000E+000	39.1465	1.22846	50.8535	-1.39947e-06	-2.09539e-06	-4.90913e-10	-2.0949e-06	0.254213	30855.6	7.22893	30848.4
[...]
1.00006	34.1634	4.38926	34.4442	-7.32118	19.3899	0.254353	0.00103065	36257.7	588.779	1	12	0.00468759	0.000136092	0	5.95351e-05	0.000269422	4.21568e-06	-10.314	0.0309766	0.030476	0.00554615	-7.32386	34.4751	34.1938	4.39481	0.0287958	0.00369964	0.0290325	7.32118	588779	4.5827e+06	4.62037e+06	-82.6788	0.0000000E+000	0.0000000E+000	0.0000000E+000	82.6788	0.0000000E+000	0.0000000E+000	0.0000000E+000	-82.6788	0.0000000E+000	0.0000000E+000	0.0000000E+000	-7.32118	0.0000000E+000	0.0000000E+000	0.0000000E+000	7.32118	7.7834	82.6788	2.5537e-06	2.6215e-07	2.7768e-10	2.61872e-07	0.254084	246788	261.409	246527
0.316193	36.8128	4.27953	37.0607	-6.63094	33.7321	0.25434	0.000492638	117617	1568.33	1	12	0.0046925	0.000126617	0	8.06249e-05	9.77262e-05	3.57088e-06	3.16044	0.0282023	0.0281594	-0.00155486	-6.62353	37.0885	36.8409	4.27798	0.0268023	0.00311579	0.0269828	6.63094	1.56833e+06	1.34908e+07	1.35817e+07	-83.3691	0.0000000E+000	0.0000000E+000	0.0000000E+000	83.3691	0.0000000E+000	0.0000000E+000	0.0000000E+000	-83.3691	0.0000000E+000	0.0000000E+000	0.0000000E+000	-6.63094	0.0000000E+000	0.0000000E+000	0.0000000E+000	6.63094	8.60206	83.3691	6.40821e-06	1.25298e-07	4.81437e-11	1.25249e-07	0.254242	516282	198.373	516083
0.0999041	39.469	5.86773	39.9028	-8.45604	78.941	0.254337	-0.00101676	271498	5870.84	1	12	0.00469058	0.00011755	0	2.17314e-05	0.000250345	2.83873e-06	-9.58445	0.0241491	0.023812	0.00402085	-8.45672	39.9269	39.4928	5.87175	0.0247885	0.00368522	0.0250609	8.45604	5.87084e+06	3.949e+07	3.9924e+07	-81.544	0.0000000E+000	0.0000000E+000	0.0000000E+000	81.544	0.0000000E+000	0.0000000E+000	0.0000000E+000	-81.544	0.0000000E+000	0.0000000E+000	0.0000000E+000	-8.45604	0.0000000E+000	0.0000000E+000	0.0000000E+000	8.45604	6.72646	81.544	-3.82718e-05	-2.586e-07	-2.5454e-10	-2.58345e-07	0.254087	250145	246.218	249899
0.0315922	43.9907	9.54494	45.0143	-12.2421	221.824	0.254338	-0.00511497	527797	23730.8	1	12	0.00468953	0.000104179	0	-0.000141855	-0.000321975	2.72273e-06	0.707028	0.0261352	0.0261332	-0.0003225	-12.2346	45.0398	44.0168	9.54462	0.02171	0.00471056	0.0222152	12.2421	2.37308e+07	1.0937e+08	1.11915e+08	-77.7579	0.0000000E+000	0.0000000E+000	0.0000000E+000	77.7579	0.0000000E+000	0.0000000E+000	0.0000000E+000	-77.7579	0.0000000E+000	0.0000000E+000	0.0000000E+000	-12.2421	0.0000000E+000	0.0000000E+000	0.0000000E+000	12.2421	4.6088	77.7579	-4.92233e-05	-1.30093e-06	1.64689e-09	-1.30258e-06	0.25466	49724.2	62.9475	49787.1
0.0100092	51.0972	17.0159	53.8559	-18.4183	673.047	0.254332	-0.00679717	934473	93284.6	1	12	0.00468972	8.70789e-05	0	-0.000486902	0.000174035	2.18565e-06	-30.6685	0.0250996	0.021589	0.0128026	-18.424	53.8805	51.1188	17.0287	0.0176169	0.00586662	0.0185681	18.4183	9.32846e+07	2.80125e+08	2.95249e+08	-71.5817	0.0000000E+000	0.0000000E+000	0.0000000E+000	71.5817	0.0000000E+000	0.0000000E+000	0.0000000E+000	-71.5817	0.0000000E+000	0.0000000E+000	0.0000000E+000	-18.4183	0.0000000E+000	0.0000000E+000	0.0000000E+000	18.4183	3.00291	71.5817	-0.000235041	-1.72874e-06	-1.18295e-09	-1.72755e-06	0.254158	37417.3	25.6041	37391.7