Folder: EIS/txt (part 7)

File: 17153_C01.mpt
EC-Lab ASCII FILE
Nb header lines : 64

Potentio Electrochemical Impedance Spectroscopy

Run on channel : 1 (SN 66354)
User :
CE vs. WE compliance from -10 V to 10 V
Electrode connection : standard
Potential control : Ewe
Ewe ctrl range : min = -10.00 V, max = 10.00 V
Safety Limits :
	Do not start on E overload
Acquisition started on : 09/04/2025 09:43:57.907
Technique started on : 09/04/2025 09:43:59.623
Loaded Setting File :  C:\Users\Celltest\OneDrive - store-dot.com\Documents\EC-Lab\Data\Gyutae\EIS_SOC0_C01.mpr
Saved on :
	File : 17153_C01.mpr
	Directory : C:\Users\Celltest\OneDrive - store-dot.com\Documents\EC-Lab\Data\Gyutae\R270\
	Host : 169.254.61.224
Device : VMP-3e (SN .003165)
Address : USB
EC-LAB for windows v11.62 (software)
Internet server v27.00 (firmware)
Command interpretor v12.03 (firmware)
Electrode material :
Initial state :
Electrolyte :
Comments :
Electrode surface area : 0.001 cm²
Characteristic mass : 0.001 g
Equivalent Weight : 0.000 g/eq.
Density : 0.000 g/cm3
Volume (V) : 0.001 cm³
Cycle Definition : Charge/Discharge alternance
Mode                Single sine
E (V)               0.0000
vs.                 Eoc
tE (h:m:s)          0:00:0.0000
record              0
dI                  0.000
unit dI             mA
dt (s)              0.000
fi                  100.000
unit fi             kHz
ff                  10.000
unit ff             mHz
Nd                  6
Points              per decade
spacing             Logarithmic
Va (mV)             5.0
pw                  0.10
Na                  2
corr                0
E range min (V)     -10.000
E range max (V)     10.000
I Range             Auto
Bandwidth           5
nc cycles           0
goto Ns'            0
nr cycles           0
inc. cycle          0

freq/Hz	Re(Z)/Ohm	-Im(Z)/Ohm	|Z|/Ohm	Phase(Z)/deg	time/s	<Ewe>/V	<I>/mA	Cs/µF	Cp/µF	cycle number	I Range	|Ewe|/V	|I|/A	Ns	(Q-Qo)/mA.h	Re(Y)/Ohm-1	Im(Y)/Ohm-1	|Y|/Ohm-1	Phase(Y)/deg	Re(C)/nF	Im(C)/nF	|C|/nF	Phase(C)/deg	Re(M)	Im(M)	|M|	Phase(M)/deg	Re(Permittivity)	Im(Permittivity)	|Permittivity|	Phase(Permittivity)/deg	Re(Resistivity)/Ohm.cm	Im(Resistivity)/Ohm.cm	|Resistivity|/Ohm.cm	Phase(Resistivity)/deg	Re(Conductivity)/mS/cm	Im(Conductivity)/mS/cm	|Conductivity|/mS/cm	Phase(Conductivity)/deg	Tan(Delta)	Loss Angle(Delta)/deg	dq/mA.h	Pwe/W	Rwe/Ohm
100004	1.09017	0.23127	1.11443	-11.9772	1.71649	0.279787	0.0805021	6.88151	0.296358	1	9	0.00468393	0.00420298	0	1.53585e-05	0.877784	0.186214	0.897318	11.9772	296.358	1396.98	1428.07	-78.0228	0.0000000E+000	0.0000000E+000	0.0000000E+000	78.0228	0.0000000E+000	0.0000000E+000	0.0000000E+000	-78.0228	0.0000000E+000	0.0000000E+000	0.0000000E+000	-11.9772	0.0000000E+000	0.0000000E+000	0.0000000E+000	11.9772	4.71384	78.0228	1.53585e-05	2.25235e-05	3475.53
46420.4	1.2253	0.343778	1.27262	-15.6723	2.59148	0.279801	0.0828305	9.97317	0.727771	1	9	0.00513867	0.00403788	0	3.09303e-05	0.756569	0.212267	0.785783	15.6723	727.772	2593.94	2694.1	-74.3277	0.0000000E+000	0.0000000E+000	0.0000000E+000	74.3277	0.0000000E+000	0.0000000E+000	0.0000000E+000	-74.3277	0.0000000E+000	0.0000000E+000	0.0000000E+000	-15.6723	0.0000000E+000	0.0000000E+000	0.0000000E+000	15.6723	3.56423	74.3277	1.07215e-05	2.3176e-05	3377.99
21544.7	1.40452	0.456185	1.47675	-17.9937	3.46548	0.279793	0.0817501	16.1934	1.54528	1	9	0.00532702	0.00360727	0	4.12393e-05	0.644044	0.209184	0.677164	17.9937	1545.28	4757.69	5002.35	-72.0063	0.0000000E+000	0.0000000E+000	0.0000000E+000	72.0063	0.0000000E+000	0.0000000E+000	0.0000000E+000	-72.0063	0.0000000E+000	0.0000000E+000	0.0000000E+000	-17.9937	0.0000000E+000	0.0000000E+000	0.0000000E+000	17.9937	3.07884	72.0063	5.49546e-06	2.28731e-05	3422.54
10002.2	1.63467	0.593204	1.73898	-19.9453	4.3395	0.279796	0.0850471	26.8237	3.12133	1	9	0.00537792	0.00309257	0	5.95766e-05	0.540558	0.196162	0.57505	19.9453	3121.33	8601.33	9150.17	-70.0547	0.0000000E+000	0.0000000E+000	0.0000000E+000	70.0547	0.0000000E+000	0.0000000E+000	0.0000000E+000	-70.0547	0.0000000E+000	0.0000000E+000	0.0000000E+000	-19.9453	0.0000000E+000	0.0000000E+000	0.0000000E+000	19.9453	2.75567	70.0547	7.4335e-06	2.37959e-05	3289.9
4641.49	1.9343	0.768735	2.08146	-21.674	5.76469	0.27979	0.0723061	44.6053	6.08419	1	9	0.00518361	0.00249037	0	8.78058e-05	0.446465	0.177435	0.480431	21.674	6084.19	15309.1	16473.8	-68.326	0.0000000E+000	0.0000000E+000	0.0000000E+000	68.326	0.0000000E+000	0.0000000E+000	0.0000000E+000	-68.326	0.0000000E+000	0.0000000E+000	0.0000000E+000	-21.674	0.0000000E+000	0.0000000E+000	0.0000000E+000	21.674	2.51622	68.326	1.66952e-05	2.02305e-05	3869.52
2155.69	2.31126	1.00191	2.51907	-23.4364	7.14471	0.27979	0.0751747	73.6893	11.6569	1	9	0.0051297	0.00203634	0	0.000115553	0.364222	0.157887	0.396971	23.4364	11656.9	26890.6	29308.5	-66.5636	0.0000000E+000	0.0000000E+000	0.0000000E+000	66.5636	0.0000000E+000	0.0000000E+000	0.0000000E+000	-66.5636	0.0000000E+000	0.0000000E+000	0.0000000E+000	-23.4364	0.0000000E+000	0.0000000E+000	0.0000000E+000	23.4364	2.30685	66.5636	1.62504e-05	2.10331e-05	3721.86
1000.32	2.77148	1.31957	3.06958	-25.4602	8.0817	0.279786	0.0768325	120.573	22.282	1	9	0.00512237	0.00166875	0	0.000134527	0.294139	0.140047	0.325777	25.4602	22282	46798.7	51832.4	-64.5398	0.0000000E+000	0.0000000E+000	0.0000000E+000	64.5398	0.0000000E+000	0.0000000E+000	0.0000000E+000	-64.5398	0.0000000E+000	0.0000000E+000	0.0000000E+000	-25.4602	0.0000000E+000	0.0000000E+000	0.0000000E+000	25.4602	2.10029	64.5398	7.83649e-06	2.14967e-05	3641.51
463.961	3.41322	1.83376	3.87463	-28.247	9.27022	0.279799	-0.00166078	187.066	41.9007	1	10	0.00498444	0.00128643	0	0.000139484	0.227355	0.122147	0.258089	28.247	41900.7	77990.7	88533.7	-61.753	0.0000000E+000	0.0000000E+000	0.0000000E+000	61.753	0.0000000E+000	0.0000000E+000	0.0000000E+000	-61.753	0.0000000E+000	0.0000000E+000	0.0000000E+000	-28.247	0.0000000E+000	0.0000000E+000	0.0000000E+000	28.247	1.86132	61.753	-2.607e-07	-4.64685e-07	168474
215.345	4.42623	2.57799	5.12226	-30.218	10.2044	0.279784	-0.00182105	286.685	72.618	1	10	0.00488248	0.000953188	0	0.000137695	0.168698	0.0982558	0.195226	30.218	72618	124680	144286	-59.782	0.0000000E+000	0.0000000E+000	0.0000000E+000	59.782	0.0000000E+000	0.0000000E+000	0.0000000E+000	-59.782	0.0000000E+000	0.0000000E+000	0.0000000E+000	-30.218	0.0000000E+000	0.0000000E+000	0.0000000E+000	30.218	1.71693	59.782	-8.58586e-07	-5.09499e-07	153639
100.032	6.0579	3.26986	6.88405	-28.3588	11.1357	0.279797	-0.00188069	486.577	109.78	1	10	0.00482437	0.000700804	0	0.000138461	0.12783	0.0689988	0.145263	28.3588	109780	203383	231120	-61.6412	0.0000000E+000	0.0000000E+000	0.0000000E+000	61.6412	0.0000000E+000	0.0000000E+000	0.0000000E+000	-61.6412	0.0000000E+000	0.0000000E+000	0.0000000E+000	-28.3588	0.0000000E+000	0.0000000E+000	0.0000000E+000	28.3588	1.85265	61.6412	5.4996e-07	-5.2621e-07	148774
46.4415	8.12503	3.3774	8.79903	-22.5716	12.0695	0.279796	-0.00216394	1014.68	149.495	1	10	0.00481405	0.000547112	0	0.000139018	0.104943	0.0436227	0.113649	22.5716	149495	359641	389474	-67.4284	0.0000000E+000	0.0000000E+000	0.0000000E+000	67.4284	0.0000000E+000	0.0000000E+000	0.0000000E+000	-67.4284	0.0000000E+000	0.0000000E+000	0.0000000E+000	-22.5716	0.0000000E+000	0.0000000E+000	0.0000000E+000	22.5716	2.40571	67.4284	1.03777e-07	-6.05461e-07	129300
[...]
1.00006	13.0013	0.950257	13.0359	-4.18029	20.3032	0.279817	-0.00366185	167476	889.916	1	11	0.00481105	0.00036906	0	0.000148565	0.076507	0.00559187	0.076711	4.18029	889917	1.21757e+07	1.22082e+07	-85.8197	0.0000000E+000	0.0000000E+000	0.0000000E+000	85.8197	0.0000000E+000	0.0000000E+000	0.0000000E+000	-85.8197	0.0000000E+000	0.0000000E+000	0.0000000E+000	-4.18029	0.0000000E+000	0.0000000E+000	0.0000000E+000	4.18029	13.6818	85.8197	1.01131e-05	-1.02465e-06	76414.1
0.464091	13.2861	0.895405	13.3163	-3.85556	27.9878	0.279812	-3.96766e-05	382999	1731.69	1	11	0.00481139	0.000361316	0	0.000147446	0.0749261	0.00504956	0.075096	3.85556	1.7317e+06	2.56951e+07	2.57534e+07	-86.1444	0.0000000E+000	0.0000000E+000	0.0000000E+000	86.1444	0.0000000E+000	0.0000000E+000	0.0000000E+000	-86.1444	0.0000000E+000	0.0000000E+000	0.0000000E+000	-3.85556	0.0000000E+000	0.0000000E+000	0.0000000E+000	3.85556	14.8381	86.1444	-7.87493e-06	-1.1102e-08	7.05232e+06
0.215268	13.5197	1.13397	13.5672	-4.79448	44.4678	0.279816	0.000270589	651988	4554.74	1	11	0.0048133	0.000354776	0	7.47449e-05	0.0734494	0.00616059	0.0737073	4.79448	4.55474e+06	5.43037e+07	5.44943e+07	-85.2055	0.0000000E+000	0.0000000E+000	0.0000000E+000	85.2055	0.0000000E+000	0.0000000E+000	0.0000000E+000	-85.2055	0.0000000E+000	0.0000000E+000	0.0000000E+000	-4.79448	0.0000000E+000	0.0000000E+000	0.0000000E+000	4.79448	11.9225	85.2055	-4.49642e-05	7.57152e-08	1.0341e+06
0.0999041	13.924	1.83144	14.0439	-7.49317	79.8733	0.279812	-0.00325436	869850	14792.9	1	11	0.00481116	0.00034258	0	6.43761e-06	0.0705972	0.00928574	0.0712053	7.49317	1.47929e+07	1.12467e+08	1.13435e+08	-82.5068	0.0000000E+000	0.0000000E+000	0.0000000E+000	82.5068	0.0000000E+000	0.0000000E+000	0.0000000E+000	-82.5068	0.0000000E+000	0.0000000E+000	0.0000000E+000	-7.49317	0.0000000E+000	0.0000000E+000	0.0000000E+000	7.49317	7.60275	82.5068	-1.9651e-05	-9.10609e-07	85980.6
0.0464052	14.47	3.14696	14.8082	-12.2697	156.11	0.279815	-0.00147842	1.08984e+06	49219.7	1	11	0.0048115	0.000324921	0	0.000217085	0.0659876	0.0143511	0.0675301	12.2697	4.92197e+07	2.26316e+08	2.31607e+08	-77.7303	0.0000000E+000	0.0000000E+000	0.0000000E+000	77.7303	0.0000000E+000	0.0000000E+000	0.0000000E+000	-77.7303	0.0000000E+000	0.0000000E+000	0.0000000E+000	-12.2697	0.0000000E+000	0.0000000E+000	0.0000000E+000	12.2697	4.59808	77.7303	0.000169246	-4.13683e-07	189267
0.0215268	15.5935	5.58199	16.5625	-19.6958	366.894	0.279811	0.000326678	1.3245e+06	150446	1	12	0.00481042	0.000290441	0	0.000703324	0.0568451	0.0203488	0.0603774	19.6958	1.50446e+08	4.20275e+08	4.46391e+08	-70.3042	0.0000000E+000	0.0000000E+000	0.0000000E+000	70.3042	0.0000000E+000	0.0000000E+000	0.0000000E+000	-70.3042	0.0000000E+000	0.0000000E+000	0.0000000E+000	-19.6958	0.0000000E+000	0.0000000E+000	0.0000000E+000	19.6958	2.79354	70.3042	0.000216509	9.1408e-08	856535
0.0100092	17.5246	9.83835	20.0974	-29.31	720.111	0.279807	0.000720035	1.61622e+06	387317	1	12	0.00481237	0.000239453	0	4.70028e-05	0.043388	0.0243582	0.0497578	29.31	3.87317e+08	6.89909e+08	7.91194e+08	-60.69	0.0000000E+000	0.0000000E+000	0.0000000E+000	60.69	0.0000000E+000	0.0000000E+000	0.0000000E+000	-60.69	0.0000000E+000	0.0000000E+000	0.0000000E+000	-29.31	0.0000000E+000	0.0000000E+000	0.0000000E+000	29.31	1.78125	60.69	-0.000555709	2.01471e-07	388602

File: 17154_R270_UA618_SOC00_C02.mpt
EC-Lab ASCII FILE
Nb header lines : 63

Potentio Electrochemical Impedance Spectroscopy

Run on channel : 2 (SN 66139)
User :
CE vs. WE compliance from -10 V to 10 V
Electrode connection : standard
Potential control : Ewe
Ewe ctrl range : min = -10.00 V, max = 10.00 V
Safety Limits :
	Do not start on E overload
Acquisition started on : 09/04/2025 09:44:15.486
Loaded Setting File :  C:\Users\Celltest\OneDrive - store-dot.com\Documents\EC-Lab\Data\Gyutae\R270\17153_C01.mpr
Saved on :
	File : 17154_C02.mpr
	Directory : C:\Users\Celltest\OneDrive - store-dot.com\Documents\EC-Lab\Data\Gyutae\R270\
	Host : 169.254.61.224
Device : VMP-3e (SN .003165)
Address : USB
EC-LAB for windows v11.62 (software)
Internet server v27.00 (firmware)
Command interpretor v12.03 (firmware)
Electrode material :
Initial state :
Electrolyte :
Comments :
Electrode surface area : 0.001 cm²
Characteristic mass : 0.001 g
Equivalent Weight : 0.000 g/eq.
Density : 0.000 g/cm3
Volume (V) : 0.001 cm³
Cycle Definition : Charge/Discharge alternance
Mode                Single sine
E (V)               0.0000
vs.                 Eoc
tE (h:m:s)          0:00:0.0000
record              0
dI                  0.000
unit dI             mA
dt (s)              0.000
fi                  100.000
unit fi             kHz
ff                  10.000
unit ff             mHz
Nd                  6
Points              per decade
spacing             Logarithmic
Va (mV)             5.0
pw                  0.10
Na                  2
corr                0
E range min (V)     -10.000
E range max (V)     10.000
I Range             Auto
Bandwidth           5
nc cycles           0
goto Ns'            0
nr cycles           0
inc. cycle          0

freq/Hz	Re(Z)/Ohm	-Im(Z)/Ohm	|Z|/Ohm	Phase(Z)/deg	time/s	<Ewe>/V	<I>/mA	Cs/µF	Cp/µF	cycle number	I Range	|Ewe|/V	|I|/A	Ns	(Q-Qo)/mA.h	Re(Y)/Ohm-1	Im(Y)/Ohm-1	|Y|/Ohm-1	Phase(Y)/deg	Re(C)/nF	Im(C)/nF	|C|/nF	Phase(C)/deg	Re(M)	Im(M)	|M|	Phase(M)/deg	Re(Permittivity)	Im(Permittivity)	|Permittivity|	Phase(Permittivity)/deg	Re(Resistivity)/Ohm.cm	Im(Resistivity)/Ohm.cm	|Resistivity|/Ohm.cm	Phase(Resistivity)/deg	Re(Conductivity)/mS/cm	Im(Conductivity)/mS/cm	|Conductivity|/mS/cm	Phase(Conductivity)/deg	Tan(Delta)	Loss Angle(Delta)/deg	dq/mA.h	Pwe/W	Rwe/Ohm
100004	1.73252	0.467731	1.79455	-15.1081	1.86448	0.299842	-0.0307442	3.40258	0.231148	1	9	0.00462918	0.00257958	0	-1.32981e-05	0.537983	0.14524	0.557244	15.1081	231.148	856.196	886.849	-74.8919	0.0000000E+000	0.0000000E+000	0.0000000E+000	74.8919	0.0000000E+000	0.0000000E+000	0.0000000E+000	-74.8919	0.0000000E+000	0.0000000E+000	0.0000000E+000	-15.1081	0.0000000E+000	0.0000000E+000	0.0000000E+000	15.1081	3.70409	74.8919	-1.32981e-05	-9.2184e-06	9752.79
46420.4	1.97526	0.603128	2.06529	-16.9796	3.0205	0.299836	-0.0309677	5.68463	0.484798	1	9	0.00506072	0.00245037	0	-2.53874e-05	0.463088	0.1414	0.484194	16.9796	484.798	1587.72	1660.09	-73.0204	0.0000000E+000	0.0000000E+000	0.0000000E+000	73.0204	0.0000000E+000	0.0000000E+000	0.0000000E+000	-73.0204	0.0000000E+000	0.0000000E+000	0.0000000E+000	-16.9796	0.0000000E+000	0.0000000E+000	0.0000000E+000	16.9796	3.27502	73.0204	-1.00331e-05	-9.28524e-06	9682.24
21544.7	2.28511	0.786282	2.4166	-18.9878	3.89448	0.299836	-0.0283977	9.39511	0.994599	1	9	0.00528997	0.00218901	0	-3.17221e-05	0.391288	0.134638	0.413804	18.9878	994.599	2890.53	3056.86	-71.0122	0.0000000E+000	0.0000000E+000	0.0000000E+000	71.0122	0.0000000E+000	0.0000000E+000	0.0000000E+000	-71.0122	0.0000000E+000	0.0000000E+000	0.0000000E+000	-18.9878	0.0000000E+000	0.0000000E+000	0.0000000E+000	18.9878	2.90622	71.0122	-3.36608e-06	-8.51466e-06	10558.5
10002.2	2.67866	1.00898	2.86239	-20.6401	4.62849	0.299839	-0.0261257	15.7703	1.95952	1	9	0.00506703	0.00177021	0	-4.06649e-05	0.326934	0.123148	0.349359	20.6401	1959.52	5202.16	5558.98	-69.3599	0.0000000E+000	0.0000000E+000	0.0000000E+000	69.3599	0.0000000E+000	0.0000000E+000	0.0000000E+000	-69.3599	0.0000000E+000	0.0000000E+000	0.0000000E+000	-20.6401	0.0000000E+000	0.0000000E+000	0.0000000E+000	20.6401	2.65481	69.3599	-2.98669e-06	-7.83351e-06	11476.8
4641.49	3.18831	1.30213	3.44396	-22.2155	5.47768	0.299871	0.00607334	26.3335	3.76445	1	9	0.00486315	0.00141208	0	-4.20505e-05	0.268809	0.109784	0.290363	22.2155	3764.45	9217.38	9956.46	-67.7845	0.0000000E+000	0.0000000E+000	0.0000000E+000	67.7845	0.0000000E+000	0.0000000E+000	0.0000000E+000	-67.7845	0.0000000E+000	0.0000000E+000	0.0000000E+000	-22.2155	0.0000000E+000	0.0000000E+000	0.0000000E+000	22.2155	2.44853	67.7845	1.05764e-06	1.82122e-06	49375
2155.69	3.83729	1.6716	4.18558	-23.5389	6.66571	0.299857	-0.0234798	44.1674	7.04458	1	10	0.00486731	0.00116288	0	-4.89891e-05	0.219035	0.095416	0.238916	23.5389	7044.58	16171.4	17639.2	-66.4611	0.0000000E+000	0.0000000E+000	0.0000000E+000	66.4611	0.0000000E+000	0.0000000E+000	0.0000000E+000	-66.4611	0.0000000E+000	0.0000000E+000	0.0000000E+000	-23.5389	0.0000000E+000	0.0000000E+000	0.0000000E+000	23.5389	2.29558	66.4611	-3.73233e-06	-7.04058e-06	12770.8
1000.32	4.70529	2.15425	5.17499	-24.6	7.60171	0.299854	-0.023463	73.856	12.7985	1	10	0.00475875	0.000919568	0	-5.47903e-05	0.175698	0.0804409	0.193237	24.6	12798.5	27954.3	30744.8	-65.4	0.0000000E+000	0.0000000E+000	0.0000000E+000	65.4	0.0000000E+000	0.0000000E+000	0.0000000E+000	-65.4	0.0000000E+000	0.0000000E+000	0.0000000E+000	-24.6	0.0000000E+000	0.0000000E+000	0.0000000E+000	24.6	2.18419	65.4	-3.19044e-06	-7.03548e-06	12779.8
463.961	5.85846	2.74715	6.47058	-25.1228	8.53621	0.299851	-0.0221723	124.869	22.5079	1	10	0.00470547	0.00072721	0	-6.0373e-05	0.139926	0.065614	0.154546	25.1228	22507.9	47999.4	53014.6	-64.8772	0.0000000E+000	0.0000000E+000	0.0000000E+000	64.8772	0.0000000E+000	0.0000000E+000	0.0000000E+000	-64.8772	0.0000000E+000	0.0000000E+000	0.0000000E+000	-25.1228	0.0000000E+000	0.0000000E+000	0.0000000E+000	25.1228	2.13256	64.8772	-3.13963e-06	-6.64838e-06	13523.7
215.345	7.40002	3.40117	8.14422	-24.6843	9.47043	0.299846	-0.0221853	217.299	37.898	1	10	0.00468113	0.00057478	0	-6.61492e-05	0.111567	0.0512778	0.122787	24.6843	37898	82455.7	90748	-65.3157	0.0000000E+000	0.0000000E+000	0.0000000E+000	65.3157	0.0000000E+000	0.0000000E+000	0.0000000E+000	-65.3157	0.0000000E+000	0.0000000E+000	0.0000000E+000	-24.6843	0.0000000E+000	0.0000000E+000	0.0000000E+000	24.6843	2.17573	65.3157	-2.61215e-06	-6.65217e-06	13515.5
100.032	9.37798	3.88196	10.1497	-22.4868	10.4017	0.299854	-0.0214309	409.855	59.9552	1	10	0.00466979	0.000460092	0	-7.12332e-05	0.0910341	0.037683	0.0985252	22.4868	59955.2	144839	156758	-67.5132	0.0000000E+000	0.0000000E+000	0.0000000E+000	67.5132	0.0000000E+000	0.0000000E+000	0.0000000E+000	-67.5132	0.0000000E+000	0.0000000E+000	0.0000000E+000	-22.4868	0.0000000E+000	0.0000000E+000	0.0000000E+000	22.4868	2.41579	67.5132	-2.52489e-06	-6.42616e-06	13991.6
46.4415	11.6359	3.92043	12.2786	-18.62	11.3345	0.299848	-0.0234426	874.137	89.115	1	10	0.00466385	0.000379836	0	-7.60387e-05	0.0771796	0.0260038	0.0814426	18.62	89115	264494	279103	-71.38	0.0000000E+000	0.0000000E+000	0.0000000E+000	71.38	0.0000000E+000	0.0000000E+000	0.0000000E+000	-71.38	0.0000000E+000	0.0000000E+000	0.0000000E+000	-18.62	0.0000000E+000	0.0000000E+000	0.0000000E+000	18.62	2.96801	71.38	-2.49875e-06	-7.0292e-06	12790.7
[...]
1.00006	17.576	1.13357	17.6125	-3.69022	20.6762	0.2999	-0.0111199	140392	581.569	1	12	0.0046684	0.000265062	0	-0.000112544	0.0566602	0.00365434	0.0567779	3.69022	581568	9.01718e+06	9.03591e+06	-86.3098	0.0000000E+000	0.0000000E+000	0.0000000E+000	86.3098	0.0000000E+000	0.0000000E+000	0.0000000E+000	-86.3098	0.0000000E+000	0.0000000E+000	0.0000000E+000	-3.69022	0.0000000E+000	0.0000000E+000	0.0000000E+000	3.69022	15.5049	86.3098	-1.57416e-05	-3.33485e-06	26969.8
0.464091	17.8963	1.06819	17.9281	-3.41582	28.361	0.299896	-0.0101227	321047	1139.72	1	12	0.0046666	0.000260295	0	-0.000158898	0.0556792	0.00332338	0.0557783	3.41582	1.13972e+06	1.90946e+07	1.91286e+07	-86.5842	0.0000000E+000	0.0000000E+000	0.0000000E+000	86.5842	0.0000000E+000	0.0000000E+000	0.0000000E+000	-86.5842	0.0000000E+000	0.0000000E+000	0.0000000E+000	-3.41582	0.0000000E+000	0.0000000E+000	0.0000000E+000	3.41582	16.7538	86.5842	-2.49633e-05	-3.03575e-06	29626.1
0.215268	18.1949	1.43641	18.2515	-4.51389	44.8409	0.299896	-0.00973133	514710	3188.02	1	12	0.00466907	0.000255818	0	-0.000183207	0.05462	0.00431201	0.0547899	4.51389	3.18802e+06	4.03824e+07	4.05081e+07	-85.4861	0.0000000E+000	0.0000000E+000	0.0000000E+000	85.4861	0.0000000E+000	0.0000000E+000	0.0000000E+000	-85.4861	0.0000000E+000	0.0000000E+000	0.0000000E+000	-4.51389	0.0000000E+000	0.0000000E+000	0.0000000E+000	4.51389	12.6669	85.4861	-4.91554e-06	-2.91839e-06	30817.6
0.0999041	18.6227	2.21473	18.7539	-6.78213	80.2476	0.29989	-0.00522558	719310	10031.7	1	12	0.00466791	0.000248904	0	-0.000139718	0.0529491	0.00629705	0.0533222	6.78213	1.00317e+07	8.4352e+07	8.49464e+07	-83.2179	0.0000000E+000	0.0000000E+000	0.0000000E+000	83.2179	0.0000000E+000	0.0000000E+000	0.0000000E+000	-83.2179	0.0000000E+000	0.0000000E+000	0.0000000E+000	-6.78213	0.0000000E+000	0.0000000E+000	0.0000000E+000	6.78213	8.40856	83.2179	2.84373e-05	-1.5671e-06	57388.8
0.0464052	19.4796	3.86888	19.8601	-11.2334	156.483	0.299885	-0.000827708	886480	33641.5	1	12	0.00466906	0.000235098	0	-0.000165208	0.0493876	0.00980894	0.0503522	11.2334	3.36415e+07	1.69383e+08	1.72692e+08	-78.7666	0.0000000E+000	0.0000000E+000	0.0000000E+000	78.7666	0.0000000E+000	0.0000000E+000	0.0000000E+000	-78.7666	0.0000000E+000	0.0000000E+000	0.0000000E+000	-11.2334	0.0000000E+000	0.0000000E+000	0.0000000E+000	11.2334	5.03496	78.7666	-4.37045e-05	-2.48217e-07	362308
0.0215268	20.7813	6.55745	21.7913	-17.5129	320.713	0.299885	-0.000957471	1.12747e+06	102096	1	12	0.00466944	0.00021428	0	-0.000653011	0.0437628	0.0138092	0.0458898	17.5129	1.02096e+08	3.23553e+08	3.39279e+08	-72.4871	0.0000000E+000	0.0000000E+000	0.0000000E+000	72.4871	0.0000000E+000	0.0000000E+000	0.0000000E+000	-72.4871	0.0000000E+000	0.0000000E+000	0.0000000E+000	-17.5129	0.0000000E+000	0.0000000E+000	0.0000000E+000	17.5129	3.16911	72.4871	-0.000315539	-2.87131e-07	313205
0.0100092	23.2609	11.6719	26.025	-26.6466	673.931	0.299885	-0.00132368	1.36233e+06	274018	1	12	0.00466859	0.000179389	0	-0.00113643	0.0343435	0.0172329	0.0384246	26.6466	2.74018e+08	5.46093e+08	6.10986e+08	-63.3534	0.0000000E+000	0.0000000E+000	0.0000000E+000	63.3534	0.0000000E+000	0.0000000E+000	0.0000000E+000	-63.3534	0.0000000E+000	0.0000000E+000	0.0000000E+000	-26.6466	0.0000000E+000	0.0000000E+000	0.0000000E+000	26.6466	1.99291	63.3534	-0.000137882	-3.96953e-07	226553