Folder: EIS/txt (part 19)

File: 17399_R279_UA651_SOC00_C05.mpt
EC-Lab ASCII FILE
Nb header lines : 63

Potentio Electrochemical Impedance Spectroscopy

Run on channel : 5 (SN 65912)
User :
CE vs. WE compliance from -10 V to 10 V
Electrode connection : standard
Potential control : Ewe
Ewe ctrl range : min = -10.00 V, max = 10.00 V
Safety Limits :
	Do not start on E overload
Acquisition started on : 09/11/2025 15:38:49.585
Loaded Setting File :  C:\Users\Celltest\OneDrive - store-dot.com\Documents\EC-Lab\Data\Charmaine\R279\17382_C01.mpr
Saved on :
	File : 17399_C05.mpr
	Directory : C:\Users\Celltest\OneDrive - store-dot.com\Documents\EC-Lab\Data\Charmaine\R279\
	Host : 169.254.61.224
Device : VMP-3e (SN .003165)
Address : USB
EC-LAB for windows v11.62 (software)
Internet server v27.00 (firmware)
Command interpretor v12.03 (firmware)
Electrode material :
Initial state :
Electrolyte :
Comments :
Electrode surface area : 0.001 cm²
Characteristic mass : 0.001 g
Equivalent Weight : 0.000 g/eq.
Density : 0.000 g/cm3
Volume (V) : 0.001 cm³
Cycle Definition : Charge/Discharge alternance
Mode                Single sine
E (V)               0.0000
vs.                 Eoc
tE (h:m:s)          0:00:0.0000
record              0
dI                  0.000
unit dI             mA
dt (s)              0.000
fi                  100.000
unit fi             kHz
ff                  10.000
unit ff             mHz
Nd                  6
Points              per decade
spacing             Logarithmic
Va (mV)             5.0
pw                  0.10
Na                  2
corr                0
E range min (V)     -10.000
E range max (V)     10.000
I Range             Auto
Bandwidth           5
nc cycles           0
goto Ns'            0
nr cycles           0
inc. cycle          0

freq/Hz	Re(Z)/Ohm	-Im(Z)/Ohm	|Z|/Ohm	Phase(Z)/deg	time/s	<Ewe>/V	<I>/mA	Cs/µF	Cp/µF	cycle number	I Range	|Ewe|/V	|I|/A	Ns	(Q-Qo)/mA.h	Re(Y)/Ohm-1	Im(Y)/Ohm-1	|Y|/Ohm-1	Phase(Y)/deg	Re(C)/nF	Im(C)/nF	|C|/nF	Phase(C)/deg	Re(M)	Im(M)	|M|	Phase(M)/deg	Re(Permittivity)	Im(Permittivity)	|Permittivity|	Phase(Permittivity)/deg	Re(Resistivity)/Ohm.cm	Im(Resistivity)/Ohm.cm	|Resistivity|/Ohm.cm	Phase(Resistivity)/deg	Re(Conductivity)/mS/cm	Im(Conductivity)/mS/cm	|Conductivity|/mS/cm	Phase(Conductivity)/deg	Tan(Delta)	Loss Angle(Delta)/deg	dq/mA.h	Pwe/W	Rwe/Ohm
100004	3.27655	1.17687	3.48149	-19.7573	2.0255	0.234831	-0.0352963	1.3523	0.154526	1	10	0.00496624	0.00142647	0	-4.56155e-06	0.270325	0.0970954	0.287233	19.7573	154.526	430.219	457.129	-70.2427	0.0000000E+000	0.0000000E+000	0.0000000E+000	70.2427	0.0000000E+000	0.0000000E+000	0.0000000E+000	-70.2427	0.0000000E+000	0.0000000E+000	0.0000000E+000	-19.7573	0.0000000E+000	0.0000000E+000	0.0000000E+000	19.7573	2.78411	70.2427	-4.56155e-06	-8.28869e-06	6653.14
46420.4	3.87238	1.28847	4.08111	-18.404	2.89948	0.234816	-0.0366535	2.66096	0.265233	1	10	0.00536323	0.00131416	0	-1.44252e-05	0.232499	0.07736	0.245031	18.404	265.233	797.137	840.105	-71.596	0.0000000E+000	0.0000000E+000	0.0000000E+000	71.596	0.0000000E+000	0.0000000E+000	0.0000000E+000	-71.596	0.0000000E+000	0.0000000E+000	0.0000000E+000	-18.404	0.0000000E+000	0.0000000E+000	0.0000000E+000	18.404	3.00542	71.596	-3.84863e-06	-8.60682e-06	6406.36
21544.7	4.50065	1.41774	4.71867	-17.4848	3.77349	0.234819	-0.0338777	5.21056	0.470367	1	10	0.00521678	0.00110556	0	-2.04688e-05	0.202133	0.0636732	0.211924	17.4848	470.367	1493.19	1565.53	-72.5152	0.0000000E+000	0.0000000E+000	0.0000000E+000	72.5152	0.0000000E+000	0.0000000E+000	0.0000000E+000	-72.5152	0.0000000E+000	0.0000000E+000	0.0000000E+000	-17.4848	0.0000000E+000	0.0000000E+000	0.0000000E+000	17.4848	3.17453	72.5152	-4.1324e-06	-7.95515e-06	6931.38
10002.2	5.16538	1.60866	5.41007	-17.2982	4.64749	0.234819	-0.0345591	9.89143	0.874544	1	10	0.0050765	0.000938342	0	-2.98498e-05	0.17648	0.0549614	0.18484	17.2982	874.544	2808.14	2941.17	-72.7018	0.0000000E+000	0.0000000E+000	0.0000000E+000	72.7018	0.0000000E+000	0.0000000E+000	0.0000000E+000	-72.7018	0.0000000E+000	0.0000000E+000	0.0000000E+000	-17.2982	0.0000000E+000	0.0000000E+000	0.0000000E+000	17.2982	3.21098	72.7018	-4.54522e-06	-8.11512e-06	6794.69
4641.49	5.93043	1.91711	6.2326	-17.9143	5.49669	0.234905	-0.0036548	17.8862	1.69228	1	10	0.00527782	0.000846808	0	-3.14055e-05	0.152668	0.0493523	0.160447	17.9143	1692.27	5234.93	5501.66	-72.0857	0.0000000E+000	0.0000000E+000	0.0000000E+000	72.0857	0.0000000E+000	0.0000000E+000	0.0000000E+000	-72.0857	0.0000000E+000	0.0000000E+000	0.0000000E+000	-17.9143	0.0000000E+000	0.0000000E+000	0.0000000E+000	17.9143	3.09343	72.0857	-8.87883e-08	-8.58529e-07	64273
2155.69	6.85549	2.40381	7.26471	-19.3227	6.42966	0.234908	-0.0035096	30.7138	3.36277	1	10	0.00522433	0.000719137	0	-3.24501e-05	0.129898	0.0455473	0.137652	19.3227	3362.77	9590.37	10162.8	-70.6773	0.0000000E+000	0.0000000E+000	0.0000000E+000	70.6773	0.0000000E+000	0.0000000E+000	0.0000000E+000	-70.6773	0.0000000E+000	0.0000000E+000	0.0000000E+000	-19.3227	0.0000000E+000	0.0000000E+000	0.0000000E+000	19.3227	2.85193	70.6773	-6.03188e-07	-8.24432e-07	66933.1
1000.32	8.01234	3.11006	8.59477	-21.2142	7.36568	0.234905	-0.0035096	51.1578	6.69856	1	10	0.00516618	0.000601084	0	-3.31115e-05	0.108465	0.0421018	0.11635	21.2142	6698.56	17257.3	18511.7	-68.7858	0.0000000E+000	0.0000000E+000	0.0000000E+000	68.7858	0.0000000E+000	0.0000000E+000	0.0000000E+000	-68.7858	0.0000000E+000	0.0000000E+000	0.0000000E+000	-21.2142	0.0000000E+000	0.0000000E+000	0.0000000E+000	21.2142	2.57626	68.7858	-4.978e-07	-8.24424e-07	66932.3
463.961	9.62692	4.11692	10.4703	-23.1538	8.30018	0.234909	-0.0030479	83.3234	12.8824	1	10	0.00513982	0.000490896	0	-3.38656e-05	0.0878156	0.037554	0.0955085	23.1538	12882.4	30123.9	32762.8	-66.8462	0.0000000E+000	0.0000000E+000	0.0000000E+000	66.8462	0.0000000E+000	0.0000000E+000	0.0000000E+000	-66.8462	0.0000000E+000	0.0000000E+000	0.0000000E+000	-23.1538	0.0000000E+000	0.0000000E+000	0.0000000E+000	23.1538	2.33838	66.8462	-6.73396e-07	-7.15979e-07	77072.6
215.345	12.0129	5.27315	13.1193	-23.6994	9.23443	0.234903	-0.00269418	140.157	22.643	1	10	0.00512843	0.000390906	0	-3.46815e-05	0.0697953	0.0306371	0.0762234	23.6994	22643	51583.7	56334.5	-66.3006	0.0000000E+000	0.0000000E+000	0.0000000E+000	66.3006	0.0000000E+000	0.0000000E+000	0.0000000E+000	-66.3006	0.0000000E+000	0.0000000E+000	0.0000000E+000	-23.6994	0.0000000E+000	0.0000000E+000	0.0000000E+000	23.6994	2.27813	66.3006	-1.71094e-07	-6.32869e-07	87189.1
100.032	15.2718	6.10475	16.4468	-21.7886	10.1657	0.234904	-0.0033495	260.623	35.9077	1	10	0.00512599	0.000311672	0	-3.54377e-05	0.0564585	0.0225687	0.0608022	21.7886	35907.8	89827.8	96738.8	-68.2114	0.0000000E+000	0.0000000E+000	0.0000000E+000	68.2114	0.0000000E+000	0.0000000E+000	0.0000000E+000	-68.2114	0.0000000E+000	0.0000000E+000	0.0000000E+000	-21.7886	0.0000000E+000	0.0000000E+000	0.0000000E+000	21.7886	2.50163	68.2114	-3.98086e-07	-7.86811e-07	70131.1
46.4415	18.9701	5.87954	19.8604	-17.2201	11.3475	0.234901	-0.00697674	582.868	51.0836	1	11	0.0051238	0.000257991	0	-3.69078e-05	0.0480944	0.0149062	0.0503515	17.2201	51083.6	164819	172554	-72.7799	0.0000000E+000	0.0000000E+000	0.0000000E+000	72.7799	0.0000000E+000	0.0000000E+000	0.0000000E+000	-72.7799	0.0000000E+000	0.0000000E+000	0.0000000E+000	-17.2201	0.0000000E+000	0.0000000E+000	0.0000000E+000	17.2201	3.22647	72.7799	-1.16634e-06	-1.63884e-06	33669.1
[...]
1.00006	26.1082	2.2799	26.2075	-4.9907	20.4291	0.234923	-0.00437427	69803.5	528.27	1	12	0.0051229	0.000195475	0	-4.45269e-05	0.0380123	0.00331943	0.038157	4.9907	528270	6.04946e+06	6.07248e+06	-85.0093	0.0000000E+000	0.0000000E+000	0.0000000E+000	85.0093	0.0000000E+000	0.0000000E+000	0.0000000E+000	-85.0093	0.0000000E+000	0.0000000E+000	0.0000000E+000	-4.9907	0.0000000E+000	0.0000000E+000	0.0000000E+000	4.9907	11.4515	85.0093	3.57513e-06	-1.02762e-06	53705.6
0.464091	27.2117	2.56557	27.3324	-5.38602	28.1138	0.234922	-0.00315173	133670	1177.73	1	12	0.00512226	0.000187406	0	-4.87596e-05	0.0364251	0.00343422	0.0365866	5.38602	1.17773e+06	1.24916e+07	1.2547e+07	-84.614	0.0000000E+000	0.0000000E+000	0.0000000E+000	84.614	0.0000000E+000	0.0000000E+000	0.0000000E+000	-84.614	0.0000000E+000	0.0000000E+000	0.0000000E+000	-5.38602	0.0000000E+000	0.0000000E+000	0.0000000E+000	5.38602	10.6065	84.614	-6.31007e-06	-7.4041e-07	74537.3
0.215268	28.3635	3.02668	28.5245	-6.09101	44.5929	0.234918	-0.00243863	244272	2750.24	1	12	0.00512328	0.00017961	0	-9.84934e-05	0.0348596	0.00371989	0.0350575	6.09101	2.75024e+06	2.57729e+07	2.59193e+07	-83.909	0.0000000E+000	0.0000000E+000	0.0000000E+000	83.909	0.0000000E+000	0.0000000E+000	0.0000000E+000	-83.909	0.0000000E+000	0.0000000E+000	0.0000000E+000	-6.09101	0.0000000E+000	0.0000000E+000	0.0000000E+000	6.09101	9.37115	83.909	-3.10024e-05	-5.72878e-07	96331.9
0.0999041	29.8637	3.91108	30.1188	-7.46122	79.9995	0.234923	-0.00300041	407324	6868.45	1	12	0.00512326	0.000170102	0	-0.000156582	0.0329208	0.00431144	0.0332019	7.46122	6.86846e+06	5.24453e+07	5.28932e+07	-82.5388	0.0000000E+000	0.0000000E+000	0.0000000E+000	82.5388	0.0000000E+000	0.0000000E+000	0.0000000E+000	-82.5388	0.0000000E+000	0.0000000E+000	0.0000000E+000	-7.46122	0.0000000E+000	0.0000000E+000	0.0000000E+000	7.46122	7.63568	82.5388	-2.34261e-05	-7.04863e-07	78296.9
0.0464052	31.3643	5.31438	31.8113	-9.6169	156.236	0.234924	-0.00241965	645358	18011.2	1	12	0.00512357	0.000161061	0	-9.89984e-05	0.0309936	0.00525158	0.0314354	9.6169	1.80112e+07	1.06298e+08	1.07813e+08	-80.3831	0.0000000E+000	0.0000000E+000	0.0000000E+000	80.3831	0.0000000E+000	0.0000000E+000	0.0000000E+000	-80.3831	0.0000000E+000	0.0000000E+000	0.0000000E+000	-9.6169	0.0000000E+000	0.0000000E+000	0.0000000E+000	9.6169	5.90177	80.3831	5.62249e-05	-5.68434e-07	97090.2
0.0215268	33.3369	7.94507	34.2706	-13.405	320.464	0.234919	3.9593e-05	930557	50014.5	1	12	0.00512238	0.000149469	0	0.000129356	0.0283846	0.0067648	0.0291796	13.405	5.00145e+07	2.09857e+08	2.15734e+08	-76.595	0.0000000E+000	0.0000000E+000	0.0000000E+000	76.595	0.0000000E+000	0.0000000E+000	0.0000000E+000	-76.595	0.0000000E+000	0.0000000E+000	0.0000000E+000	-13.405	0.0000000E+000	0.0000000E+000	0.0000000E+000	13.405	4.19592	76.595	0.000118774	9.30114e-09	5.93333e+06
0.0100092	35.8854	13.5102	38.3444	-20.6304	673.68	0.234925	0.000527357	1.17696e+06	146110	1	12	0.00512332	0.000133613	0	-6.93997e-05	0.024407	0.00918879	0.0260794	20.6304	1.4611e+08	3.88094e+08	4.14687e+08	-69.3696	0.0000000E+000	0.0000000E+000	0.0000000E+000	69.3696	0.0000000E+000	0.0000000E+000	0.0000000E+000	-69.3696	0.0000000E+000	0.0000000E+000	0.0000000E+000	-20.6304	0.0000000E+000	0.0000000E+000	0.0000000E+000	20.6304	2.65617	69.3696	-0.000217708	1.23889e-07	445476

File: 17400_R279_UA651_SOC00_C06.mpt
EC-Lab ASCII FILE
Nb header lines : 63

Potentio Electrochemical Impedance Spectroscopy

Run on channel : 6 (SN 65795)
User :
CE vs. WE compliance from -10 V to 10 V
Electrode connection : standard
Potential control : Ewe
Ewe ctrl range : min = -10.00 V, max = 10.00 V
Safety Limits :
	Do not start on E overload
Acquisition started on : 09/11/2025 15:38:54.924
Loaded Setting File :  C:\Users\Celltest\OneDrive - store-dot.com\Documents\EC-Lab\Data\Charmaine\R279\17383.mps
Saved on :
	File : 17400_C06.mpr
	Directory : C:\Users\Celltest\OneDrive - store-dot.com\Documents\EC-Lab\Data\Charmaine\R279\
	Host : 169.254.61.224
Device : VMP-3e (SN .003165)
Address : USB
EC-LAB for windows v11.62 (software)
Internet server v27.00 (firmware)
Command interpretor v12.03 (firmware)
Electrode material :
Initial state :
Electrolyte :
Comments :
Electrode surface area : 0.001 cm²
Characteristic mass : 0.001 g
Equivalent Weight : 0.000 g/eq.
Density : 0.000 g/cm3
Volume (V) : 0.001 cm³
Cycle Definition : Charge/Discharge alternance
Mode                Single sine
E (V)               0.0000
vs.                 Eoc
tE (h:m:s)          0:00:0.0000
record              0
dI                  0.000
unit dI             mA
dt (s)              0.000
fi                  100.000
unit fi             kHz
ff                  10.000
unit ff             mHz
Nd                  6
Points              per decade
spacing             Logarithmic
Va (mV)             5.0
pw                  0.10
Na                  2
corr                0
E range min (V)     -10.000
E range max (V)     10.000
I Range             Auto
Bandwidth           5
nc cycles           0
goto Ns'            0
nr cycles           0
inc. cycle          0

freq/Hz	Re(Z)/Ohm	-Im(Z)/Ohm	|Z|/Ohm	Phase(Z)/deg	time/s	<Ewe>/V	<I>/mA	Cs/µF	Cp/µF	cycle number	I Range	|Ewe|/V	|I|/A	Ns	(Q-Qo)/mA.h	Re(Y)/Ohm-1	Im(Y)/Ohm-1	|Y|/Ohm-1	Phase(Y)/deg	Re(C)/nF	Im(C)/nF	|C|/nF	Phase(C)/deg	Re(M)	Im(M)	|M|	Phase(M)/deg	Re(Permittivity)	Im(Permittivity)	|Permittivity|	Phase(Permittivity)/deg	Re(Resistivity)/Ohm.cm	Im(Resistivity)/Ohm.cm	|Resistivity|/Ohm.cm	Phase(Resistivity)/deg	Re(Conductivity)/mS/cm	Im(Conductivity)/mS/cm	|Conductivity|/mS/cm	Phase(Conductivity)/deg	Tan(Delta)	Loss Angle(Delta)/deg	dq/mA.h	Pwe/W	Rwe/Ohm
100004	2.58529	0.800359	2.70634	-17.2016	2.37549	0.243713	-0.0365304	1.98847	0.173909	1	9	0.00454379	0.00167894	0	-8.64529e-06	0.352974	0.109275	0.369502	17.2016	173.909	561.755	588.059	-72.7984	0.0000000E+000	0.0000000E+000	0.0000000E+000	72.7984	0.0000000E+000	0.0000000E+000	0.0000000E+000	-72.7984	0.0000000E+000	0.0000000E+000	0.0000000E+000	-17.2016	0.0000000E+000	0.0000000E+000	0.0000000E+000	17.2016	3.23016	72.7984	-8.64529e-06	-8.90294e-06	6671.5
46420.4	2.99261	0.900121	3.12505	-16.7403	3.53147	0.243701	-0.0430306	3.809	0.316009	1	9	0.00516493	0.00165276	0	-1.50309e-05	0.306434	0.0921697	0.319995	16.7403	316.009	1050.63	1097.12	-73.2597	0.0000000E+000	0.0000000E+000	0.0000000E+000	73.2597	0.0000000E+000	0.0000000E+000	0.0000000E+000	-73.2597	0.0000000E+000	0.0000000E+000	0.0000000E+000	-16.7403	0.0000000E+000	0.0000000E+000	0.0000000E+000	16.7403	3.32467	73.2597	-4.07311e-06	-1.04866e-05	5663.45
21544.7	3.41828	1.07213	3.58247	-17.4137	4.40648	0.24371	-0.0393614	6.89024	0.617106	1	9	0.00503229	0.0014047	0	-2.26268e-05	0.266344	0.0835372	0.279137	17.4137	617.106	1967.53	2062.04	-72.5863	0.0000000E+000	0.0000000E+000	0.0000000E+000	72.5863	0.0000000E+000	0.0000000E+000	0.0000000E+000	-72.5863	0.0000000E+000	0.0000000E+000	0.0000000E+000	-17.4137	0.0000000E+000	0.0000000E+000	0.0000000E+000	17.4137	3.18832	72.5863	-2.74476e-06	-9.59277e-06	6191.59
10002.2	3.93201	1.33615	4.15283	-18.7685	5.14048	0.243708	-0.0429561	11.9088	1.2328	1	9	0.00482334	0.00116146	0	-2.96089e-05	0.227996	0.0774762	0.2408	18.7685	1232.8	3627.86	3831.6	-71.2315	0.0000000E+000	0.0000000E+000	0.0000000E+000	71.2315	0.0000000E+000	0.0000000E+000	0.0000000E+000	-71.2315	0.0000000E+000	0.0000000E+000	0.0000000E+000	-18.7685	0.0000000E+000	0.0000000E+000	0.0000000E+000	18.7685	2.94278	71.2315	-3.55492e-06	-1.04687e-05	5673.42
4641.49	4.56592	1.69638	4.87087	-20.3815	6.1977	0.243882	-0.00106832	20.2135	2.45173	1	10	0.00477458	0.000980231	0	-2.94641e-05	0.192449	0.0715005	0.205302	20.3815	2451.73	6599.02	7039.74	-69.6185	0.0000000E+000	0.0000000E+000	0.0000000E+000	69.6185	0.0000000E+000	0.0000000E+000	0.0000000E+000	-69.6185	0.0000000E+000	0.0000000E+000	0.0000000E+000	-20.3815	0.0000000E+000	0.0000000E+000	0.0000000E+000	20.3815	2.69158	69.6185	5.42413e-07	-2.60545e-07	228285
2155.69	5.36625	2.23924	5.81471	-22.6499	7.13071	0.243879	-0.0011559	32.9711	4.88965	1	10	0.00468547	0.000805796	0	-2.91694e-05	0.158714	0.0662284	0.171978	22.6499	4889.65	11717.9	12697.1	-67.3501	0.0000000E+000	0.0000000E+000	0.0000000E+000	67.3501	0.0000000E+000	0.0000000E+000	0.0000000E+000	-67.3501	0.0000000E+000	0.0000000E+000	0.0000000E+000	-22.6499	0.0000000E+000	0.0000000E+000	0.0000000E+000	22.6499	2.39646	67.3501	3.65519e-07	-2.819e-07	210987
1000.32	6.44161	3.05261	7.12831	-25.3558	8.06671	0.243883	-0.00096958	52.1206	9.55827	1	10	0.0046171	0.000647712	0	-2.98239e-05	0.126771	0.0600756	0.140286	25.3558	9558.27	20169.8	22320	-64.6442	0.0000000E+000	0.0000000E+000	0.0000000E+000	64.6442	0.0000000E+000	0.0000000E+000	0.0000000E+000	-64.6442	0.0000000E+000	0.0000000E+000	0.0000000E+000	-25.3558	0.0000000E+000	0.0000000E+000	0.0000000E+000	25.3558	2.1102	64.6442	-2.68798e-07	-2.36464e-07	251534
463.961	7.98151	4.21796	9.0275	-27.8549	9.0012	0.243885	-0.000548482	81.3273	17.7544	1	10	0.0045869	0.000508104	0	-3.02439e-05	0.0979378	0.0517569	0.110773	27.8549	17754.4	33596.1	37999	-62.145	0.0000000E+000	0.0000000E+000	0.0000000E+000	62.145	0.0000000E+000	0.0000000E+000	0.0000000E+000	-62.145	0.0000000E+000	0.0000000E+000	0.0000000E+000	-27.8549	0.0000000E+000	0.0000000E+000	0.0000000E+000	27.8549	1.89227	62.145	1.70303e-07	-1.33766e-07	444654
215.345	10.3484	5.71834	11.8232	-28.9244	9.93543	0.243882	-0.0011056	129.246	30.2334	1	10	0.004572	0.000386698	0	-3.0697e-05	0.074029	0.0409073	0.0845796	28.9244	30233.4	54712.7	62510.3	-61.0756	0.0000000E+000	0.0000000E+000	0.0000000E+000	61.0756	0.0000000E+000	0.0000000E+000	0.0000000E+000	-61.0756	0.0000000E+000	0.0000000E+000	0.0000000E+000	-28.9244	0.0000000E+000	0.0000000E+000	0.0000000E+000	28.9244	1.80968	61.0756	-3.97209e-07	-2.69637e-07	220587
100.032	13.8773	7.0751	15.5768	-27.014	10.8667	0.243891	-0.000906236	224.879	46.3937	1	10	0.00456593	0.000293125	0	-3.09605e-05	0.0571938	0.0291593	0.0641982	27.014	46393.7	90997.7	102142	-62.986	0.0000000E+000	0.0000000E+000	0.0000000E+000	62.986	0.0000000E+000	0.0000000E+000	0.0000000E+000	-62.986	0.0000000E+000	0.0000000E+000	0.0000000E+000	-27.014	0.0000000E+000	0.0000000E+000	0.0000000E+000	27.014	1.96142	62.986	-8.89778e-08	-2.21023e-07	269125
46.4415	18.4827	7.32128	19.88	-21.6092	12.0486	0.243918	-0.00703953	468.087	63.4848	1	11	0.00457303	0.000230032	0	-3.17795e-05	0.0467666	0.0185249	0.0503019	21.6092	63484.8	160269	172384	-68.3907	0.0000000E+000	0.0000000E+000	0.0000000E+000	68.3907	0.0000000E+000	0.0000000E+000	0.0000000E+000	-68.3907	0.0000000E+000	0.0000000E+000	0.0000000E+000	-21.6092	0.0000000E+000	0.0000000E+000	0.0000000E+000	21.6092	2.52452	68.3907	-9.05691e-07	-1.71707e-06	34649.7
[...]
1.00006	27.8558	2.64287	27.9809	-5.4198	21.1292	0.243906	-0.00510783	60216.7	537.209	1	12	0.00456897	0.000163289	0	-5.0913e-05	0.0355789	0.0033756	0.0357386	5.4198	537210	5.66219e+06	5.68762e+06	-84.5802	0.0000000E+000	0.0000000E+000	0.0000000E+000	84.5802	0.0000000E+000	0.0000000E+000	0.0000000E+000	-84.5802	0.0000000E+000	0.0000000E+000	0.0000000E+000	-5.4198	0.0000000E+000	0.0000000E+000	0.0000000E+000	5.4198	10.54	84.5802	-1.06501e-05	-1.24583e-06	47751.5
0.464091	29.1663	2.98117	29.3182	-5.83611	28.8145	0.24391	-0.00507424	115035	1189.4	1	12	0.00457037	0.000155889	0	-6.65006e-05	0.0339317	0.00346826	0.0341085	5.83611	1.1894e+06	1.16365e+07	1.16971e+07	-84.1639	0.0000000E+000	0.0000000E+000	0.0000000E+000	84.1639	0.0000000E+000	0.0000000E+000	0.0000000E+000	-84.1639	0.0000000E+000	0.0000000E+000	0.0000000E+000	-5.83611	0.0000000E+000	0.0000000E+000	0.0000000E+000	5.83611	9.78348	84.1639	-6.00005e-06	-1.23766e-06	48068.4
0.215268	30.4864	3.46886	30.6831	-6.49142	45.2928	0.243912	-0.00432176	213135	2724.14	1	12	0.00456699	0.000148844	0	-5.72798e-05	0.0323823	0.00368458	0.0325912	6.49142	2.72414e+06	2.39413e+07	2.40958e+07	-83.5086	0.0000000E+000	0.0000000E+000	0.0000000E+000	83.5086	0.0000000E+000	0.0000000E+000	0.0000000E+000	-83.5086	0.0000000E+000	0.0000000E+000	0.0000000E+000	-6.49142	0.0000000E+000	0.0000000E+000	0.0000000E+000	6.49142	8.78859	83.5086	8.07814e-06	-1.05413e-06	56438.1
0.0999041	32.232	4.30511	32.5182	-7.60777	80.6983	0.243902	-0.00210322	370043	6485.86	1	12	0.00456883	0.0001405	0	-5.28608e-05	0.0304813	0.00407128	0.030752	7.60777	6.48586e+06	4.85591e+07	4.89903e+07	-82.3922	0.0000000E+000	0.0000000E+000	0.0000000E+000	82.3922	0.0000000E+000	0.0000000E+000	0.0000000E+000	-82.3922	0.0000000E+000	0.0000000E+000	0.0000000E+000	-7.60777	0.0000000E+000	0.0000000E+000	0.0000000E+000	7.60777	7.48691	82.3922	-3.90685e-06	-5.12978e-07	115966
0.0464052	34.093	5.52635	34.538	-9.20734	156.935	0.243904	-0.000428335	620605	15889	1	12	0.00456977	0.000132311	0	-0.000157275	0.0285805	0.0046328	0.0289536	9.20734	1.5889e+07	9.80221e+07	9.93015e+07	-80.7927	0.0000000E+000	0.0000000E+000	0.0000000E+000	80.7927	0.0000000E+000	0.0000000E+000	0.0000000E+000	-80.7927	0.0000000E+000	0.0000000E+000	0.0000000E+000	-9.20734	0.0000000E+000	0.0000000E+000	0.0000000E+000	9.20734	6.16918	80.7927	-7.58891e-05	-1.04473e-07	569424
0.0215268	36.1693	7.74504	36.9892	-12.0864	321.165	0.243902	-0.00120206	954591	41851.7	1	12	0.00456871	0.000123514	0	-0.000428568	0.0264356	0.00566073	0.0270349	12.0864	4.18518e+07	1.95448e+08	1.99878e+08	-77.9136	0.0000000E+000	0.0000000E+000	0.0000000E+000	77.9136	0.0000000E+000	0.0000000E+000	0.0000000E+000	-77.9136	0.0000000E+000	0.0000000E+000	0.0000000E+000	-12.0864	0.0000000E+000	0.0000000E+000	0.0000000E+000	12.0864	4.67	77.9136	-0.000146337	-2.93186e-07	202903
0.0100092	38.5694	12.9886	40.6977	-18.6115	674.381	0.243904	-0.00116004	1.22422e+06	124694	1	12	0.00456837	0.000112251	0	-0.000420166	0.0232864	0.00784194	0.0245714	18.6115	1.24694e+08	3.70276e+08	3.90708e+08	-71.3885	0.0000000E+000	0.0000000E+000	0.0000000E+000	71.3885	0.0000000E+000	0.0000000E+000	0.0000000E+000	-71.3885	0.0000000E+000	0.0000000E+000	0.0000000E+000	-18.6115	0.0000000E+000	0.0000000E+000	0.0000000E+000	18.6115	2.96947	71.3885	9.48835e-05	-2.82939e-07	210254