Folder: EIS/txt (part 107)

File: 18693_R307_UC91_23p8_SOC50_C05.mpt
EC-Lab ASCII FILE
Nb header lines : 65

Potentio Electrochemical Impedance Spectroscopy

Run on channel : 5 (SN 65912)
User :
CE vs. WE compliance from -10 V to 10 V
Electrode connection : standard
Potential control : Ewe
Ewe ctrl range : min = -10.00 V, max = 10.00 V
Safety Limits :
	Do not start on E overload
Acquisition started on : 10/28/2025 15:55:49.601
Technique started on : 10/28/2025 15:55:52.295
Loaded Setting File :  C:\Users\Celltest\OneDrive - store-dot.com\Documents\EC-Lab\Data\@Biologic Test Protocols\cathode half cell EIS SOC50.mps
Saved on :
	File : 18693_R307_UC91_23p8_SOC50_C05.mpr
	Directory : C:\Users\Celltest\OneDrive - store-dot.com\Documents\EC-Lab\Data\Anna\
	Host : 169.254.61.224
Device : VMP-3e (SN .003165)
Address : USB
EC-LAB for windows v11.62 (software)
Internet server v27.00 (firmware)
Command interpretor v12.03 (firmware)
Electrode material :
Initial state :
Electrolyte :
Comments :
Electrode surface area : 0.001 cm²
Characteristic mass : 0.001 g
Equivalent Weight : 0.000 g/eq.
Density : 0.000 g/cm3
Volume (V) : 0.001 cm³
Record Ece
Cycle Definition : Charge/Discharge alternance
Mode                Multi sine
E (V)               0.0000
vs.                 Eoc
tE (h:m:s)          0:00:0.0000
record              0
dI                  0.000
unit dI             mA
dt (s)              0.000
fi                  1.000
unit fi             MHz
ff                  0.100
unit ff             mHz
Nd                  10
Points              per decade
spacing             Logarithmic
Va (mV)             5.0
pw                  0.10
Na                  2
corr                0
E range min (V)     -10.000
E range max (V)     10.000
I Range             Auto
Bandwidth           5
nc cycles           0
goto Ns'            0
nr cycles           0
inc. cycle          0

freq/Hz	Re(Z)/Ohm	-Im(Z)/Ohm	|Z|/Ohm	Phase(Z)/deg	time/s	<Ewe>/V	<I>/mA	Cs/µF	Cp/µF	cycle number	I Range	|Ewe|/V	|I|/A	Ns	(Q-Qo)/mA.h	<Ece>/V	|Ece|/V	Phase(Zce)/deg	|Zce|/Ohm	Re(Zce)/Ohm	-Im(Zce)/Ohm	Phase(Zwe-ce)/deg	|Zwe-ce|/Ohm	Re(Zwe-ce)/Ohm	-Im(Zwe-ce)/Ohm	Re(Y)/Ohm-1	Im(Y)/Ohm-1	|Y|/Ohm-1	Phase(Y)/deg	Re(C)/nF	Im(C)/nF	|C|/nF	Phase(C)/deg	Re(M)	Im(M)	|M|	Phase(M)/deg	Re(Permittivity)	Im(Permittivity)	|Permittivity|	Phase(Permittivity)/deg	Re(Resistivity)/Ohm.cm	Im(Resistivity)/Ohm.cm	|Resistivity|/Ohm.cm	Phase(Resistivity)/deg	Re(Conductivity)/mS/cm	Im(Conductivity)/mS/cm	|Conductivity|/mS/cm	Phase(Conductivity)/deg	Tan(Delta)	Loss Angle(Delta)/deg	dq/mA.h	Pwe/W	Pce/W	Pwe-ce/W	<Ewe-Ece>/V	Rwe/Ohm	Rce/Ohm	Rwe-ce/Ohm		Ewe-Ece/V
1.00002e+06	0.973703	-0.227944	1.00003	13.1757	2.69354	3.96964	0.0254132	-0.698207	-0.0362757	1	9	0.000219734	0.000219728	0	1.34724e-05	0.000416731	0.000182885	-2.72418	0.832323	0.831382	0.0395587	5.95802	1.81489	1.80509	-0.188385	0.973648	-0.227931	0.999972	-13.1757	-36.2757	154.958	159.147	-103.176	0.0000000E+000	0.0000000E+000	0.0000000E+000	103.176	0.0000000E+000	0.0000000E+000	0.0000000E+000	-103.176	0.0000000E+000	0.0000000E+000	0.0000000E+000	13.1757	0.0000000E+000	0.0000000E+000	0.0000000E+000	-13.1757	4.27168	76.8243	1.34724e-05	0.000100881	1.05905e-08	0.000100871	3.96922	156204	16.3982	156187
251206	1.14901	0.460978	1.23803	-21.8604	4.99356	3.96801	-0.0712985	1.37439	0.190548	1	9	0.00342036	0.00276273	0	-1.63298e-05	-3.27544e-06	5.03867e-05	82.3647	0.018238	0.00242323	-0.0180763	-21.0393	1.23368	1.15144	0.442902	0.749651	0.300756	0.807732	21.8604	190.548	474.951	511.749	-68.1396	0.0000000E+000	0.0000000E+000	0.0000000E+000	68.1396	0.0000000E+000	0.0000000E+000	0.0000000E+000	-68.1396	0.0000000E+000	0.0000000E+000	0.0000000E+000	-21.8604	0.0000000E+000	0.0000000E+000	0.0000000E+000	21.8604	2.49255	68.1396	-7.76536e-06	-0.000282913	2.33534e-10	-0.000282913	3.96801	55653.4	0.0459398	55653.5
63093.8	1.84688	1.19356	2.19899	-32.8729	7.54155	3.96777	-0.028361	2.11343	0.622632	1	9	0.00502917	0.00228703	0	-5.24881e-05	-0.000194188	2.29602e-05	89.7587	0.0100393	4.22756e-05	-0.0100392	-32.6521	2.1936	1.84692	1.18352	0.381937	0.24683	0.454754	32.8729	622.632	963.441	1147.12	-57.1271	0.0000000E+000	0.0000000E+000	0.0000000E+000	57.1271	0.0000000E+000	0.0000000E+000	0.0000000E+000	-57.1271	0.0000000E+000	0.0000000E+000	0.0000000E+000	-32.8729	0.0000000E+000	0.0000000E+000	0.0000000E+000	32.8729	1.54737	57.1271	-2.58861e-06	-0.00011253	5.50736e-09	-0.000112536	3.96797	139902	6.84699	139909
15847.7	3.30358	1.90657	3.81427	-29.9903	10.0935	3.96774	-0.0424004	5.26745	1.31609	1	9	0.00504427	0.00132247	0	-8.08133e-05	0.000187637	9.38895e-06	-102.176	0.00709953	-0.00149735	0.00693984	-30.0918	3.81645	3.30208	1.91351	0.227071	0.131048	0.262173	29.9903	1316.09	2280.43	2632.95	-60.0097	0.0000000E+000	0.0000000E+000	0.0000000E+000	60.0097	0.0000000E+000	0.0000000E+000	0.0000000E+000	-60.0097	0.0000000E+000	0.0000000E+000	0.0000000E+000	-29.9903	0.0000000E+000	0.0000000E+000	0.0000000E+000	29.9903	1.73273	60.0097	-3.69904e-06	-0.000168234	-7.95588e-09	-0.000168226	3.96756	93577.9	4.42535	93573.4
3983.6	5.01472	2.63151	5.66324	-27.6885	11.8521	3.96758	-0.0439198	15.1824	3.27808	1	10	0.00463373	0.000818212	0	-9.73557e-05	1.58158e-05	1.4247e-05	-64.1831	0.0174123	0.00758303	0.0156744	-27.7931	5.67724	5.0223	2.64718	0.156357	0.0820494	0.176577	27.6885	3278.08	6246.86	7054.72	-62.3115	0.0000000E+000	0.0000000E+000	0.0000000E+000	62.3115	0.0000000E+000	0.0000000E+000	0.0000000E+000	-62.3115	0.0000000E+000	0.0000000E+000	0.0000000E+000	-27.6885	0.0000000E+000	0.0000000E+000	0.0000000E+000	27.6885	1.90564	62.3115	-3.74726e-06	-0.000174255	-6.94625e-10	-0.000174254	3.96756	90336.9	0.360106	90336.5
1000.32	7.91727	4.18628	8.9559	-27.8678	14.6938	3.9676	-0.0094894	38.006	8.30408	1	10	0.00480493	0.00053651	0	-0.000108377	-4.14579e-05	7.92414e-06	-76.8308	0.0147698	0.00336495	0.0143814	-27.939	8.9656	7.92063	4.20066	0.0987091	0.0521928	0.111658	27.8678	8304.08	15705	17765.3	-62.1322	0.0000000E+000	0.0000000E+000	0.0000000E+000	62.1322	0.0000000E+000	0.0000000E+000	0.0000000E+000	-62.1322	0.0000000E+000	0.0000000E+000	0.0000000E+000	-27.8678	0.0000000E+000	0.0000000E+000	0.0000000E+000	27.8678	1.89124	62.1322	-7.13792e-07	-3.76501e-05	3.9341e-10	-3.76505e-05	3.96764	418108	4.36886	418113
251.044	12.8673	4.49851	13.631	-19.2701	17.394	3.96759	-0.00985802	140.929	15.3492	1	10	0.00474888	0.000348389	0	-0.000114618	5.39982e-05	3.96862e-05	-129.676	0.113913	-0.0727269	0.0876756	-19.7201	13.5917	12.7945	4.58619	0.0692522	0.0242112	0.0733624	19.2701	15349.2	43903.9	46509.7	-70.7299	0.0000000E+000	0.0000000E+000	0.0000000E+000	70.7299	0.0000000E+000	0.0000000E+000	0.0000000E+000	-70.7299	0.0000000E+000	0.0000000E+000	0.0000000E+000	-19.2701	0.0000000E+000	0.0000000E+000	0.0000000E+000	19.2701	2.86034	70.7299	-1.4054e-06	-3.91126e-05	-5.32315e-10	-3.9112e-05	3.96753	402473	5.47759	402468
[...]
0.0602816	20.7492	2.68007	20.9216	-7.35987	240.741	3.96762	-0.010316	985118	16165.7	1	11	0.0050949	0.000243524	0	-0.00182871	-0.000251461	4.19693e-07	17.1711	0.00172341	0.0016466	-0.000508798	-7.35791	20.9231	20.7508	2.67956	0.0474038	0.00612291	0.0477976	7.35987	1.61657e+07	1.25155e+08	1.26195e+08	-82.6401	0.0000000E+000	0.0000000E+000	0.0000000E+000	82.6401	0.0000000E+000	0.0000000E+000	0.0000000E+000	-82.6401	0.0000000E+000	0.0000000E+000	0.0000000E+000	-7.35987	0.0000000E+000	0.0000000E+000	0.0000000E+000	7.35987	7.74203	82.6401	0.000000000000000E+000	-4.09299e-05	2.59407e-09	-4.09325e-05	3.96787	384609	24.3759	384633
0.00796479	27.5487	5.74193	28.1408	-11.7735	20329.6	3.96763	-0.000741986	3.48007e+06	144888	1	11	0.00508942	0.000180856	0	-0.0165041	-0.000175096	1.79775e-07	161.701	0.000994027	-0.000943763	-0.000312093	-11.7733	28.1398	27.5478	5.74162	0.034788	0.0072508	0.0355356	11.7735	1.44888e+08	6.95146e+08	7.10084e+08	-78.2265	0.0000000E+000	0.0000000E+000	0.0000000E+000	78.2265	0.0000000E+000	0.0000000E+000	0.0000000E+000	-78.2265	0.0000000E+000	0.0000000E+000	0.0000000E+000	-11.7735	0.0000000E+000	0.0000000E+000	0.0000000E+000	11.7735	4.79782	78.2265	-0.0146754	-2.94392e-06	1.29919e-10	-2.94405e-06	3.9678	5.34731e+06	235.984	5.34755e+06
0.0019912	32.5343	8.53738	33.6358	-14.7036	20329.6	3.96763	-0.000741986	9.36227e+06	603152	1	11	0.00510024	0.000151631	0	-0.0165041	-0.000175096	2.90705e-07	57.9264	0.00191718	0.00101804	-0.00162456	-14.7004	33.6364	32.5353	8.53576	0.0287566	0.00754606	0.0297302	14.7036	6.03152e+08	2.29849e+09	2.37631e+09	-75.2964	0.0000000E+000	0.0000000E+000	0.0000000E+000	75.2964	0.0000000E+000	0.0000000E+000	0.0000000E+000	-75.2964	0.0000000E+000	0.0000000E+000	0.0000000E+000	-14.7036	0.0000000E+000	0.0000000E+000	0.0000000E+000	14.7036	3.81081	75.2964	0.000000000000000E+000	-2.94392e-06	1.29919e-10	-2.94405e-06	3.9678	5.34731e+06	235.984	5.34755e+06
0.000497799	35.5555	16.6167	39.2467	-25.0488	20329.6	3.96763	-0.000741986	1.92407e+07	3.44908e+06	1	11	0.005101	0.000129973	0	-0.0165041	-0.000175096	1.07258e-06	-123.924	0.00825232	-0.0046056	0.00684756	-25.0607	39.2454	35.5509	16.6235	0.0230834	0.0107879	0.0254798	25.0488	3.44908e+09	7.38016e+09	8.14634e+09	-64.9512	0.0000000E+000	0.0000000E+000	0.0000000E+000	64.9512	0.0000000E+000	0.0000000E+000	0.0000000E+000	-64.9512	0.0000000E+000	0.0000000E+000	0.0000000E+000	-25.0488	0.0000000E+000	0.0000000E+000	0.0000000E+000	25.0488	2.13975	64.9512	0.000000000000000E+000	-2.94392e-06	1.29919e-10	-2.94405e-06	3.9678	5.34731e+06	235.984	5.34755e+06
9.95598e-05	40.2795	86.6604	95.5639	-65.0711	20329.6	3.96763	-0.000741986	1.84466e+07	1.51694e+07	1	11	0.00510038	5.33714e-05	0	-0.0165041	-0.000175096	2.12601e-06	103.327	0.0398341	-0.00918209	-0.0387614	-65.0663	95.5249	40.2703	86.6216	0.00441059	0.00948927	0.0104642	65.0711	1.51694e+10	7.0507e+09	1.67279e+10	-24.9289	0.0000000E+000	0.0000000E+000	0.0000000E+000	24.9289	0.0000000E+000	0.0000000E+000	0.0000000E+000	-24.9289	0.0000000E+000	0.0000000E+000	0.0000000E+000	-65.0711	0.0000000E+000	0.0000000E+000	0.0000000E+000	65.0711	0.464797	24.9289	0.000000000000000E+000	-2.94392e-06	1.29919e-10	-2.94405e-06	3.9678	5.34731e+06	235.984	5.34755e+06

File: 18694_R307_UC91_25_SOC50_C01.mpt
EC-Lab ASCII FILE
Nb header lines : 65

Potentio Electrochemical Impedance Spectroscopy

Run on channel : 1 (SN 66354)
User :
CE vs. WE compliance from -10 V to 10 V
Electrode connection : standard
Potential control : Ewe
Ewe ctrl range : min = -10.00 V, max = 10.00 V
Safety Limits :
	Do not start on E overload
Acquisition started on : 10/29/2025 14:38:06.248
Technique started on : 10/29/2025 14:38:08.943
Loaded Setting File :  C:\Users\Celltest\OneDrive - store-dot.com\Documents\EC-Lab\Data\@Biologic Test Protocols\cathode half cell EIS SOC50.mps
Saved on :
	File : 18694_R307_UC91_25_SOC50_C01.mpr
	Directory : C:\Users\Celltest\OneDrive - store-dot.com\Documents\EC-Lab\Data\Anna\
	Host : 169.254.61.224
Device : VMP-3e (SN .003165)
Address : USB
EC-LAB for windows v11.62 (software)
Internet server v27.00 (firmware)
Command interpretor v12.03 (firmware)
Electrode material :
Initial state :
Electrolyte :
Comments :
Electrode surface area : 0.001 cm²
Characteristic mass : 0.001 g
Equivalent Weight : 0.000 g/eq.
Density : 0.000 g/cm3
Volume (V) : 0.001 cm³
Record Ece
Cycle Definition : Charge/Discharge alternance
Mode                Multi sine
E (V)               0.0000
vs.                 Eoc
tE (h:m:s)          0:00:0.0000
record              0
dI                  0.000
unit dI             mA
dt (s)              0.000
fi                  1.000
unit fi             MHz
ff                  0.100
unit ff             mHz
Nd                  10
Points              per decade
spacing             Logarithmic
Va (mV)             5.0
pw                  0.10
Na                  2
corr                0
E range min (V)     -10.000
E range max (V)     10.000
I Range             Auto
Bandwidth           5
nc cycles           0
goto Ns'            0
nr cycles           0
inc. cycle          0

freq/Hz	Re(Z)/Ohm	-Im(Z)/Ohm	|Z|/Ohm	Phase(Z)/deg	time/s	<Ewe>/V	<I>/mA	Cs/µF	Cp/µF	cycle number	I Range	|Ewe|/V	|I|/A	Ns	(Q-Qo)/mA.h	<Ece>/V	|Ece|/V	Phase(Zce)/deg	|Zce|/Ohm	Re(Zce)/Ohm	-Im(Zce)/Ohm	Phase(Zwe-ce)/deg	|Zwe-ce|/Ohm	Re(Zwe-ce)/Ohm	-Im(Zwe-ce)/Ohm	Re(Y)/Ohm-1	Im(Y)/Ohm-1	|Y|/Ohm-1	Phase(Y)/deg	Re(C)/nF	Im(C)/nF	|C|/nF	Phase(C)/deg	Re(M)	Im(M)	|M|	Phase(M)/deg	Re(Permittivity)	Im(Permittivity)	|Permittivity|	Phase(Permittivity)/deg	Re(Resistivity)/Ohm.cm	Im(Resistivity)/Ohm.cm	|Resistivity|/Ohm.cm	Phase(Resistivity)/deg	Re(Conductivity)/mS/cm	Im(Conductivity)/mS/cm	|Conductivity|/mS/cm	Phase(Conductivity)/deg	Tan(Delta)	Loss Angle(Delta)/deg	dq/mA.h	Pwe/W	Pce/W	Pwe-ce/W	<Ewe-Ece>/V	Rwe/Ohm	Rce/Ohm	Rwe-ce/Ohm		Ewe-Ece/V
1.00002e+06	2.92414	2.0624	3.57827	-35.1954	2.69456	3.97026	-0.00562441	0.0771685	0.0256352	1	10	0.0002384	6.66242e-05	0	1.10588e-06	5.95716e-05	0.000197068	-70.8005	2.9579	0.972733	2.79338	-51.2522	6.22609	3.89687	4.85578	0.228376	0.161074	0.279464	35.1954	25.6352	36.3465	44.4773	-54.8046	0.0000000E+000	0.0000000E+000	0.0000000E+000	54.8046	0.0000000E+000	0.0000000E+000	0.0000000E+000	-54.8046	0.0000000E+000	0.0000000E+000	0.0000000E+000	-35.1954	0.0000000E+000	0.0000000E+000	0.0000000E+000	35.1954	1.41783	54.8046	1.10588e-06	-2.23304e-05	-3.35055e-10	-2.23301e-05	3.9702	705898	10.5916	705887
251206	1.33641	0.449741	1.41005	-18.5996	5.40056	3.96989	-0.0127828	1.40873	0.143311	1	9	0.00367348	0.0026052	0	-5.46185e-06	-0.000207511	5.63229e-05	104.406	0.0216194	-0.00537879	-0.0209396	-17.8568	1.39839	1.33103	0.428801	0.672152	0.226199	0.709193	18.5996	143.311	425.851	449.318	-71.4004	0.0000000E+000	0.0000000E+000	0.0000000E+000	71.4004	0.0000000E+000	0.0000000E+000	0.0000000E+000	-71.4004	0.0000000E+000	0.0000000E+000	0.0000000E+000	-18.5996	0.0000000E+000	0.0000000E+000	0.0000000E+000	18.5996	2.97151	71.4004	-6.44033e-07	-5.07463e-05	2.65257e-09	-5.0749e-05	3.9701	310565	16.2336	310581
63093.8	1.94558	1.20991	2.29111	-31.8766	7.82453	3.96988	0.00908548	2.08487	0.58143	1	9	0.00541677	0.00236426	0	-2.58134e-05	-9.30469e-05	1.21958e-05	25.1344	0.00515839	0.00466997	-0.00219099	-31.7686	2.29392	1.95025	1.20772	0.370645	0.230497	0.436471	31.8766	581.43	934.957	1101	-58.1234	0.0000000E+000	0.0000000E+000	0.0000000E+000	58.1234	0.0000000E+000	0.0000000E+000	0.0000000E+000	-58.1234	0.0000000E+000	0.0000000E+000	0.0000000E+000	-31.8766	0.0000000E+000	0.0000000E+000	0.0000000E+000	31.8766	1.60803	58.1234	-4.29418e-06	3.60683e-05	-8.45376e-10	3.60691e-05	3.96997	436948	10.2413	436958
15847.7	3.45423	2.15782	4.07282	-31.9926	10.2486	3.96986	0.00778155	4.65413	1.30641	1	9	0.00454189	0.00111517	0	-1.88353e-05	-7.39696e-05	2.5618e-06	-147.279	0.00229722	-0.00193268	0.00124177	-32.0218	4.07184	3.4523	2.15906	0.208238	0.130084	0.24553	31.9926	1306.41	2091.29	2465.81	-58.0074	0.0000000E+000	0.0000000E+000	0.0000000E+000	58.0074	0.0000000E+000	0.0000000E+000	0.0000000E+000	-58.0074	0.0000000E+000	0.0000000E+000	0.0000000E+000	-31.9926	0.0000000E+000	0.0000000E+000	0.0000000E+000	31.9926	1.60079	58.0074	7.58485e-07	3.08916e-05	-5.75598e-10	3.08922e-05	3.96993	510163	9.50577	510172
3983.6	5.65638	3.09818	6.44929	-28.711	12.1271	3.96975	-0.030416	12.8955	2.97596	1	10	0.00480186	0.000744556	0	-2.44676e-05	0.000402963	7.99727e-06	-11.6959	0.010741	0.010518	0.00217739	-28.6831	6.45956	5.6669	3.10036	0.135992	0.0744875	0.155056	28.711	2975.96	5433.24	6194.87	-61.289	0.0000000E+000	0.0000000E+000	0.0000000E+000	61.289	0.0000000E+000	0.0000000E+000	0.0000000E+000	-61.289	0.0000000E+000	0.0000000E+000	0.0000000E+000	-28.711	0.0000000E+000	0.0000000E+000	0.0000000E+000	28.711	1.82571	61.289	-2.90441e-06	-0.000120744	-1.22565e-08	-0.000120732	3.96935	130515	13.2484	130502
1000.32	8.92369	4.51386	10.0004	-26.8316	14.7558	3.96976	-0.000268791	35.2479	7.18121	1	10	0.00460996	0.000460979	0	-2.70601e-05	5.95716e-05	1.00733e-05	-16.699	0.0218521	0.0209305	0.00627905	-26.8096	10.0219	8.94462	4.52014	0.0892305	0.0451353	0.0999964	26.8316	7181.21	14196.9	15909.8	-63.1684	0.0000000E+000	0.0000000E+000	0.0000000E+000	63.1684	0.0000000E+000	0.0000000E+000	0.0000000E+000	-63.1684	0.0000000E+000	0.0000000E+000	0.0000000E+000	-26.8316	0.0000000E+000	0.0000000E+000	0.0000000E+000	26.8316	1.97696	63.1684	3.64309e-07	-1.06704e-06	-1.60123e-11	-1.06702e-06	3.9697	1.4769e+07	221.628	1.47687e+07
251.044	14.1222	4.91596	14.9533	-19.1931	17.457	3.96975	-0.00192356	128.962	13.938	1	10	0.00457167	0.000305729	0	-2.81309e-05	0.00042204	1.04946e-05	38.2584	0.0343264	0.0269539	-0.0212552	-19.0824	14.9718	14.1491	4.8947	0.0631575	0.0219853	0.0668747	19.1931	13938	40040	42396.6	-70.8069	0.0000000E+000	0.0000000E+000	0.0000000E+000	70.8069	0.0000000E+000	0.0000000E+000	0.0000000E+000	-70.8069	0.0000000E+000	0.0000000E+000	0.0000000E+000	-19.1931	0.0000000E+000	0.0000000E+000	0.0000000E+000	19.1931	2.87272	70.8069	7.23129e-09	-7.63605e-06	-8.11819e-10	-7.63524e-06	3.96933	2.06376e+06	219.406	2.06354e+06
[...]
0.0602816	23.4558	3.29243	23.6857	-7.99027	240.812	3.9698	-0.00269985	801897	15494.5	1	11	0.00502592	0.000212192	0	-0.00111896	-0.00028382	3.26197e-07	-36.1272	0.00153727	0.00124167	0.000906345	-7.99202	23.6871	23.457	3.29333	0.0418097	0.00586872	0.0422195	7.99027	1.54945e+07	1.10385e+08	1.11468e+08	-82.0097	0.0000000E+000	0.0000000E+000	0.0000000E+000	82.0097	0.0000000E+000	0.0000000E+000	0.0000000E+000	-82.0097	0.0000000E+000	0.0000000E+000	0.0000000E+000	-7.99027	0.0000000E+000	0.0000000E+000	0.0000000E+000	7.99027	7.12415	82.0097	0.000000000000000E+000	-1.07179e-05	7.66271e-10	-1.07186e-05	3.97008	1.47038e+06	105.124	1.47049e+06
0.00796479	33.6552	7.93097	34.577	-13.2601	20329.7	3.9698	0.00052161	2.51953e+06	132555	1	11	0.00502038	0.000145194	0	-0.00169017	0.000345731	4.7816e-07	-18.7181	0.00329325	0.00311906	0.00105684	-13.2606	34.5803	33.6583	7.93203	0.0281499	0.00663363	0.028921	13.2601	1.32555e+08	5.625e+08	5.77908e+08	-76.7399	0.0000000E+000	0.0000000E+000	0.0000000E+000	76.7399	0.0000000E+000	0.0000000E+000	0.0000000E+000	-76.7399	0.0000000E+000	0.0000000E+000	0.0000000E+000	-13.2601	0.0000000E+000	0.0000000E+000	0.0000000E+000	13.2601	4.24351	76.7399	-0.000571209	2.07069e-06	1.80337e-10	2.07051e-06	3.96945	7.61067e+06	662.815	7.61e+06
0.0019912	41.7638	11.4153	43.2958	-15.2873	20329.7	3.9698	0.00052161	7.00192e+06	486747	1	11	0.00503402	0.00011627	0	-0.00169017	0.000345731	5.24398e-07	-30.2227	0.00451016	0.00389712	0.00227024	-15.2888	43.3002	41.7677	11.4176	0.0222797	0.00608971	0.0230969	15.2873	4.86746e+08	1.7808e+09	1.84612e+09	-74.7127	0.0000000E+000	0.0000000E+000	0.0000000E+000	74.7127	0.0000000E+000	0.0000000E+000	0.0000000E+000	-74.7127	0.0000000E+000	0.0000000E+000	0.0000000E+000	-15.2873	0.0000000E+000	0.0000000E+000	0.0000000E+000	15.2873	3.65857	74.7127	0.000000000000000E+000	2.07069e-06	1.80337e-10	2.07051e-06	3.96945	7.61067e+06	662.815	7.61e+06
0.000497799	46.6723	19.0109	50.3956	-22.1624	20329.7	3.9698	0.00052161	1.68176e+07	2.39322e+06	1	11	0.00503622	9.99337e-05	0	-0.00169017	0.000345731	7.73667e-07	-16.0361	0.00774181	0.00744056	0.00213862	-22.1615	50.4033	46.6797	19.013	0.018377	0.00748544	0.019843	22.1624	2.39322e+09	5.87544e+09	6.34415e+09	-67.8376	0.0000000E+000	0.0000000E+000	0.0000000E+000	67.8376	0.0000000E+000	0.0000000E+000	0.0000000E+000	-67.8376	0.0000000E+000	0.0000000E+000	0.0000000E+000	-22.1624	0.0000000E+000	0.0000000E+000	0.0000000E+000	22.1624	2.45503	67.8376	0.000000000000000E+000	2.07069e-06	1.80337e-10	2.07051e-06	3.96945	7.61067e+06	662.815	7.61e+06
9.95598e-05	54.2832	85.5976	101.359	-57.6185	20329.7	3.9698	0.00052161	1.86756e+07	1.33191e+07	1	11	0.00503131	4.96386e-05	0	-0.00169017	0.000345731	1.07401e-06	-75.9317	0.0216366	0.00525938	0.0209876	-57.6223	101.379	54.2884	85.6186	0.00528375	0.0083318	0.00986594	57.6185	1.33191e+10	8.44653e+09	1.57716e+10	-32.3815	0.0000000E+000	0.0000000E+000	0.0000000E+000	32.3815	0.0000000E+000	0.0000000E+000	0.0000000E+000	-32.3815	0.0000000E+000	0.0000000E+000	0.0000000E+000	-57.6185	0.0000000E+000	0.0000000E+000	0.0000000E+000	57.6185	0.634167	32.3815	0.000000000000000E+000	2.07069e-06	1.80337e-10	2.07051e-06	3.96945	7.61067e+06	662.815	7.61e+06