Folder: EIS/txt (part 82)

File: 18393_R277_UA689_SOC00_C03.mpt
EC-Lab ASCII FILE
Nb header lines : 65

Potentio Electrochemical Impedance Spectroscopy

Run on channel : 3 (SN 65921)
User :
CE vs. WE compliance from -10 V to 10 V
Electrode connection : standard
Potential control : Ewe
Ewe ctrl range : min = -10.00 V, max = 10.00 V
Safety Limits :
	Do not start on E overload
Acquisition started on : 10/13/2025 15:08:59.554
Technique started on : 10/13/2025 15:09:01.424
Loaded Setting File :  C:\Users\Celltest\OneDrive - store-dot.com\Documents\EC-Lab\Data\@Biologic Test Protocols\anode half cell EIS SOC00.mps
Saved on :
	File : 18393_R277_UA689_SOC00_C03.mpr
	Directory : C:\Users\Celltest\OneDrive - store-dot.com\Documents\EC-Lab\Data\Gyutae\
	Host : 169.254.61.224
Device : VMP-3e (SN .003165)
Address : USB
EC-LAB for windows v11.62 (software)
Internet server v27.00 (firmware)
Command interpretor v12.03 (firmware)
Electrode material :
Initial state :
Electrolyte :
Comments :
Electrode surface area : 0.001 cm²
Characteristic mass : 0.001 g
Equivalent Weight : 0.000 g/eq.
Density : 0.000 g/cm3
Volume (V) : 0.001 cm³
Record Ece
Cycle Definition : Charge/Discharge alternance
Mode                Single sine
E (V)               0.0000
vs.                 Eoc
tE (h:m:s)          0:00:0.0000
record              0
dI                  0.000
unit dI             mA
dt (s)              0.000
fi                  100.000
unit fi             kHz
ff                  10.000
unit ff             mHz
Nd                  6
Points              per decade
spacing             Logarithmic
Va (mV)             5.0
pw                  0.10
Na                  2
corr                0
E range min (V)     -10.000
E range max (V)     10.000
I Range             Auto
Bandwidth           5
nc cycles           0
goto Ns'            0
nr cycles           0
inc. cycle          0

freq/Hz	Re(Z)/Ohm	-Im(Z)/Ohm	|Z|/Ohm	Phase(Z)/deg	time/s	<Ewe>/V	<I>/mA	Cs/µF	Cp/µF	cycle number	I Range	|Ewe|/V	|I|/A	Ns	(Q-Qo)/mA.h	<Ece>/V	|Ece|/V	Phase(Zce)/deg	|Zce|/Ohm	Re(Zce)/Ohm	-Im(Zce)/Ohm	Phase(Zwe-ce)/deg	|Zwe-ce|/Ohm	Re(Zwe-ce)/Ohm	-Im(Zwe-ce)/Ohm	Re(Y)/Ohm-1	Im(Y)/Ohm-1	|Y|/Ohm-1	Phase(Y)/deg	Re(C)/nF	Im(C)/nF	|C|/nF	Phase(C)/deg	Re(M)	Im(M)	|M|	Phase(M)/deg	Re(Permittivity)	Im(Permittivity)	|Permittivity|	Phase(Permittivity)/deg	Re(Resistivity)/Ohm.cm	Im(Resistivity)/Ohm.cm	|Resistivity|/Ohm.cm	Phase(Resistivity)/deg	Re(Conductivity)/mS/cm	Im(Conductivity)/mS/cm	|Conductivity|/mS/cm	Phase(Conductivity)/deg	Tan(Delta)	Loss Angle(Delta)/deg	dq/mA.h	Pwe/W	Pce/W	Pwe-ce/W	<Ewe-Ece>/V	Rwe/Ohm	Rce/Ohm	Rwe-ce/Ohm		Ewe-Ece/V
100004	1.22742	0.45355	1.30853	-20.2801	1.86955	0.237451	0.033073	3.50897	0.42156	1	9	0.00491297	0.00375457	0	1.15755e-05	-0.000252362	2.76301e-05	91.5838	0.00735908	-0.0002034	-0.00735626	-19.9804	1.30581	1.22721	0.446193	0.716841	0.264884	0.764215	20.2801	421.56	1140.85	1216.24	-69.7199	0.0000000E+000	0.0000000E+000	0.0000000E+000	69.7199	0.0000000E+000	0.0000000E+000	0.0000000E+000	-69.7199	0.0000000E+000	0.0000000E+000	0.0000000E+000	-20.2801	0.0000000E+000	0.0000000E+000	0.0000000E+000	20.2801	2.70624	69.7199	1.15755e-05	7.85321e-06	-8.34636e-09	7.86156e-06	0.237703	7179.6	7.63045	7187.23
31621.1	1.63623	0.674331	1.76974	-22.3977	3.14655	0.237428	0.0299404	7.46396	1.08367	1	9	0.00544618	0.00307739	0	3.42017e-05	-6.1421e-05	1.02933e-05	16.8102	0.00334483	0.0032019	-0.000967329	-22.3294	1.77233	1.63943	0.673364	0.522428	0.215305	0.565055	22.3977	1083.67	2629.47	2844.02	-67.6023	0.0000000E+000	0.0000000E+000	0.0000000E+000	67.6023	0.0000000E+000	0.0000000E+000	0.0000000E+000	-67.6023	0.0000000E+000	0.0000000E+000	0.0000000E+000	-22.3977	0.0000000E+000	0.0000000E+000	0.0000000E+000	22.3977	2.42645	67.6023	-3.50769e-07	7.10867e-06	-1.83897e-09	7.1105e-06	0.237489	7930.02	2.05145	7932.07
10002.2	2.16188	0.935908	2.35577	-23.4085	4.29952	0.237425	0.0389281	17.0016	2.68344	1	9	0.00520207	0.00220823	0	4.5528e-05	-0.000175985	9.32295e-06	41.2453	0.00422192	0.00317443	-0.00278344	-23.3158	2.35758	2.16505	0.933124	0.389553	0.168643	0.42449	23.4085	2683.44	6198.55	6754.47	-66.5915	0.0000000E+000	0.0000000E+000	0.0000000E+000	66.5915	0.0000000E+000	0.0000000E+000	0.0000000E+000	-66.5915	0.0000000E+000	0.0000000E+000	0.0000000E+000	-23.4085	0.0000000E+000	0.0000000E+000	0.0000000E+000	23.4085	2.30993	66.5915	6.60111e-06	9.24251e-06	-6.85077e-09	9.24936e-06	0.237601	6099.07	4.52078	6103.6
3163.08	2.83945	1.39216	3.16237	-26.1184	5.32368	0.237292	-0.010747	36.1426	7.00446	1	9	0.00486849	0.00153951	0	4.58327e-05	-0.000347832	5.07282e-06	82.3559	0.0032951	0.000438314	-0.00326582	-26.0618	3.16133	2.83989	1.3889	0.283928	0.139208	0.316218	26.1184	7004.46	14286.3	15911	-63.8816	0.0000000E+000	0.0000000E+000	0.0000000E+000	63.8816	0.0000000E+000	0.0000000E+000	0.0000000E+000	-63.8816	0.0000000E+000	0.0000000E+000	0.0000000E+000	-26.1184	0.0000000E+000	0.0000000E+000	0.0000000E+000	26.1184	2.0396	63.8816	-2.18656e-06	-2.55018e-06	3.73815e-09	-2.55391e-06	0.23764	22079.9	32.3655	22112.2
1000.32	3.70997	2.42499	4.4322	-33.1702	6.92279	0.237374	-0.0158521	65.6103	19.6404	1	10	0.00478899	0.0010805	0	4.71649e-05	0.00012952	5.74342e-06	-127.008	0.00531553	-0.00319955	0.00424473	-33.2388	4.43185	3.70677	2.42923	0.188856	0.123444	0.225621	33.1702	19640.4	30047.8	35897.3	-56.8298	0.0000000E+000	0.0000000E+000	0.0000000E+000	56.8298	0.0000000E+000	0.0000000E+000	0.0000000E+000	-56.8298	0.0000000E+000	0.0000000E+000	0.0000000E+000	-33.1702	0.0000000E+000	0.0000000E+000	0.0000000E+000	33.1702	1.52989	56.8298	-1.87193e-06	-3.76287e-06	-2.05316e-09	-3.76081e-06	0.237244	14974.3	8.17051	14966.1
316.316	5.5741	5.02769	7.50655	-42.0496	8.27202	0.237364	-0.0163555	100.076	44.8939	1	10	0.00465611	0.000620273	0	4.18279e-05	0.000148614	1.21274e-05	10.6536	0.0195518	0.0192148	-0.00361454	-41.9311	7.51841	5.59332	5.02407	0.0989224	0.0892253	0.133217	42.0496	44893.9	49773	67028.4	-47.9504	0.0000000E+000	0.0000000E+000	0.0000000E+000	47.9504	0.0000000E+000	0.0000000E+000	0.0000000E+000	-47.9504	0.0000000E+000	0.0000000E+000	0.0000000E+000	-42.0496	0.0000000E+000	0.0000000E+000	0.0000000E+000	42.0496	1.10868	47.9504	-1.78174e-06	-3.88221e-06	-2.43065e-09	-3.87977e-06	0.237215	14512.8	9.08646	14503.7
100.032	11.1267	8.91896	14.2601	-38.715	9.61885	0.237367	-0.0155128	178.389	69.7826	1	10	0.00461634	0.000323723	0	3.54174e-05	7.22374e-05	1.04834e-05	50.695	0.0323838	0.0205135	-0.0250581	-38.5849	14.2605	11.1472	8.8939	0.0547166	0.0438598	0.0701255	38.715	69782.6	87056.4	111573	-51.285	0.0000000E+000	0.0000000E+000	0.0000000E+000	51.285	0.0000000E+000	0.0000000E+000	0.0000000E+000	-51.285	0.0000000E+000	0.0000000E+000	0.0000000E+000	-38.715	0.0000000E+000	0.0000000E+000	0.0000000E+000	38.715	1.24754	51.285	-1.64443e-06	-3.68223e-06	-1.1206e-09	-3.68111e-06	0.237295	15301.4	4.65664	15296.7
[...]
1.00006	30.0363	2.72338	30.1595	-5.18083	19.676	0.237394	-0.00856687	58436.5	476.49	1	12	0.00461178	0.000152913	0	1.56427e-05	-0.000175985	1.56349e-06	22.924	0.0102247	0.00941716	-0.00398262	-5.17168	30.1685	30.0457	2.7194	0.0330216	0.00299407	0.0331571	5.18083	476490	5.25522e+06	5.27678e+06	-84.8192	0.0000000E+000	0.0000000E+000	0.0000000E+000	84.8192	0.0000000E+000	0.0000000E+000	0.0000000E+000	-84.8192	0.0000000E+000	0.0000000E+000	0.0000000E+000	-5.18083	0.0000000E+000	0.0000000E+000	0.0000000E+000	5.18083	11.029	84.8192	-4.28632e-06	-2.03372e-06	1.50764e-09	-2.03523e-06	0.23757	27710.7	20.5426	27731.3
0.316193	31.5026	2.83501	31.6299	-5.14236	34.0208	0.237391	-0.00705428	177547	1426.35	1	12	0.00460957	0.000145735	0	-3.65859e-05	1.49552e-05	2.73235e-06	12.5116	0.0187487	0.0183035	-0.00406169	-5.13206	31.6477	31.5209	2.83094	0.0314884	0.00283373	0.0316157	5.14236	1.42635e+06	1.58496e+07	1.59137e+07	-84.8576	0.0000000E+000	0.0000000E+000	0.0000000E+000	84.8576	0.0000000E+000	0.0000000E+000	0.0000000E+000	-84.8576	0.0000000E+000	0.0000000E+000	0.0000000E+000	-5.14236	0.0000000E+000	0.0000000E+000	0.0000000E+000	5.14236	11.112	84.8576	-2.61617e-05	-1.67462e-06	-1.05499e-10	-1.67452e-06	0.237376	33652	2.12002	33649.9
0.0999041	33.1776	4.75275	33.5163	-8.15227	79.2286	0.237391	-0.00687693	335190	6740.17	1	12	0.00461117	0.00013758	0	-0.000110111	0.000263178	1.13755e-06	-22.0744	0.00826828	0.00766219	0.00310731	-8.15567	33.5243	33.1852	4.75586	0.0295348	0.00423091	0.0298363	8.15227	6.74018e+06	4.70512e+07	4.75315e+07	-81.8477	0.0000000E+000	0.0000000E+000	0.0000000E+000	81.8477	0.0000000E+000	0.0000000E+000	0.0000000E+000	-81.8477	0.0000000E+000	0.0000000E+000	0.0000000E+000	-8.15227	0.0000000E+000	0.0000000E+000	0.0000000E+000	8.15227	6.9807	81.8477	-1.49386e-05	-1.63252e-06	-1.80986e-09	-1.63071e-06	0.237128	34519.9	38.2697	34481.6
0.0315922	36.6813	9.5954	37.9156	-14.6594	222.113	0.2374	-0.0041055	525022	33625.5	1	12	0.00461162	0.000121629	0	-0.000139487	-4.13882e-06	2.00765e-06	-14.5013	0.0165064	0.0159805	0.00413322	-14.6594	37.9321	36.6973	9.59953	0.0255158	0.00667465	0.0263744	14.6594	3.36255e+07	1.28543e+08	1.32869e+08	-75.3406	0.0000000E+000	0.0000000E+000	0.0000000E+000	75.3406	0.0000000E+000	0.0000000E+000	0.0000000E+000	-75.3406	0.0000000E+000	0.0000000E+000	0.0000000E+000	-14.6594	0.0000000E+000	0.0000000E+000	0.0000000E+000	14.6594	3.8228	75.3406	-3.38889e-05	-9.74646e-07	1.69919e-11	-9.74663e-07	0.237404	57824.8	1.00811	57825.8
0.0100092	43.8342	19.6016	48.0173	-24.0931	673.332	0.237398	-0.00492379	811204	135182	1	12	0.00461121	9.60323e-05	0	-0.0012005	-0.000118703	1.58892e-06	-50.1409	0.0165457	0.0106042	0.0127008	-24.1017	48.0321	43.8448	19.6143	0.0190116	0.00850152	0.0208258	24.0931	1.35182e+08	3.02301e+08	3.3115e+08	-65.9069	0.0000000E+000	0.0000000E+000	0.0000000E+000	65.9069	0.0000000E+000	0.0000000E+000	0.0000000E+000	-65.9069	0.0000000E+000	0.0000000E+000	0.0000000E+000	-24.0931	0.0000000E+000	0.0000000E+000	0.0000000E+000	24.0931	2.23625	65.9069	-0.000560372	-1.1689e-06	5.8447e-10	-1.16948e-06	0.237517	48214.5	24.1081	48238.6

File: 18394_R277_UA689_SOC00_C04.mpt
EC-Lab ASCII FILE
Nb header lines : 65

Potentio Electrochemical Impedance Spectroscopy

Run on channel : 4 (SN 66756)
User :
CE vs. WE compliance from -10 V to 10 V
Electrode connection : standard
Potential control : Ewe
Ewe ctrl range : min = -10.00 V, max = 10.00 V
Safety Limits :
	Do not start on E overload
Acquisition started on : 10/13/2025 15:09:07.772
Technique started on : 10/13/2025 15:09:09.498
Loaded Setting File :  C:\Users\Celltest\OneDrive - store-dot.com\Documents\EC-Lab\Data\@Biologic Test Protocols\anode half cell EIS SOC00.mps
Saved on :
	File : 18394_R277_UA689_SOC00_C04.mpr
	Directory : C:\Users\Celltest\OneDrive - store-dot.com\Documents\EC-Lab\Data\Gyutae\
	Host : 169.254.61.224
Device : VMP-3e (SN .003165)
Address : USB
EC-LAB for windows v11.62 (software)
Internet server v27.00 (firmware)
Command interpretor v12.03 (firmware)
Electrode material :
Initial state :
Electrolyte :
Comments :
Electrode surface area : 0.001 cm²
Characteristic mass : 0.001 g
Equivalent Weight : 0.000 g/eq.
Density : 0.000 g/cm3
Volume (V) : 0.001 cm³
Record Ece
Cycle Definition : Charge/Discharge alternance
Mode                Single sine
E (V)               0.0000
vs.                 Eoc
tE (h:m:s)          0:00:0.0000
record              0
dI                  0.000
unit dI             mA
dt (s)              0.000
fi                  100.000
unit fi             kHz
ff                  10.000
unit ff             mHz
Nd                  6
Points              per decade
spacing             Logarithmic
Va (mV)             5.0
pw                  0.10
Na                  2
corr                0
E range min (V)     -10.000
E range max (V)     10.000
I Range             Auto
Bandwidth           5
nc cycles           0
goto Ns'            0
nr cycles           0
inc. cycle          0

freq/Hz	Re(Z)/Ohm	-Im(Z)/Ohm	|Z|/Ohm	Phase(Z)/deg	time/s	<Ewe>/V	<I>/mA	Cs/µF	Cp/µF	cycle number	I Range	|Ewe|/V	|I|/A	Ns	(Q-Qo)/mA.h	<Ece>/V	|Ece|/V	Phase(Zce)/deg	|Zce|/Ohm	Re(Zce)/Ohm	-Im(Zce)/Ohm	Phase(Zwe-ce)/deg	|Zwe-ce|/Ohm	Re(Zwe-ce)/Ohm	-Im(Zwe-ce)/Ohm	Re(Y)/Ohm-1	Im(Y)/Ohm-1	|Y|/Ohm-1	Phase(Y)/deg	Re(C)/nF	Im(C)/nF	|C|/nF	Phase(C)/deg	Re(M)	Im(M)	|M|	Phase(M)/deg	Re(Permittivity)	Im(Permittivity)	|Permittivity|	Phase(Permittivity)/deg	Re(Resistivity)/Ohm.cm	Im(Resistivity)/Ohm.cm	|Resistivity|/Ohm.cm	Phase(Resistivity)/deg	Re(Conductivity)/mS/cm	Im(Conductivity)/mS/cm	|Conductivity|/mS/cm	Phase(Conductivity)/deg	Tan(Delta)	Loss Angle(Delta)/deg	dq/mA.h	Pwe/W	Pce/W	Pwe-ce/W	<Ewe-Ece>/V	Rwe/Ohm	Rce/Ohm	Rwe-ce/Ohm		Ewe-Ece/V
100004	1.50166	0.574777	1.60791	-20.9449	1.72556	0.249131	-0.0502993	2.76888	0.35382	1	9	0.00473013	0.00294179	0	-1.13361e-05	-0.000168381	3.44273e-05	105.147	0.0117028	-0.00305795	-0.0112962	-20.6064	1.60104	1.49861	0.563481	0.580833	0.22232	0.621927	20.9449	353.82	924.39	989.791	-69.0551	0.0000000E+000	0.0000000E+000	0.0000000E+000	69.0551	0.0000000E+000	0.0000000E+000	0.0000000E+000	-69.0551	0.0000000E+000	0.0000000E+000	0.0000000E+000	-20.9449	0.0000000E+000	0.0000000E+000	0.0000000E+000	20.9449	2.6126	69.0551	-1.13361e-05	-1.25311e-05	8.46947e-09	-1.25396e-05	0.2493	4952.97	3.34758	4956.32
31621.1	2.03269	0.896163	2.22147	-23.7915	3.24855	0.249127	-0.0487329	5.61637	0.914004	1	9	0.00520291	0.0023421	0	-4.13229e-05	4.18282e-05	9.7751e-06	-48.7059	0.00417365	0.00275429	0.00313579	-23.8368	2.22526	2.03544	0.899299	0.411898	0.181596	0.450152	23.7915	914.004	2073.16	2265.7	-66.2085	0.0000000E+000	0.0000000E+000	0.0000000E+000	66.2085	0.0000000E+000	0.0000000E+000	0.0000000E+000	-66.2085	0.0000000E+000	0.0000000E+000	0.0000000E+000	-23.7915	0.0000000E+000	0.0000000E+000	0.0000000E+000	23.7915	2.26822	66.2085	-1.65006e-06	-1.21407e-05	-2.03841e-09	-1.21387e-05	0.249086	5112.1	0.858315	5111.24
10002.2	2.7509	1.22006	3.00932	-23.9179	4.27554	0.249115	-0.0432502	13.0419	2.14372	1	9	0.00460115	0.00152897	0	-5.63756e-05	8.00481e-05	1.05001e-05	9.14645	0.00686744	0.00678012	-0.00109164	-23.8467	3.01508	2.75768	1.21897	0.303765	0.134724	0.332301	23.9179	2143.72	4833.5	5287.55	-66.0821	0.0000000E+000	0.0000000E+000	0.0000000E+000	66.0821	0.0000000E+000	0.0000000E+000	0.0000000E+000	-66.0821	0.0000000E+000	0.0000000E+000	0.0000000E+000	-23.9179	0.0000000E+000	0.0000000E+000	0.0000000E+000	23.9179	2.25473	66.0821	-2.58815e-06	-1.07743e-05	-3.4621e-09	-1.07708e-05	0.249035	5759.86	1.85081	5758.01
3163.08	3.68885	1.76734	4.09037	-25.5992	5.50568	0.249033	-0.0340849	28.4702	5.31503	1	10	0.00488981	0.00119544	0	-6.8004e-05	-0.000187491	1.07505e-05	-19.4906	0.00899289	0.00847756	0.00300049	-25.5859	4.09931	3.69733	1.77034	0.220479	0.105632	0.244477	25.5992	5315.02	11093.7	12301.2	-64.4008	0.0000000E+000	0.0000000E+000	0.0000000E+000	64.4008	0.0000000E+000	0.0000000E+000	0.0000000E+000	-64.4008	0.0000000E+000	0.0000000E+000	0.0000000E+000	-25.5992	0.0000000E+000	0.0000000E+000	0.0000000E+000	25.5992	2.08723	64.4008	-6.42084e-06	-8.48826e-06	6.39061e-09	-8.49465e-06	0.249221	7306.27	5.50072	7311.77
1000.32	4.83704	2.86605	5.62239	-30.6476	6.85878	0.249042	-0.0226258	55.5134	14.4252	1	10	0.00470662	0.000837122	0	-7.62141e-05	-0.000187491	9.48378e-06	63.6508	0.011329	0.00502829	-0.010152	-30.5325	5.62155	4.84207	2.8559	0.153017	0.0906655	0.17786	30.6476	14425.2	24345.6	28298.3	-59.3524	0.0000000E+000	0.0000000E+000	0.0000000E+000	59.3524	0.0000000E+000	0.0000000E+000	0.0000000E+000	-59.3524	0.0000000E+000	0.0000000E+000	0.0000000E+000	-30.6476	0.0000000E+000	0.0000000E+000	0.0000000E+000	30.6476	1.68771	59.3524	-2.33151e-06	-5.63478e-06	4.24213e-09	-5.63902e-06	0.24923	11007	8.28663	11015.3
316.316	6.84004	5.71982	8.91642	-39.9032	8.20905	0.249042	-0.0230436	87.9664	36.1993	1	10	0.00464109	0.00052051	0	-8.41892e-05	4.18282e-05	9.2344e-06	54.9606	0.017741	0.0101858	-0.0145256	-39.7896	8.91493	6.85023	5.7053	0.0860355	0.0719451	0.112153	39.9032	36199.3	43288.9	56429.8	-50.0968	0.0000000E+000	0.0000000E+000	0.0000000E+000	50.0968	0.0000000E+000	0.0000000E+000	0.0000000E+000	-50.0968	0.0000000E+000	0.0000000E+000	0.0000000E+000	-39.9032	0.0000000E+000	0.0000000E+000	0.0000000E+000	39.9032	1.19585	50.0968	-2.57136e-06	-5.73881e-06	-9.6387e-10	-5.73785e-06	0.249	10807.4	1.81518	10805.6
100.032	12.8087	10.7398	16.7154	-39.9792	9.55679	0.249034	-0.0224169	148.144	61.1566	1	10	0.00462171	0.000276493	0	-9.19196e-05	0.000137378	1.27575e-05	-10.9516	0.0461402	0.0452999	0.00876567	-39.9026	16.7558	12.854	10.7486	0.0458426	0.0384381	0.059825	39.9792	61156.6	72937.4	95183.9	-50.0208	0.0000000E+000	0.0000000E+000	0.0000000E+000	50.0208	0.0000000E+000	0.0000000E+000	0.0000000E+000	-50.0208	0.0000000E+000	0.0000000E+000	0.0000000E+000	-39.9792	0.0000000E+000	0.0000000E+000	0.0000000E+000	39.9792	1.19263	50.0208	-2.8387e-06	-5.58258e-06	-3.07959e-09	-5.5795e-06	0.248897	11109.2	6.12832	11103.1
[...]
1.00006	40.1341	4.04029	40.3369	-5.74859	19.2938	0.249099	-0.00683751	39389.4	395.184	1	12	0.00462073	0.000114553	0	-0.000112134	-5.37216e-05	3.62634e-06	31.8721	0.0316564	0.0268835	-0.0167153	-5.72116	40.362	40.161	4.02358	0.0246665	0.00248317	0.0247912	5.74859	395184	3.92554e+06	3.94538e+06	-84.2514	0.0000000E+000	0.0000000E+000	0.0000000E+000	84.2514	0.0000000E+000	0.0000000E+000	0.0000000E+000	-84.2514	0.0000000E+000	0.0000000E+000	0.0000000E+000	-5.74859	0.0000000E+000	0.0000000E+000	0.0000000E+000	5.74859	9.93346	84.2514	-8.08256e-07	-1.70322e-06	3.67322e-10	-1.70359e-06	0.249153	36431.3	7.85689	36439.1
0.316193	42.2719	3.77188	42.4399	-5.09895	33.6371	0.249096	-0.00530724	133447	1054.09	1	12	0.00462082	0.000108879	0	-0.000145274	0.000156488	2.49779e-06	16.6569	0.0229409	0.0219783	-0.00657577	-5.08747	42.4612	42.2939	3.76531	0.0234695	0.00209416	0.0235628	5.09895	1.05409e+06	1.18133e+07	1.18602e+07	-84.9011	0.0000000E+000	0.0000000E+000	0.0000000E+000	84.9011	0.0000000E+000	0.0000000E+000	0.0000000E+000	-84.9011	0.0000000E+000	0.0000000E+000	0.0000000E+000	-5.09895	0.0000000E+000	0.0000000E+000	0.0000000E+000	5.09895	11.2071	84.9011	-1.90336e-05	-1.32201e-06	-8.30519e-10	-1.32118e-06	0.24894	46935.2	29.4857	46905.7
0.0999041	44.3051	5.49831	44.645	-7.07429	78.8463	0.249109	-0.00551029	289740	4394.61	1	12	0.00461853	0.00010345	0	-0.000237053	-9.19415e-05	3.564e-06	2.17364	0.0344514	0.0344266	-0.00130668	-7.06719	44.679	44.3395	5.497	0.0222284	0.00275857	0.0223989	7.07429	4.39462e+06	3.54116e+07	3.56832e+07	-82.9257	0.0000000E+000	0.0000000E+000	0.0000000E+000	82.9257	0.0000000E+000	0.0000000E+000	0.0000000E+000	-82.9257	0.0000000E+000	0.0000000E+000	0.0000000E+000	-7.07429	0.0000000E+000	0.0000000E+000	0.0000000E+000	7.07429	8.05795	82.9257	-3.09328e-05	-1.37266e-06	5.06624e-10	-1.37317e-06	0.249201	45207.9	16.6854	45224.6
0.0315922	47.6077	10.9877	48.8592	-12.9961	221.731	0.249107	-0.00434363	458496	23187.4	1	12	0.00462242	9.46069e-05	0	-0.000268482	-9.19415e-05	2.70725e-06	-12.5995	0.0286158	0.0279267	0.00624212	-12.9958	48.8879	47.6357	10.9939	0.0199427	0.00460269	0.020467	12.9961	2.31874e+07	1.00467e+08	1.03108e+08	-77.004	0.0000000E+000	0.0000000E+000	0.0000000E+000	77.004	0.0000000E+000	0.0000000E+000	0.0000000E+000	-77.004	0.0000000E+000	0.0000000E+000	0.0000000E+000	-12.9961	0.0000000E+000	0.0000000E+000	0.0000000E+000	12.9961	4.33284	77.004	-4.20134e-06	-1.08203e-06	3.9936e-10	-1.08243e-06	0.249199	57350	21.167	57371.1
0.0100092	55.9508	24.1999	60.96	-23.3895	672.953	0.249107	-0.00451306	657066	103549	1	12	0.00462012	7.57894e-05	0	-0.00100414	8.00481e-05	1.47305e-06	30.832	0.0194361	0.0166893	-0.00996142	-23.3747	60.9714	55.9675	24.1899	0.0150562	0.00651214	0.0164042	23.3895	1.03549e+08	2.39408e+08	2.60842e+08	-66.6105	0.0000000E+000	0.0000000E+000	0.0000000E+000	66.6105	0.0000000E+000	0.0000000E+000	0.0000000E+000	-66.6105	0.0000000E+000	0.0000000E+000	0.0000000E+000	-23.3895	0.0000000E+000	0.0000000E+000	0.0000000E+000	23.3895	2.31203	66.6105	-0.000454406	-1.12424e-06	-3.61262e-10	-1.12387e-06	0.249027	55196.9	17.737	55179.2