Folder: EIS/txt (part 42)

File: 17546_R290_UC82_50SOC_C03.mpt
EC-Lab ASCII FILE
Nb header lines : 64

Potentio Electrochemical Impedance Spectroscopy

Run on channel : 3 (SN 65921)
User :
CE vs. WE compliance from -10 V to 10 V
Electrode connection : standard
Potential control : Ewe
Ewe ctrl range : min = -10.00 V, max = 10.00 V
Safety Limits :
	Do not start on E overload
Acquisition started on : 09/16/2025 16:52:04.007
Loaded Setting File :  C:\Users\Celltest\OneDrive - store-dot.com\Documents\EC-Lab\Data\Michael\UC74_NCMA_16706_EIS_50_SOC.mps
Saved on :
	File : 17546_R290_UC82_50SOC_C03.mpr
	Directory : C:\Users\Celltest\OneDrive - store-dot.com\Documents\EC-Lab\Data\Michael\R290\
	Host : 169.254.61.224
Device : VMP-3e (SN .003165)
Address : USB
EC-LAB for windows v11.62 (software)
Internet server v27.00 (firmware)
Command interpretor v12.03 (firmware)
Electrode material :
Initial state :
Electrolyte :
Comments :
Electrode surface area : 0.001 cm²
Characteristic mass : 0.001 g
Equivalent Weight : 0.000 g/eq.
Density : 0.000 g/cm3
Volume (V) : 0.001 cm³
Record Ece
Cycle Definition : Charge/Discharge alternance
Mode                Multi sine
E (V)               0.0000
vs.                 Eoc
tE (h:m:s)          0:00:0.0000
record              0
dI                  0.000
unit dI             mA
dt (s)              0.000
fi                  1.000
unit fi             MHz
ff                  0.100
unit ff             mHz
Nd                  10
Points              per decade
spacing             Logarithmic
Va (mV)             5.0
pw                  0.10
Na                  2
corr                0
E range min (V)     -10.000
E range max (V)     10.000
I Range             Auto
Bandwidth           5
nc cycles           0
goto Ns'            0
nr cycles           0
inc. cycle          0

freq/Hz	Re(Z)/Ohm	-Im(Z)/Ohm	|Z|/Ohm	Phase(Z)/deg	time/s	<Ewe>/V	<I>/mA	Cs/µF	Cp/µF	cycle number	I Range	|Ewe|/V	|I|/A	Ns	(Q-Qo)/mA.h	<Ece>/V	|Ece|/V	Phase(Zce)/deg	|Zce|/Ohm	Re(Zce)/Ohm	-Im(Zce)/Ohm	Phase(Zwe-ce)/deg	|Zwe-ce|/Ohm	Re(Zwe-ce)/Ohm	-Im(Zwe-ce)/Ohm	Re(Y)/Ohm-1	Im(Y)/Ohm-1	|Y|/Ohm-1	Phase(Y)/deg	Re(C)/nF	Im(C)/nF	|C|/nF	Phase(C)/deg	Re(M)	Im(M)	|M|	Phase(M)/deg	Re(Permittivity)	Im(Permittivity)	|Permittivity|	Phase(Permittivity)/deg	Re(Resistivity)/Ohm.cm	Im(Resistivity)/Ohm.cm	|Resistivity|/Ohm.cm	Phase(Resistivity)/deg	Re(Conductivity)/mS/cm	Im(Conductivity)/mS/cm	|Conductivity|/mS/cm	Phase(Conductivity)/deg	Tan(Delta)	Loss Angle(Delta)/deg	dq/mA.h	Pwe/W	Pce/W	Pwe-ce/W	<Ewe-Ece>/V	Rwe/Ohm	Rce/Ohm	Rwe-ce/Ohm		Ewe-Ece/V
1.00002e+06	0.9042	-0.542759	1.05459	30.9749	2.23452	3.78879	-0.0169005	-0.293228	-0.0776694	1	9	0.00023067	0.000218729	0	-3.58149e-05	2.10652e-05	0.000199498	0.134348	0.912077	0.912075	-0.00213865	16.6997	1.89625	1.81627	-0.544898	0.813009	-0.48802	0.948234	-30.9749	-77.6694	129.392	150.913	-120.975	0.0000000E+000	0.0000000E+000	0.0000000E+000	120.975	0.0000000E+000	0.0000000E+000	0.0000000E+000	-120.975	0.0000000E+000	0.0000000E+000	0.0000000E+000	30.9749	0.0000000E+000	0.0000000E+000	0.0000000E+000	-30.9749	1.66593	59.0251	-3.58149e-05	-6.40323e-05	-3.56011e-10	-6.4032e-05	3.78877	224183	1.24643	224182
251206	0.674839	0.312958	0.743875	-24.8796	4.53554	3.78842	-0.0660533	2.02443	0.358324	1	9	0.00193186	0.00259703	0	-6.88003e-05	4.01593e-05	4.54592e-05	98.1304	0.0175043	-0.00247557	-0.0173284	-23.7345	0.734486	0.672363	0.29563	1.21955	0.56557	1.34431	24.8796	358.324	772.662	851.706	-65.1204	0.0000000E+000	0.0000000E+000	0.0000000E+000	65.1204	0.0000000E+000	0.0000000E+000	0.0000000E+000	-65.1204	0.0000000E+000	0.0000000E+000	0.0000000E+000	-24.8796	0.0000000E+000	0.0000000E+000	0.0000000E+000	24.8796	2.15632	65.1204	-5.76167e-06	-0.000250237	-2.65265e-09	-0.000250235	3.78838	57353.9	0.607982	57353.3
63093.8	1.21196	0.912081	1.51682	-36.9639	6.83752	3.78834	-0.0474438	2.76567	0.999999	1	9	0.00545062	0.00359346	0	-6.18701e-05	-5.53111e-05	2.99517e-05	113.979	0.00833505	-0.00338733	-0.00761571	-36.8103	1.50954	1.20857	0.904465	0.52677	0.39643	0.659275	36.9639	999.999	1328.78	1663.03	-53.0361	0.0000000E+000	0.0000000E+000	0.0000000E+000	53.0361	0.0000000E+000	0.0000000E+000	0.0000000E+000	-53.0361	0.0000000E+000	0.0000000E+000	0.0000000E+000	-36.9639	0.0000000E+000	0.0000000E+000	0.0000000E+000	36.9639	1.32879	53.0361	-7.67759e-06	-0.000179733	2.62417e-09	-0.000179736	3.7884	79849.1	1.16582	79850.2
15847.7	2.39541	1.02352	2.60491	-23.1363	9.26353	3.78831	-0.0554993	9.81198	1.51484	1	9	0.00454729	0.00174566	0	-8.69468e-05	-9.34992e-05	1.06606e-05	-58.7645	0.00610692	0.00316679	0.00522168	-23.2144	2.60988	2.39857	1.02875	0.353015	0.150838	0.38389	23.1363	1514.84	3545.25	3855.33	-66.8637	0.0000000E+000	0.0000000E+000	0.0000000E+000	66.8637	0.0000000E+000	0.0000000E+000	0.0000000E+000	-66.8637	0.0000000E+000	0.0000000E+000	0.0000000E+000	-23.1363	0.0000000E+000	0.0000000E+000	0.0000000E+000	23.1363	2.34035	66.8637	-4.27667e-06	-0.000210248	5.18914e-09	-0.000210254	3.7884	68258.7	1.68469	68260.4
3983.6	3.09308	0.812932	3.19812	-14.7256	11.131	3.7881	-0.141163	49.1462	3.17547	1	9	0.00484623	0.00151534	0	-0.000121715	0.000154724	6.30765e-06	-27.697	0.00416254	0.00368559	0.00193473	-14.7423	3.20218	3.09676	0.814866	0.302413	0.079481	0.312683	14.7256	3175.47	12082.2	12492.5	-75.2744	0.0000000E+000	0.0000000E+000	0.0000000E+000	75.2744	0.0000000E+000	0.0000000E+000	0.0000000E+000	-75.2744	0.0000000E+000	0.0000000E+000	0.0000000E+000	-14.7256	0.0000000E+000	0.0000000E+000	0.0000000E+000	14.7256	3.80485	75.2744	-1.47208e-05	-0.000534737	-2.18412e-08	-0.000534716	3.78794	26835	1.09607	26833.9
1000.32	3.73462	1.04913	3.87918	-15.6911	14.0058	3.78825	-0.0782214	151.653	11.0925	1	10	0.00479278	0.00123551	0	-0.000151361	-0.00028444	2.91787e-06	-53.4907	0.00236166	0.00140508	0.00189821	-15.7125	3.88104	3.73602	1.05103	0.24818	0.0697187	0.257787	15.6911	11092.5	39486.4	41014.9	-74.3089	0.0000000E+000	0.0000000E+000	0.0000000E+000	74.3089	0.0000000E+000	0.0000000E+000	0.0000000E+000	-74.3089	0.0000000E+000	0.0000000E+000	0.0000000E+000	-15.6911	0.0000000E+000	0.0000000E+000	0.0000000E+000	15.6911	3.55973	74.3089	-9.30265e-06	-0.000296322	2.22493e-08	-0.000296345	3.78854	48429.9	3.63634	48433.5
251.044	5.00442	1.34656	5.18242	-15.0601	16.7081	3.78825	-0.0772109	470.809	31.7856	1	10	0.00473055	0.000912807	0	-0.000210096	2.10652e-05	5.46071e-06	-14.6751	0.00598233	0.00578717	0.00151555	-15.0596	5.1884	5.01021	1.34807	0.186333	0.0501372	0.19296	15.0601	31785.6	118130	122331	-74.9399	0.0000000E+000	0.0000000E+000	0.0000000E+000	74.9399	0.0000000E+000	0.0000000E+000	0.0000000E+000	-74.9399	0.0000000E+000	0.0000000E+000	0.0000000E+000	-15.0601	0.0000000E+000	0.0000000E+000	0.0000000E+000	15.0601	3.71645	74.9399	-9.60187e-06	-0.000292494	-1.62646e-09	-0.000292492	3.78823	49063.7	0.272827	49063.4
[...]
0.0602816	7.68192	1.03486	7.75131	-7.67236	240.183	3.78828	-0.0401621	2.55124e+06	45474.5	1	11	0.0050592	0.000652689	0	-0.00602398	-0.000322628	9.56651e-07	-32.8091	0.00146571	0.0012319	0.00079418	-7.67697	7.75264	7.68315	1.03566	0.127855	0.0172239	0.12901	7.67236	4.54745e+07	3.37563e+08	3.40612e+08	-82.3276	0.0000000E+000	0.0000000E+000	0.0000000E+000	82.3276	0.0000000E+000	0.0000000E+000	0.0000000E+000	-82.3276	0.0000000E+000	0.0000000E+000	0.0000000E+000	-7.67236	0.0000000E+000	0.0000000E+000	0.0000000E+000	7.67236	7.42312	82.3276	0.000000000000000E+000	-0.000152145	1.29574e-08	-0.000152158	3.7886	94324.7	8.03314	94332.7
0.00796479	10.317	1.91931	10.494	-10.5385	20329	3.78833	0.00152525	1.04112e+07	348265	1	11	0.00505369	0.000481579	0	-0.0349158	0.0002311	5.56699e-07	-160.078	0.00115599	-0.00108681	0.000393895	-10.5417	10.493	10.3159	1.91971	0.0936851	0.0174286	0.0952925	10.5385	3.48265e+08	1.87205e+09	1.90417e+09	-79.4615	0.0000000E+000	0.0000000E+000	0.0000000E+000	79.4615	0.0000000E+000	0.0000000E+000	0.0000000E+000	-79.4615	0.0000000E+000	0.0000000E+000	0.0000000E+000	-10.5385	0.0000000E+000	0.0000000E+000	0.0000000E+000	10.5385	5.37535	79.4615	-0.0288918	5.77813e-06	3.52484e-10	5.77778e-06	3.7881	2.48375e+06	151.517	2.4836e+06
0.0019912	11.7947	2.97697	12.1646	-14.1656	20329	3.78833	0.00152525	2.68492e+07	1.60801e+06	1	11	0.00506522	0.000416392	0	-0.0349158	0.0002311	4.36455e-07	76.7365	0.00104818	0.000240484	-0.00102022	-14.1606	12.1645	11.7949	2.97595	0.0797064	0.0201179	0.0822061	14.1656	1.60801e+09	6.37088e+09	6.57067e+09	-75.8344	0.0000000E+000	0.0000000E+000	0.0000000E+000	75.8344	0.0000000E+000	0.0000000E+000	0.0000000E+000	-75.8344	0.0000000E+000	0.0000000E+000	0.0000000E+000	-14.1656	0.0000000E+000	0.0000000E+000	0.0000000E+000	14.1656	3.96197	75.8344	0.000000000000000E+000	5.77813e-06	3.52484e-10	5.77778e-06	3.7881	2.48375e+06	151.517	2.4836e+06
0.000497799	12.2824	7.59502	14.441	-31.7312	20329	3.78833	0.00152525	4.20956e+07	1.16439e+07	1	11	0.00506579	0.000350792	0	-0.0349158	0.0002311	5.59671e-07	118.066	0.00159545	-0.000750642	-0.00140783	-31.728	14.4396	12.2817	7.59361	0.0588965	0.0364195	0.0692473	31.7312	1.16439e+10	1.88302e+10	2.21395e+10	-58.2688	0.0000000E+000	0.0000000E+000	0.0000000E+000	58.2688	0.0000000E+000	0.0000000E+000	0.0000000E+000	-58.2688	0.0000000E+000	0.0000000E+000	0.0000000E+000	-31.7312	0.0000000E+000	0.0000000E+000	0.0000000E+000	31.7312	1.61717	58.2688	0.000000000000000E+000	5.77813e-06	3.52484e-10	5.77778e-06	3.7881	2.48375e+06	151.517	2.4836e+06
9.95598e-05	14.0113	39.2953	41.7186	-70.3755	20329	3.78833	0.00152525	4.06814e+07	3.60926e+07	1	11	0.00506256	0.00012135	0	-0.0349158	0.0002311	5.80632e-06	-103.215	0.0478476	-0.0109385	0.0465805	-70.4111	41.7588	14.0004	39.3419	0.00805047	0.0225778	0.0239702	70.3755	3.60926e+10	1.28694e+10	3.83183e+10	-19.6245	0.0000000E+000	0.0000000E+000	0.0000000E+000	19.6245	0.0000000E+000	0.0000000E+000	0.0000000E+000	-19.6245	0.0000000E+000	0.0000000E+000	0.0000000E+000	-70.3755	0.0000000E+000	0.0000000E+000	0.0000000E+000	70.3755	0.356566	19.6245	0.000000000000000E+000	5.77813e-06	3.52484e-10	5.77778e-06	3.7881	2.48375e+06	151.517	2.4836e+06

File: 17548_R290_UC82_50SOC_C04.mpt
EC-Lab ASCII FILE
Nb header lines : 64

Potentio Electrochemical Impedance Spectroscopy

Run on channel : 4 (SN 66756)
User :
CE vs. WE compliance from -10 V to 10 V
Electrode connection : standard
Potential control : Ewe
Ewe ctrl range : min = -10.00 V, max = 10.00 V
Safety Limits :
	Do not start on E overload
Acquisition started on : 09/16/2025 16:52:27.804
Loaded Setting File :  C:\Users\Celltest\OneDrive - store-dot.com\Documents\EC-Lab\Data\Michael\UC74_NCMA_16706_EIS_50_SOC.mps
Saved on :
	File : 17548_R290_UC82_50SOC_C04.mpr
	Directory : C:\Users\Celltest\OneDrive - store-dot.com\Documents\EC-Lab\Data\Michael\R290\
	Host : 169.254.61.224
Device : VMP-3e (SN .003165)
Address : USB
EC-LAB for windows v11.62 (software)
Internet server v27.00 (firmware)
Command interpretor v12.03 (firmware)
Electrode material :
Initial state :
Electrolyte :
Comments :
Electrode surface area : 0.001 cm²
Characteristic mass : 0.001 g
Equivalent Weight : 0.000 g/eq.
Density : 0.000 g/cm3
Volume (V) : 0.001 cm³
Record Ece
Cycle Definition : Charge/Discharge alternance
Mode                Multi sine
E (V)               0.0000
vs.                 Eoc
tE (h:m:s)          0:00:0.0000
record              0
dI                  0.000
unit dI             mA
dt (s)              0.000
fi                  1.000
unit fi             MHz
ff                  0.100
unit ff             mHz
Nd                  10
Points              per decade
spacing             Logarithmic
Va (mV)             5.0
pw                  0.10
Na                  2
corr                0
E range min (V)     -10.000
E range max (V)     10.000
I Range             Auto
Bandwidth           5
nc cycles           0
goto Ns'            0
nr cycles           0
inc. cycle          0

freq/Hz	Re(Z)/Ohm	-Im(Z)/Ohm	|Z|/Ohm	Phase(Z)/deg	time/s	<Ewe>/V	<I>/mA	Cs/µF	Cp/µF	cycle number	I Range	|Ewe|/V	|I|/A	Ns	(Q-Qo)/mA.h	<Ece>/V	|Ece|/V	Phase(Zce)/deg	|Zce|/Ohm	Re(Zce)/Ohm	-Im(Zce)/Ohm	Phase(Zwe-ce)/deg	|Zwe-ce|/Ohm	Re(Zwe-ce)/Ohm	-Im(Zwe-ce)/Ohm	Re(Y)/Ohm-1	Im(Y)/Ohm-1	|Y|/Ohm-1	Phase(Y)/deg	Re(C)/nF	Im(C)/nF	|C|/nF	Phase(C)/deg	Re(M)	Im(M)	|M|	Phase(M)/deg	Re(Permittivity)	Im(Permittivity)	|Permittivity|	Phase(Permittivity)/deg	Re(Resistivity)/Ohm.cm	Im(Resistivity)/Ohm.cm	|Resistivity|/Ohm.cm	Phase(Resistivity)/deg	Re(Conductivity)/mS/cm	Im(Conductivity)/mS/cm	|Conductivity|/mS/cm	Phase(Conductivity)/deg	Tan(Delta)	Loss Angle(Delta)/deg	dq/mA.h	Pwe/W	Pce/W	Pwe-ce/W	<Ewe-Ece>/V	Rwe/Ohm	Rce/Ohm	Rwe-ce/Ohm		Ewe-Ece/V
1.00002e+06	0.931631	-0.14818	0.943342	9.03746	2.23456	3.78908	0.110601	-1.07404	-0.0265011	1	9	0.000195757	0.000207514	0	-1.11171e-05	4.12549e-05	0.00018038	3.91064	0.869245	0.867221	-0.0592831	6.57891	1.81078	1.79885	-0.207463	1.0469	-0.166515	1.06006	-9.03746	-26.5011	166.616	168.711	-99.0375	0.0000000E+000	0.0000000E+000	0.0000000E+000	99.0375	0.0000000E+000	0.0000000E+000	0.0000000E+000	-99.0375	0.0000000E+000	0.0000000E+000	0.0000000E+000	9.03746	0.0000000E+000	0.0000000E+000	0.0000000E+000	-9.03746	6.28714	80.9625	-1.11171e-05	0.000419076	4.56284e-09	0.000419072	3.78904	34258.9	0.373006	34258.6
251206	0.711477	0.310477	0.77627	-23.5757	4.53652	3.78767	-0.114227	2.04061	0.326433	1	9	0.0019466	0.00250763	0	-6.67698e-05	-0.000111625	4.07553e-05	82.8665	0.0162525	0.00201827	-0.0161267	-22.4185	0.771827	0.713495	0.294351	1.18069	0.515233	1.28821	23.5757	326.433	748.04	816.163	-66.4243	0.0000000E+000	0.0000000E+000	0.0000000E+000	66.4243	0.0000000E+000	0.0000000E+000	0.0000000E+000	-66.4243	0.0000000E+000	0.0000000E+000	0.0000000E+000	-23.5757	0.0000000E+000	0.0000000E+000	0.0000000E+000	23.5757	2.29156	66.4243	-1.27308e-05	-0.000432655	1.27505e-08	-0.000432667	3.78779	33159.2	0.977219	33160.2
63093.8	1.26512	0.729141	1.46019	-29.9567	6.83652	3.78756	-0.114003	3.45957	0.862627	1	9	0.00540784	0.00370351	0	-0.000127687	-7.34048e-05	3.09359e-05	54.6245	0.00835315	0.00483591	-0.00681095	-29.6306	1.46101	1.26995	0.72233	0.593348	0.341972	0.68484	29.9567	862.627	1496.73	1727.52	-60.0433	0.0000000E+000	0.0000000E+000	0.0000000E+000	60.0433	0.0000000E+000	0.0000000E+000	0.0000000E+000	-60.0433	0.0000000E+000	0.0000000E+000	0.0000000E+000	-29.9567	0.0000000E+000	0.0000000E+000	0.0000000E+000	29.9567	1.73508	60.0433	-1.30862e-05	-0.000431794	8.36838e-09	-0.000431802	3.78763	33223.3	0.643884	33223.9
15847.7	2.04154	0.694261	2.15636	-18.7815	9.01054	3.78758	-0.10535	14.4654	1.49946	1	9	0.00537733	0.00249371	0	-0.000197314	-0.000264504	1.686e-05	-123.614	0.006761	-0.00374282	0.00563049	-18.9553	2.15463	2.03779	0.699891	0.439052	0.149308	0.463745	18.7815	1499.46	4409.31	4657.3	-71.2185	0.0000000E+000	0.0000000E+000	0.0000000E+000	71.2185	0.0000000E+000	0.0000000E+000	0.0000000E+000	-71.2185	0.0000000E+000	0.0000000E+000	0.0000000E+000	-18.7815	0.0000000E+000	0.0000000E+000	0.0000000E+000	18.7815	2.94059	71.2185	-7.90291e-06	-0.000399022	2.78656e-08	-0.00039905	3.78784	35952.3	2.51072	35954.8
3983.6	2.52226	0.673683	2.61068	-14.9543	10.6111	3.78743	-0.161445	59.3046	3.94906	1	9	0.00527123	0.0020191	0	-0.00024274	-5.42949e-05	1.34836e-05	-108.147	0.00667802	-0.00207988	0.00634587	-15.1007	2.61031	2.52018	0.680029	0.370069	0.0988439	0.383042	14.9543	3949.06	14785.2	15303.5	-75.0457	0.0000000E+000	0.0000000E+000	0.0000000E+000	75.0457	0.0000000E+000	0.0000000E+000	0.0000000E+000	-75.0457	0.0000000E+000	0.0000000E+000	0.0000000E+000	-14.9543	0.0000000E+000	0.0000000E+000	0.0000000E+000	14.9543	3.74398	75.0457	-1.0765e-05	-0.000611463	8.76565e-09	-0.000611471	3.78748	23459.5	0.336305	23459.9
1000.32	3.15525	0.99561	3.3086	-17.5126	13.4848	3.78748	-0.096114	159.805	14.4704	1	10	0.00521934	0.00157751	0	-0.000325401	-0.000168955	1.06981e-05	-85.5502	0.00678167	0.000526161	0.00676122	-17.6214	3.31115	3.15578	1.00237	0.288234	0.0909494	0.302242	17.5126	14470.4	45859.1	48088	-72.4874	0.0000000E+000	0.0000000E+000	0.0000000E+000	72.4874	0.0000000E+000	0.0000000E+000	0.0000000E+000	-72.4874	0.0000000E+000	0.0000000E+000	0.0000000E+000	-17.5126	0.0000000E+000	0.0000000E+000	0.0000000E+000	17.5126	3.16916	72.4874	-2.12979e-05	-0.00036403	1.62389e-08	-0.000364046	3.78765	39406.2	1.75786	39407.9
251.044	4.38367	1.27398	4.56504	-16.205	16.1861	3.78748	-0.0979641	497.629	38.7566	1	10	0.00513285	0.00112438	0	-0.00040371	-7.34048e-05	4.94302e-06	70.6627	0.00439621	0.00145571	-0.0041482	-16.1499	4.56528	4.38512	1.26984	0.210353	0.061133	0.219056	16.205	38756.6	133358	138875	-73.795	0.0000000E+000	0.0000000E+000	0.0000000E+000	73.795	0.0000000E+000	0.0000000E+000	0.0000000E+000	-73.795	0.0000000E+000	0.0000000E+000	0.0000000E+000	-16.205	0.0000000E+000	0.0000000E+000	0.0000000E+000	16.205	3.44091	73.795	-1.21958e-05	-0.000371037	7.19104e-09	-0.000371044	3.78755	38661.9	0.749303	38662.6
63.0823	5.46495	0.795013	5.52248	-8.27703	18.905	3.78748	-0.0918354	3173.5	65.7687	1	10	0.00511956	0.00092704	0	-0.000478355	-0.000398274	1.15666e-05	60.6033	0.0124769	0.00612433	-0.0108704	-8.15637	5.52698	5.47108	0.784142	0.179192	0.0260679	0.181078	8.27703	65768.7	452097	456855	-81.723	0.0000000E+000	0.0000000E+000	0.0000000E+000	81.723	0.0000000E+000	0.0000000E+000	0.0000000E+000	-81.723	0.0000000E+000	0.0000000E+000	0.0000000E+000	-8.27703	0.0000000E+000	0.0000000E+000	0.0000000E+000	8.27703	6.87404	81.723	-1.09968e-05	-0.000347825	3.65757e-08	-0.000347861	3.78788	41242	4.33682	41246.4
[...]
0.0602816	6.93596	1.03457	7.0127	-8.48368	239.733	3.7875	-0.0490608	2.55198e+06	55542.2	1	11	0.00508272	0.000724788	0	-0.00714675	-0.000264504	8.83257e-07	-29.0645	0.00121864	0.00106518	0.000592009	-8.48718	7.01384	6.93703	1.03516	0.141038	0.0210372	0.142598	8.48368	5.55422e+07	3.72367e+08	3.76487e+08	-81.5163	0.0000000E+000	0.0000000E+000	0.0000000E+000	81.5163	0.0000000E+000	0.0000000E+000	0.0000000E+000	-81.5163	0.0000000E+000	0.0000000E+000	0.0000000E+000	-8.48368	0.0000000E+000	0.0000000E+000	0.0000000E+000	8.48368	6.70422	81.5163	0.000000000000000E+000	-0.000185818	1.29768e-08	-0.000185831	3.78776	77200.1	5.39136	77205.5
0.00796479	9.47755	2.00344	9.68698	-11.9359	20328.6	3.78749	0.00105621	9.974e+06	426624	1	11	0.00507442	0.000523839	0	-0.0450579	-0.000188065	5.29382e-07	-63.7885	0.00101058	0.000446359	0.000906662	-11.9406	9.68761	9.47799	2.00435	0.100999	0.0213501	0.103231	11.9359	4.26624e+08	2.0182e+09	2.0628e+09	-78.0641	0.0000000E+000	0.0000000E+000	0.0000000E+000	78.0641	0.0000000E+000	0.0000000E+000	0.0000000E+000	-78.0641	0.0000000E+000	0.0000000E+000	0.0000000E+000	-11.9359	0.0000000E+000	0.0000000E+000	0.0000000E+000	11.9359	4.73063	78.0641	-0.0379112	4.00037e-06	-1.98635e-10	4.00057e-06	3.78768	3.58594e+06	178.057	3.58612e+06
0.0019912	11.097	3.10547	11.5234	-15.6341	20328.6	3.78749	0.00105621	2.57382e+07	1.86928e+06	1	11	0.00508773	0.000441514	0	-0.0450579	-0.000188065	6.44156e-07	81.567	0.00145897	0.000213962	-0.00144319	-15.6269	11.5232	11.0972	3.10403	0.0835696	0.0233867	0.0867802	15.6341	1.86928e+09	6.67966e+09	6.93628e+09	-74.3659	0.0000000E+000	0.0000000E+000	0.0000000E+000	74.3659	0.0000000E+000	0.0000000E+000	0.0000000E+000	-74.3659	0.0000000E+000	0.0000000E+000	0.0000000E+000	-15.6341	0.0000000E+000	0.0000000E+000	0.0000000E+000	15.6341	3.57338	74.3659	0.000000000000000E+000	4.00037e-06	-1.98635e-10	4.00057e-06	3.78768	3.58594e+06	178.057	3.58612e+06
0.000497799	11.6906	7.54831	13.9157	-32.8492	20328.7	3.78749	0.00105621	4.23561e+07	1.24625e+07	1	11	0.00508861	0.000365673	0	-0.0450579	-0.000188065	1.37188e-06	-50.8549	0.00375166	0.00236837	0.0029096	-32.854	13.9193	11.693	7.55122	0.0603706	0.0389796	0.0718611	32.8492	1.24625e+10	1.93015e+10	2.29752e+10	-57.1508	0.0000000E+000	0.0000000E+000	0.0000000E+000	57.1508	0.0000000E+000	0.0000000E+000	0.0000000E+000	-57.1508	0.0000000E+000	0.0000000E+000	0.0000000E+000	-32.8492	0.0000000E+000	0.0000000E+000	0.0000000E+000	32.8492	1.54877	57.1508	0.000000000000000E+000	4.00037e-06	-1.98635e-10	4.00057e-06	3.78768	3.58594e+06	178.057	3.58612e+06
9.95598e-05	13.4704	39.3877	41.6274	-71.1195	20328.7	3.78749	0.00105621	4.0586e+07	3.63361e+07	1	11	0.00509071	0.000122292	0	-0.0450579	-0.000188065	7.0911e-07	23.9621	0.00579849	0.00529874	-0.00235495	-71.1115	41.6269	13.4757	39.3853	0.00777362	0.0227301	0.0240226	71.1195	3.6336e+10	1.24268e+10	3.84023e+10	-18.8805	0.0000000E+000	0.0000000E+000	0.0000000E+000	18.8805	0.0000000E+000	0.0000000E+000	0.0000000E+000	-18.8805	0.0000000E+000	0.0000000E+000	0.0000000E+000	-71.1195	0.0000000E+000	0.0000000E+000	0.0000000E+000	71.1195	0.341996	18.8805	0.000000000000000E+000	4.00037e-06	-1.98635e-10	4.00057e-06	3.78768	3.58594e+06	178.057	3.58612e+06