Folder: EIS/txt (part 199)

File: 19746_R319_UC100_SOC50_C02.mpt
EC-Lab ASCII FILE
Nb header lines : 65

Potentio Electrochemical Impedance Spectroscopy

Run on channel : 2 (SN 66139)
User :
CE vs. WE compliance from -10 V to 10 V
Electrode connection : standard
Potential control : Ewe
Ewe ctrl range : min = -10.00 V, max = 10.00 V
Safety Limits :
	Do not start on E overload
Acquisition started on : 12/15/2025 16:10:27.500
Technique started on : 12/15/2025 16:10:30.195
Loaded Setting File :  C:\Users\Celltest\OneDrive - store-dot.com\Documents\EC-Lab\Data\@Biologic Test Protocols\cathode half cell EIS SOC50.mps
Saved on :
	File : 19746_R319_UC100_SOC50_C02.mpr
	Directory : C:\Users\Celltest\OneDrive - store-dot.com\Documents\EC-Lab\Data\Michael\
	Host : 169.254.61.224
Device : VMP-3e (SN .003165)
Address : USB
EC-LAB for windows v11.62 (software)
Internet server v27.00 (firmware)
Command interpretor v12.03 (firmware)
Electrode material :
Initial state :
Electrolyte :
Comments :
Electrode surface area : 0.001 cm²
Characteristic mass : 0.001 g
Equivalent Weight : 0.000 g/eq.
Density : 0.000 g/cm3
Volume (V) : 0.001 cm³
Record Ece
Cycle Definition : Charge/Discharge alternance
Mode                Multi sine
E (V)               0.0000
vs.                 Eoc
tE (h:m:s)          0:00:0.0000
record              0
dI                  0.000
unit dI             mA
dt (s)              0.000
fi                  1.000
unit fi             MHz
ff                  0.100
unit ff             mHz
Nd                  10
Points              per decade
spacing             Logarithmic
Va (mV)             5.0
pw                  0.10
Na                  2
corr                0
E range min (V)     -10.000
E range max (V)     10.000
I Range             Auto
Bandwidth           5
nc cycles           0
goto Ns'            0
nr cycles           0
inc. cycle          0

freq/Hz	Re(Z)/Ohm	-Im(Z)/Ohm	|Z|/Ohm	Phase(Z)/deg	time/s	<Ewe>/V	<I>/mA	Cs/µF	Cp/µF	cycle number	I Range	|Ewe|/V	|I|/A	Ns	(Q-Qo)/mA.h	<Ece>/V	|Ece|/V	Phase(Zce)/deg	|Zce|/Ohm	Re(Zce)/Ohm	-Im(Zce)/Ohm	Phase(Zwe-ce)/deg	|Zwe-ce|/Ohm	Re(Zwe-ce)/Ohm	-Im(Zwe-ce)/Ohm	Re(Y)/Ohm-1	Im(Y)/Ohm-1	|Y|/Ohm-1	Phase(Y)/deg	Re(C)/nF	Im(C)/nF	|C|/nF	Phase(C)/deg	Re(M)	Im(M)	|M|	Phase(M)/deg	Re(Permittivity)	Im(Permittivity)	|Permittivity|	Phase(Permittivity)/deg	Re(Resistivity)/Ohm.cm	Im(Resistivity)/Ohm.cm	|Resistivity|/Ohm.cm	Phase(Resistivity)/deg	Re(Conductivity)/mS/cm	Im(Conductivity)/mS/cm	|Conductivity|/mS/cm	Phase(Conductivity)/deg	Tan(Delta)	Loss Angle(Delta)/deg	dq/mA.h	Pwe/W	Pce/W	Pwe-ce/W	<Ewe-Ece>/V	Rwe/Ohm	Rce/Ohm	Rwe-ce/Ohm		Ewe-Ece/V
1.00002e+06	1.00824	-0.18734	1.0255	10.526	2.69452	3.88264	-0.0255485	-0.849536	-0.0283512	1	9	0.000203132	0.000198081	0	-1.48277e-05	9.04036e-05	0.000179581	-0.990611	0.906603	0.906467	0.0156739	5.12324	1.92239	1.91471	-0.171666	0.958725	-0.178139	0.975135	-10.526	-28.3512	152.583	155.195	-100.526	0.0000000E+000	0.0000000E+000	0.0000000E+000	100.526	0.0000000E+000	0.0000000E+000	0.0000000E+000	-100.526	0.0000000E+000	0.0000000E+000	0.0000000E+000	10.526	0.0000000E+000	0.0000000E+000	0.0000000E+000	-10.526	5.38189	79.474	-1.48277e-05	-9.91954e-05	-2.30967e-09	-9.91931e-05	3.88254	151971	3.53852	151968
251206	0.786559	0.29933	0.84159	-20.8346	4.99954	3.88264	-0.0134062	2.1166	0.267756	1	9	0.00216801	0.00257609	0	-2.66098e-05	0.000109494	2.38576e-05	122.259	0.00926118	-0.00494309	-0.00783169	-20.4527	0.834203	0.781616	0.291499	1.11053	0.422619	1.18823	20.8346	267.756	703.59	752.816	-69.1654	0.0000000E+000	0.0000000E+000	0.0000000E+000	69.1654	0.0000000E+000	0.0000000E+000	0.0000000E+000	-69.1654	0.0000000E+000	0.0000000E+000	0.0000000E+000	-20.8346	0.0000000E+000	0.0000000E+000	0.0000000E+000	20.8346	2.62773	69.1654	-6.12032e-07	-5.20516e-05	-1.46791e-09	-5.20501e-05	3.88253	289615	8.16743	289606
63093.8	1.29873	0.591854	1.42723	-24.4996	7.29752	3.88253	-0.0170191	4.26205	0.732927	1	9	0.00541908	0.00379693	0	-4.47142e-05	0.000109494	1.97829e-05	62.1604	0.00521023	0.00243316	-0.00460719	-24.2909	1.42754	1.30116	0.587246	0.637574	0.290555	0.700659	24.4996	732.927	1608.29	1767.42	-65.5004	0.0000000E+000	0.0000000E+000	0.0000000E+000	65.5004	0.0000000E+000	0.0000000E+000	0.0000000E+000	-65.5004	0.0000000E+000	0.0000000E+000	0.0000000E+000	-24.4996	0.0000000E+000	0.0000000E+000	0.0000000E+000	24.4996	2.19434	65.5004	-1.45464e-05	-6.6077e-05	-1.86349e-09	-6.60752e-05	3.88242	228128	6.43363	228122
15847.7	1.87495	0.54426	1.95234	-16.187	9.47152	3.88252	-0.0221963	18.4522	1.434	1	9	0.00496087	0.00254098	0	-4.53862e-05	-2.41414e-05	1.10531e-05	-32.5254	0.00434995	0.00366767	0.00233885	-16.2228	1.95652	1.87861	0.546599	0.4919	0.142789	0.512205	16.187	1434	4940.04	5143.97	-73.813	0.0000000E+000	0.0000000E+000	0.0000000E+000	73.813	0.0000000E+000	0.0000000E+000	0.0000000E+000	-73.813	0.0000000E+000	0.0000000E+000	0.0000000E+000	-16.187	0.0000000E+000	0.0000000E+000	0.0000000E+000	16.187	3.44495	73.813	-3.34982e-06	-8.61775e-05	5.3585e-10	-8.6178e-05	3.88254	174918	1.08763	174919
3983.6	2.2636	0.553399	2.33027	-13.738	11.196	3.88234	-0.0933732	72.1949	4.07165	1	9	0.00466639	0.00200251	0	-6.20024e-05	5.2222e-05	1.61465e-05	11.308	0.00806311	0.00790659	-0.00158103	-13.6544	2.33758	2.27151	0.551818	0.416858	0.101912	0.429135	13.738	4071.65	16654.5	17145	-76.262	0.0000000E+000	0.0000000E+000	0.0000000E+000	76.262	0.0000000E+000	0.0000000E+000	0.0000000E+000	-76.262	0.0000000E+000	0.0000000E+000	0.0000000E+000	-13.738	0.0000000E+000	0.0000000E+000	0.0000000E+000	13.738	4.09037	76.262	-8.01598e-06	-0.000362506	-4.87613e-09	-0.000362501	3.88228	41578.7	0.559282	41578.1
1000.32	2.74522	0.872784	2.88062	-17.637	13.8228	3.88248	0.00875505	182.295	16.7346	1	9	0.00454667	0.00157836	0	-6.47448e-05	-0.000195959	6.47097e-06	75.8187	0.0040998	0.00100441	-0.00397486	-17.5556	2.88038	2.74622	0.868809	0.33083	0.10518	0.347148	17.637	16734.6	52636.4	55232.6	-72.363	0.0000000E+000	0.0000000E+000	0.0000000E+000	72.363	0.0000000E+000	0.0000000E+000	0.0000000E+000	-72.363	0.0000000E+000	0.0000000E+000	0.0000000E+000	-17.637	0.0000000E+000	0.0000000E+000	0.0000000E+000	17.637	3.14536	72.363	2.36544e-06	3.39913e-05	-1.71563e-09	3.3993e-05	3.88268	443456	22.3824	443478
251.044	3.8548	1.33153	4.07829	-19.0559	16.7691	3.88244	-0.0414018	476.124	50.7531	1	10	0.00456253	0.00111873	0	-9.04286e-05	3.31311e-05	7.2508e-06	-107.458	0.00648125	-0.00194442	0.00618271	-19.147	4.07848	3.85286	1.33771	0.231764	0.0800558	0.245201	19.0559	50753.1	146932	155450	-70.9441	0.0000000E+000	0.0000000E+000	0.0000000E+000	70.9441	0.0000000E+000	0.0000000E+000	0.0000000E+000	-70.9441	0.0000000E+000	0.0000000E+000	0.0000000E+000	-19.0559	0.0000000E+000	0.0000000E+000	0.0000000E+000	19.0559	2.89503	70.9441	-5.82122e-06	-0.00016074	-1.37169e-09	-0.000160739	3.88241	93774.6	0.800233	93773.8
[...]
0.0602816	6.67991	1.01394	6.75643	-8.63104	240.316	3.88246	-0.0272351	2.60388e+06	58642.8	1	11	0.00500022	0.000740069	0	-0.00496009	0.000128585	7.0101e-07	7.40055	0.000947223	0.000939332	-0.000122007	-8.62883	6.75734	6.68085	1.01382	0.146331	0.0222116	0.148007	8.63104	5.86428e+07	3.86342e+08	3.90767e+08	-81.369	0.0000000E+000	0.0000000E+000	0.0000000E+000	81.369	0.0000000E+000	0.0000000E+000	0.0000000E+000	-81.369	0.0000000E+000	0.0000000E+000	0.0000000E+000	-8.63104	0.0000000E+000	0.0000000E+000	0.0000000E+000	8.63104	6.58805	81.369	0.000000000000000E+000	-0.000105739	-3.50204e-09	-0.000105736	3.88233	142553	4.7213	142548
0.00796479	8.64929	2.20705	8.92643	-14.3148	20329.3	3.88247	0.00100642	9.05386e+06	553480	1	11	0.00499525	0.000559602	0	-0.061134	0.000204949	1.84228e-07	-85.4132	0.000329213	2.63271e-05	0.000328159	-14.3168	8.92654	8.64931	2.20738	0.108549	0.0276985	0.112027	14.3148	5.5348e+08	2.16905e+09	2.23856e+09	-75.6852	0.0000000E+000	0.0000000E+000	0.0000000E+000	75.6852	0.0000000E+000	0.0000000E+000	0.0000000E+000	-75.6852	0.0000000E+000	0.0000000E+000	0.0000000E+000	-14.3148	0.0000000E+000	0.0000000E+000	0.0000000E+000	14.3148	3.91894	75.6852	-0.0561739	3.90739e-06	2.06264e-10	3.90718e-06	3.88227	3.85772e+06	203.642	3.85751e+06
0.0019912	10.1429	3.7948	10.8295	-20.5126	20329.3	3.88247	0.00100642	2.10629e+07	2.58629e+06	1	11	0.00500851	0.000462487	0	-0.061134	0.000204949	4.03121e-07	-67.8732	0.000871638	0.000328309	0.000807444	-20.5159	10.8301	10.1432	3.79561	0.0864854	0.0323572	0.0923402	20.5126	2.58629e+09	6.91272e+09	7.38069e+09	-69.4874	0.0000000E+000	0.0000000E+000	0.0000000E+000	69.4874	0.0000000E+000	0.0000000E+000	0.0000000E+000	-69.4874	0.0000000E+000	0.0000000E+000	0.0000000E+000	-20.5126	0.0000000E+000	0.0000000E+000	0.0000000E+000	20.5126	2.67284	69.4874	0.000000000000000E+000	3.90739e-06	2.06264e-10	3.90718e-06	3.88227	3.85772e+06	203.642	3.85751e+06
0.000497799	10.7194	10.4874	14.9964	-44.373	20329.3	3.88247	0.00100642	3.04859e+07	1.49094e+07	1	11	0.00500743	0.000333909	0	-0.061134	0.000204949	2.03168e-06	-57.3096	0.00608453	0.00328626	0.00512075	-44.3782	15.0023	10.7227	10.4925	0.047665	0.0466331	0.0666828	44.373	1.49094e+10	1.52393e+10	2.13196e+10	-45.627	0.0000000E+000	0.0000000E+000	0.0000000E+000	45.627	0.0000000E+000	0.0000000E+000	0.0000000E+000	-45.627	0.0000000E+000	0.0000000E+000	0.0000000E+000	-44.373	0.0000000E+000	0.0000000E+000	0.0000000E+000	44.373	1.02213	45.627	0.000000000000000E+000	3.90739e-06	2.06264e-10	3.90718e-06	3.88227	3.85772e+06	203.642	3.85751e+06
9.95598e-05	8.09958	71.029	71.4893	-83.4945	20329.3	3.88247	0.00100642	2.25061e+07	2.22172e+07	1	11	0.00500181	6.99659e-05	0	-0.061134	0.000204949	3.55159e-06	-88.0118	0.0507618	0.00176113	0.0507312	-83.4977	71.5399	8.10134	71.0797	0.00158482	0.013898	0.0139881	83.4945	2.22172e+10	2.53347e+09	2.23612e+10	-6.50546	0.0000000E+000	0.0000000E+000	0.0000000E+000	6.50546	0.0000000E+000	0.0000000E+000	0.0000000E+000	-6.50546	0.0000000E+000	0.0000000E+000	0.0000000E+000	-83.4945	0.0000000E+000	0.0000000E+000	0.0000000E+000	83.4945	0.114032	6.50546	0.000000000000000E+000	3.90739e-06	2.06264e-10	3.90718e-06	3.88227	3.85772e+06	203.642	3.85751e+06

File: 19747_R319_UC100_SOC50_C03.mpt
EC-Lab ASCII FILE
Nb header lines : 65

Potentio Electrochemical Impedance Spectroscopy

Run on channel : 3 (SN 65921)
User :
CE vs. WE compliance from -10 V to 10 V
Electrode connection : standard
Potential control : Ewe
Ewe ctrl range : min = -10.00 V, max = 10.00 V
Safety Limits :
	Do not start on E overload
Acquisition started on : 12/15/2025 16:10:36.749
Technique started on : 12/15/2025 16:10:38.524
Loaded Setting File :  C:\Users\Celltest\OneDrive - store-dot.com\Documents\EC-Lab\Data\@Biologic Test Protocols\cathode half cell EIS SOC50.mps
Saved on :
	File : 19747_R319_UC100_SOC50_C03.mpr
	Directory : C:\Users\Celltest\OneDrive - store-dot.com\Documents\EC-Lab\Data\Michael\
	Host : 169.254.61.224
Device : VMP-3e (SN .003165)
Address : USB
EC-LAB for windows v11.62 (software)
Internet server v27.00 (firmware)
Command interpretor v12.03 (firmware)
Electrode material :
Initial state :
Electrolyte :
Comments :
Electrode surface area : 0.001 cm²
Characteristic mass : 0.001 g
Equivalent Weight : 0.000 g/eq.
Density : 0.000 g/cm3
Volume (V) : 0.001 cm³
Record Ece
Cycle Definition : Charge/Discharge alternance
Mode                Multi sine
E (V)               0.0000
vs.                 Eoc
tE (h:m:s)          0:00:0.0000
record              0
dI                  0.000
unit dI             mA
dt (s)              0.000
fi                  1.000
unit fi             MHz
ff                  0.100
unit ff             mHz
Nd                  10
Points              per decade
spacing             Logarithmic
Va (mV)             5.0
pw                  0.10
Na                  2
corr                0
E range min (V)     -10.000
E range max (V)     10.000
I Range             Auto
Bandwidth           5
nc cycles           0
goto Ns'            0
nr cycles           0
inc. cycle          0

freq/Hz	Re(Z)/Ohm	-Im(Z)/Ohm	|Z|/Ohm	Phase(Z)/deg	time/s	<Ewe>/V	<I>/mA	Cs/µF	Cp/µF	cycle number	I Range	|Ewe|/V	|I|/A	Ns	(Q-Qo)/mA.h	<Ece>/V	|Ece|/V	Phase(Zce)/deg	|Zce|/Ohm	Re(Zce)/Ohm	-Im(Zce)/Ohm	Phase(Zwe-ce)/deg	|Zwe-ce|/Ohm	Re(Zwe-ce)/Ohm	-Im(Zwe-ce)/Ohm	Re(Y)/Ohm-1	Im(Y)/Ohm-1	|Y|/Ohm-1	Phase(Y)/deg	Re(C)/nF	Im(C)/nF	|C|/nF	Phase(C)/deg	Re(M)	Im(M)	|M|	Phase(M)/deg	Re(Permittivity)	Im(Permittivity)	|Permittivity|	Phase(Permittivity)/deg	Re(Resistivity)/Ohm.cm	Im(Resistivity)/Ohm.cm	|Resistivity|/Ohm.cm	Phase(Resistivity)/deg	Re(Conductivity)/mS/cm	Im(Conductivity)/mS/cm	|Conductivity|/mS/cm	Phase(Conductivity)/deg	Tan(Delta)	Loss Angle(Delta)/deg	dq/mA.h	Pwe/W	Pce/W	Pwe-ce/W	<Ewe-Ece>/V	Rwe/Ohm	Rce/Ohm	Rwe-ce/Ohm		Ewe-Ece/V
1.00002e+06	1.59331	3.086	3.47305	-62.6925	1.77455	3.88443	-0.0944532	0.0515723	0.0407181	1	10	0.000221356	6.37355e-05	0	-5.56377e-05	-0.000127773	0.000196312	-63.2855	3.08011	1.38465	2.75133	-62.9712	6.55307	2.97796	5.83733	0.132093	0.255844	0.287932	62.6925	40.7181	21.0229	45.8249	-27.3075	0.0000000E+000	0.0000000E+000	0.0000000E+000	27.3075	0.0000000E+000	0.0000000E+000	0.0000000E+000	-27.3075	0.0000000E+000	0.0000000E+000	0.0000000E+000	-62.6925	0.0000000E+000	0.0000000E+000	0.0000000E+000	62.6925	0.516304	27.3075	-5.56377e-05	-0.000366897	1.20686e-08	-0.000366909	3.88456	41125.5	1.35277	41126.8
251206	0.770954	0.303734	0.828628	-21.503	4.47754	3.88404	-0.0950677	2.08591	0.280262	1	9	0.00195794	0.00236287	0	-0.000130163	5.88539e-06	5.66552e-05	88.8885	0.0239773	0.000465129	-0.0239728	-19.9336	0.820582	0.771419	0.279761	1.12282	0.442358	1.20681	21.503	280.262	711.375	764.592	-68.497	0.0000000E+000	0.0000000E+000	0.0000000E+000	68.497	0.0000000E+000	0.0000000E+000	0.0000000E+000	-68.497	0.0000000E+000	0.0000000E+000	0.0000000E+000	-21.503	0.0000000E+000	0.0000000E+000	0.0000000E+000	21.503	2.53826	68.497	-9.55174e-06	-0.000369246	-5.5951e-10	-0.000369246	3.88403	40855.5	0.0619073	40855.4
63093.8	1.27422	0.643581	1.42753	-26.7974	6.77752	3.88397	-0.0936133	3.91949	0.796652	1	9	0.00528994	0.00370567	0	-0.000218946	6.31676e-05	1.89289e-05	53.623	0.0051081	0.00302959	-0.00411269	-26.5953	1.42839	1.27725	0.639469	0.625282	0.315817	0.700512	26.7974	796.652	1577.28	1767.05	-63.2026	0.0000000E+000	0.0000000E+000	0.0000000E+000	63.2026	0.0000000E+000	0.0000000E+000	0.0000000E+000	-63.2026	0.0000000E+000	0.0000000E+000	0.0000000E+000	-26.7974	0.0000000E+000	0.0000000E+000	0.0000000E+000	26.7974	1.97989	63.2026	-1.10481e-05	-0.000363591	-5.91332e-09	-0.000363585	3.88391	41489.5	0.674772	41488.9
15847.7	1.92894	0.651236	2.03591	-18.6554	9.07753	3.88397	-0.0825371	15.4211	1.57789	1	9	0.00513239	0.00252093	0	-0.000265577	4.40735e-05	1.31082e-05	0.921813	0.00519973	0.00519906	-8.36531e-05	-18.6065	2.04081	1.93414	0.651153	0.465375	0.157117	0.491182	18.6554	1577.89	4673.66	4932.83	-71.3446	0.0000000E+000	0.0000000E+000	0.0000000E+000	71.3446	0.0000000E+000	0.0000000E+000	0.0000000E+000	-71.3446	0.0000000E+000	0.0000000E+000	0.0000000E+000	-18.6554	0.0000000E+000	0.0000000E+000	0.0000000E+000	18.6554	2.96197	71.3446	-6.30143e-06	-0.000320571	-3.6377e-09	-0.000320568	3.88392	47057.2	0.533984	47056.7
3983.6	2.41741	0.688323	2.51349	-15.8936	11.1741	3.88392	-0.0738477	58.0433	4.35293	1	9	0.00545683	0.00217102	0	-0.000317991	-8.95849e-05	7.7207e-06	34.2223	0.00355626	0.00294054	-0.00200006	-15.8314	2.51577	2.42035	0.686323	0.382644	0.108953	0.397853	15.8936	4352.93	15287.6	15895.2	-74.1064	0.0000000E+000	0.0000000E+000	0.0000000E+000	74.1064	0.0000000E+000	0.0000000E+000	0.0000000E+000	-74.1064	0.0000000E+000	0.0000000E+000	0.0000000E+000	-15.8936	0.0000000E+000	0.0000000E+000	0.0000000E+000	15.8936	3.51202	74.1064	-4.1449e-06	-0.000286818	6.61564e-09	-0.000286825	3.88401	52593.7	1.2131	52594.9
1000.32	3.06282	1.02708	3.23045	-18.5383	14.2628	3.88393	-0.113362	154.909	15.6589	1	10	0.00500362	0.00154889	0	-0.000386659	-0.000108679	5.17422e-06	-117.095	0.00334059	-0.00152155	0.00297396	-18.5968	3.22995	3.0613	1.03005	0.293492	0.0984191	0.309555	18.5383	15658.9	46695.8	49251.4	-71.4617	0.0000000E+000	0.0000000E+000	0.0000000E+000	71.4617	0.0000000E+000	0.0000000E+000	0.0000000E+000	-71.4617	0.0000000E+000	0.0000000E+000	0.0000000E+000	-18.5383	0.0000000E+000	0.0000000E+000	0.0000000E+000	18.5383	2.98207	71.4617	-1.57317e-05	-0.000440292	1.23201e-08	-0.000440304	3.88404	34261.2	0.958687	34262.2
251.044	4.33917	1.33937	4.54118	-17.1539	16.964	3.88392	-0.108082	473.335	41.175	1	10	0.0048865	0.00107604	0	-0.000467843	5.88539e-06	6.04457e-06	-102.69	0.00561741	-0.001234	0.0054802	-17.2246	4.54162	4.33793	1.34485	0.210411	0.0649477	0.220207	17.1539	41175	133395	139605	-72.8461	0.0000000E+000	0.0000000E+000	0.0000000E+000	72.8461	0.0000000E+000	0.0000000E+000	0.0000000E+000	-72.8461	0.0000000E+000	0.0000000E+000	0.0000000E+000	-17.1539	0.0000000E+000	0.0000000E+000	0.0000000E+000	17.1539	3.2397	72.8461	-1.24345e-05	-0.000419783	-6.36106e-10	-0.000419783	3.88392	35934.9	0.0544528	35934.8
[...]
0.0602816	6.9014	1.04944	6.98073	-8.64629	240.515	3.88393	-0.063611	2.5158e+06	56858	1	11	0.00505889	0.000724692	0	-0.00830737	-0.000223243	3.49237e-07	1.40963	0.00048191	0.000481764	-1.18551e-05	-8.6456	6.98121	6.90188	1.04943	0.141623	0.0215356	0.143251	8.64629	5.6858e+07	3.73913e+08	3.78211e+08	-81.3537	0.0000000E+000	0.0000000E+000	0.0000000E+000	81.3537	0.0000000E+000	0.0000000E+000	0.0000000E+000	-81.3537	0.0000000E+000	0.0000000E+000	0.0000000E+000	-8.64629	0.0000000E+000	0.0000000E+000	0.0000000E+000	8.64629	6.57625	81.3537	0.000000000000000E+000	-0.000247061	1.42007e-08	-0.000247075	3.88416	61057.5	3.50951	61061.1
0.00796479	8.83012	2.34863	9.13713	-14.8946	20329.4	3.88393	0.0020479	8.50808e+06	562135	1	11	0.00505347	0.000553069	0	-0.0612844	-0.000452372	3.87236e-07	-2.00269	0.000700158	0.00069973	2.4468e-05	-14.8937	9.13781	8.83082	2.34865	0.105766	0.0281316	0.109444	14.8946	5.62135e+08	2.11346e+09	2.18694e+09	-75.1054	0.0000000E+000	0.0000000E+000	0.0000000E+000	75.1054	0.0000000E+000	0.0000000E+000	0.0000000E+000	-75.1054	0.0000000E+000	0.0000000E+000	0.0000000E+000	-14.8946	0.0000000E+000	0.0000000E+000	0.0000000E+000	14.8946	3.75969	75.1054	-0.052977	7.95389e-06	-9.26411e-10	7.95481e-06	3.88439	1.89655e+06	220.896	1.89677e+06
0.0019912	10.4164	3.93138	11.1336	-20.6777	20329.4	3.88393	0.0020479	2.03311e+07	2.53502e+06	1	11	0.00506443	0.000454879	0	-0.0612844	-0.000452372	3.02424e-07	-67.7069	0.000664846	0.000252206	0.000615152	-20.6802	11.134	10.4166	3.932	0.0840325	0.0317158	0.0898184	20.6777	2.53502e+09	6.71666e+09	7.17912e+09	-69.3223	0.0000000E+000	0.0000000E+000	0.0000000E+000	69.3223	0.0000000E+000	0.0000000E+000	0.0000000E+000	-69.3223	0.0000000E+000	0.0000000E+000	0.0000000E+000	-20.6777	0.0000000E+000	0.0000000E+000	0.0000000E+000	20.6777	2.64954	69.3223	0.000000000000000E+000	7.95389e-06	-9.26411e-10	7.95481e-06	3.88439	1.89655e+06	220.896	1.89677e+06
0.000497799	10.9338	10.5693	15.2072	-44.029	20329.4	3.88393	0.0020479	3.02495e+07	1.46122e+07	1	11	0.00506803	0.000333266	0	-0.0612844	-0.000452372	5.43274e-07	-6.48181	0.00163015	0.00161973	0.000184024	-44.0253	15.2085	10.9354	10.5695	0.0472795	0.0457036	0.0657585	44.029	1.46122e+10	1.51161e+10	2.10241e+10	-45.971	0.0000000E+000	0.0000000E+000	0.0000000E+000	45.971	0.0000000E+000	0.0000000E+000	0.0000000E+000	-45.971	0.0000000E+000	0.0000000E+000	0.0000000E+000	-44.029	0.0000000E+000	0.0000000E+000	0.0000000E+000	44.029	1.03448	45.971	0.000000000000000E+000	7.95389e-06	-9.26411e-10	7.95481e-06	3.88439	1.89655e+06	220.896	1.89677e+06
9.95598e-05	8.54933	73.3211	73.8178	-83.3493	20329.4	3.88393	0.0020479	2.18025e+07	2.15101e+07	1	11	0.00507013	6.86843e-05	0	-0.0612844	-0.000452372	1.53555e-06	82.1799	0.0223566	0.0030419	-0.0221487	-83.3449	73.7962	8.55237	73.299	0.00156895	0.0134557	0.0135469	83.3493	2.15101e+10	2.5081e+09	2.16558e+10	-6.65073	0.0000000E+000	0.0000000E+000	0.0000000E+000	6.65073	0.0000000E+000	0.0000000E+000	0.0000000E+000	-6.65073	0.0000000E+000	0.0000000E+000	0.0000000E+000	-83.3493	0.0000000E+000	0.0000000E+000	0.0000000E+000	83.3493	0.116601	6.65073	0.000000000000000E+000	7.95389e-06	-9.26411e-10	7.95481e-06	3.88439	1.89655e+06	220.896	1.89677e+06