Folder: EIS/txt (part 128)

File: 18807_R307_UC93_28_SOC50_C04.mpt
EC-Lab ASCII FILE
Nb header lines : 65

Potentio Electrochemical Impedance Spectroscopy

Run on channel : 4 (SN 66756)
Grouped channel(s) : 1, 2, 3, 4, 5
User :
CE vs. WE compliance from -10 V to 10 V
Electrode connection : standard
Potential control : Ewe
Ewe ctrl range : min = -10.00 V, max = 10.00 V
Safety Limits :
	Do not start on E overload
Acquisition started on : 11/05/2025 08:59:28.513
Loaded Setting File :  C:\Users\Celltest\OneDrive - store-dot.com\Documents\EC-Lab\Data\@Biologic Test Protocols\cathode half cell EIS SOC50.mps
Saved on :
	File : 18804_R307_UC93_28_SOC00_C04.mpr
	Directory : C:\Users\Celltest\OneDrive - store-dot.com\Documents\EC-Lab\Data\Anna\
	Host : 169.254.61.224
Device : VMP-3e (SN .003165)
Address : USB
EC-LAB for windows v11.62 (software)
Internet server v27.00 (firmware)
Command interpretor v12.03 (firmware)
Electrode material :
Initial state :
Electrolyte :
Comments :
Electrode surface area : 0.001 cm²
Characteristic mass : 0.001 g
Equivalent Weight : 0.000 g/eq.
Density : 0.000 g/cm3
Volume (V) : 0.001 cm³
Record Ece
Cycle Definition : Charge/Discharge alternance
Mode                Multi sine
E (V)               0.0000
vs.                 Eoc
tE (h:m:s)          0:00:0.0000
record              0
dI                  0.000
unit dI             mA
dt (s)              0.000
fi                  1.000
unit fi             MHz
ff                  0.100
unit ff             mHz
Nd                  10
Points              per decade
spacing             Logarithmic
Va (mV)             5.0
pw                  0.10
Na                  2
corr                0
E range min (V)     -10.000
E range max (V)     10.000
I Range             Auto
Bandwidth           5
nc cycles           0
goto Ns'            0
nr cycles           0
inc. cycle          0

freq/Hz	Re(Z)/Ohm	-Im(Z)/Ohm	|Z|/Ohm	Phase(Z)/deg	time/s	<Ewe>/V	<I>/mA	Cs/µF	Cp/µF	cycle number	I Range	|Ewe|/V	|I|/A	Ns	(Q-Qo)/mA.h	<Ece>/V	|Ece|/V	Phase(Zce)/deg	|Zce|/Ohm	Re(Zce)/Ohm	-Im(Zce)/Ohm	Phase(Zwe-ce)/deg	|Zwe-ce|/Ohm	Re(Zwe-ce)/Ohm	-Im(Zwe-ce)/Ohm	Re(Y)/Ohm-1	Im(Y)/Ohm-1	|Y|/Ohm-1	Phase(Y)/deg	Re(C)/nF	Im(C)/nF	|C|/nF	Phase(C)/deg	Re(M)	Im(M)	|M|	Phase(M)/deg	Re(Permittivity)	Im(Permittivity)	|Permittivity|	Phase(Permittivity)/deg	Re(Resistivity)/Ohm.cm	Im(Resistivity)/Ohm.cm	|Resistivity|/Ohm.cm	Phase(Resistivity)/deg	Re(Conductivity)/mS/cm	Im(Conductivity)/mS/cm	|Conductivity|/mS/cm	Phase(Conductivity)/deg	Tan(Delta)	Loss Angle(Delta)/deg	dq/mA.h	Pwe/W	Pce/W	Pwe-ce/W	<Ewe-Ece>/V	Rwe/Ohm	Rce/Ohm	Rwe-ce/Ohm		Ewe-Ece/V
1.00002e+06	3.45139	2.15691	4.06993	-32.0029	1.77452	3.97063	0.0328867	0.0737871	0.0207238	1	10	0.000239597	5.887e-05	0	6.01647e-06	-0.000300622	0.000186166	-65.772	3.16232	1.29772	2.88379	-46.7061	6.9255	4.7491	5.04069	0.208363	0.130214	0.245705	32.0029	20.7238	33.1613	39.1044	-57.9971	0.0000000E+000	0.0000000E+000	0.0000000E+000	57.9971	0.0000000E+000	0.0000000E+000	0.0000000E+000	-57.9971	0.0000000E+000	0.0000000E+000	0.0000000E+000	-32.0029	0.0000000E+000	0.0000000E+000	0.0000000E+000	32.0029	1.60015	57.9971	6.01647e-06	0.000130581	-9.88647e-09	0.000130591	3.97093	120737	9.14115	120746
251206	1.84216	0.396477	1.88434	-12.1462	4.48153	3.96924	-0.0286296	1.59798	0.0707439	1	9	0.00434384	0.00230523	0	-9.61519e-06	-5.21927e-05	5.75474e-05	76.1993	0.0249638	0.00595499	-0.0242432	-11.3878	1.88523	1.84811	0.372234	0.518809	0.11166	0.530689	12.1462	70.7439	328.698	336.225	-77.8538	0.0000000E+000	0.0000000E+000	0.0000000E+000	77.8538	0.0000000E+000	0.0000000E+000	0.0000000E+000	-77.8538	0.0000000E+000	0.0000000E+000	0.0000000E+000	-12.1462	0.0000000E+000	0.0000000E+000	0.0000000E+000	12.1462	4.64632	77.8538	-2.07239e-06	-0.000113638	1.49426e-09	-0.000113639	3.9693	138641	1.82303	138643
63093.8	2.42471	1.03209	2.63523	-23.0573	6.78052	3.96915	-0.0232215	2.44407	0.374899	1	9	0.0052528	0.0019933	0	-2.06636e-05	-0.000338842	1.62009e-05	32.133	0.00812769	0.00688265	-0.00432301	-22.9125	2.63988	2.4316	1.02777	0.349158	0.148621	0.379473	23.0573	374.899	880.756	957.226	-66.9427	0.0000000E+000	0.0000000E+000	0.0000000E+000	66.9427	0.0000000E+000	0.0000000E+000	0.0000000E+000	-66.9427	0.0000000E+000	0.0000000E+000	0.0000000E+000	-23.0573	0.0000000E+000	0.0000000E+000	0.0000000E+000	23.0573	2.34932	66.9427	-3.59284e-06	-9.21697e-05	7.86843e-09	-9.21776e-05	3.96949	170925	14.5917	170940
15847.7	3.56538	1.80093	3.9944	-26.7991	9.08255	3.96914	-0.0239675	5.57644	1.13357	1	9	0.00518267	0.00129748	0	-3.8951e-05	-0.000587272	9.61424e-06	-60.611	0.00740991	0.00363632	0.00645631	-26.8582	4.00056	3.56901	1.80739	0.223461	0.112874	0.25035	26.7991	1133.57	2244.17	2514.21	-63.2009	0.0000000E+000	0.0000000E+000	0.0000000E+000	63.2009	0.0000000E+000	0.0000000E+000	0.0000000E+000	-63.2009	0.0000000E+000	0.0000000E+000	0.0000000E+000	-26.7991	0.0000000E+000	0.0000000E+000	0.0000000E+000	26.7991	1.97974	63.2009	-2.58122e-06	-9.51305e-05	1.40754e-08	-9.51445e-05	3.96973	165605	24.5028	165630
3983.6	5.31756	2.91685	6.06502	-28.7461	11.3321	3.96911	-0.0111816	13.6972	3.16806	1	10	0.00520692	0.000858516	0	-4.99589e-05	-0.000281512	6.47235e-06	5.56175	0.007539	0.00750351	-0.000730668	-28.706	6.07125	5.32507	2.91612	0.14456	0.0792956	0.16488	28.7461	3168.06	5775.54	6587.37	-61.2539	0.0000000E+000	0.0000000E+000	0.0000000E+000	61.2539	0.0000000E+000	0.0000000E+000	0.0000000E+000	-61.2539	0.0000000E+000	0.0000000E+000	0.0000000E+000	-28.7461	0.0000000E+000	0.0000000E+000	0.0000000E+000	28.7461	1.82305	61.2539	-1.06486e-06	-4.43809e-05	3.14775e-09	-4.43841e-05	3.96939	354969	25.1764	354994
1000.32	8.33379	5.12773	9.78497	-31.6037	13.9618	3.96908	-0.0127483	31.0282	8.52094	1	10	0.00486181	0.000496865	0	-6.00551e-05	4.3357e-05	8.95615e-06	-33.4431	0.0180253	0.0150409	0.00993392	-31.6071	9.80299	8.34883	5.13766	0.0870409	0.0535558	0.102198	31.6037	8520.94	13848.6	16260	-58.3963	0.0000000E+000	0.0000000E+000	0.0000000E+000	58.3963	0.0000000E+000	0.0000000E+000	0.0000000E+000	-58.3963	0.0000000E+000	0.0000000E+000	0.0000000E+000	-31.6037	0.0000000E+000	0.0000000E+000	0.0000000E+000	31.6037	1.62524	58.3963	-1.01893e-06	-5.05989e-05	-5.52727e-10	-5.05983e-05	3.96904	311343	3.40101	311339
251.044	14.7435	7.85867	16.7071	-28.0588	16.663	3.96909	-0.0140165	80.6716	17.849	1	10	0.00475431	0.000284568	0	-7.01295e-05	-0.000338842	8.17395e-06	-54.6952	0.0287241	0.0166004	0.0234414	-28.1029	16.7328	14.7601	7.88211	0.0528196	0.0281543	0.0598547	28.0588	17849	33486.1	37946.1	-61.9412	0.0000000E+000	0.0000000E+000	0.0000000E+000	61.9412	0.0000000E+000	0.0000000E+000	0.0000000E+000	-61.9412	0.0000000E+000	0.0000000E+000	0.0000000E+000	-28.0588	0.0000000E+000	0.0000000E+000	0.0000000E+000	28.0588	1.87608	61.9412	-1.3998e-06	-5.56328e-05	4.74939e-09	-5.56376e-05	3.96943	283172	24.1745	283196
[...]
0.0602816	31.9844	4.15872	32.2537	-7.40823	240.928	3.96909	-0.00527728	634856	10554.5	1	11	0.00508294	0.000157592	0	-0.00108195	-0.000243292	5.99004e-07	11.8094	0.00380097	0.00372052	-0.000777891	-7.406	32.2573	31.9882	4.15795	0.0307454	0.00399762	0.0310042	7.40823	1.05545e+07	8.11738e+07	8.1857e+07	-82.5918	0.0000000E+000	0.0000000E+000	0.0000000E+000	82.5918	0.0000000E+000	0.0000000E+000	0.0000000E+000	-82.5918	0.0000000E+000	0.0000000E+000	0.0000000E+000	-7.40823	0.0000000E+000	0.0000000E+000	0.0000000E+000	7.40823	7.69093	82.5918	0.000000000000000E+000	-2.0946e-05	1.28392e-09	-2.09473e-05	3.96934	752110	46.1018	752156
0.00796479	40.8948	9.1494	41.9058	-12.6111	20329.8	3.9691	-0.00100774	2.184e+06	104110	1	11	0.00507567	0.000121121	0	-0.0152384	-0.000300622	4.70271e-07	-17.4128	0.00388265	0.00370472	0.0011619	-12.6116	41.9096	40.8985	9.15056	0.0232873	0.00521008	0.0238631	12.6111	1.0411e+08	4.65335e+08	4.76839e+08	-77.3889	0.0000000E+000	0.0000000E+000	0.0000000E+000	77.3889	0.0000000E+000	0.0000000E+000	0.0000000E+000	-77.3889	0.0000000E+000	0.0000000E+000	0.0000000E+000	-12.6111	0.0000000E+000	0.0000000E+000	0.0000000E+000	12.6111	4.46967	77.3889	-0.0141565	-3.99983e-06	3.0295e-10	-4.00013e-06	3.9694	3.9386e+06	298.312	3.9389e+06
0.0019912	50.7405	14.1274	52.6706	-15.5585	20329.8	3.9691	-0.00100774	5.65774e+06	407036	1	11	0.00508857	9.66112e-05	0	-0.0152384	-0.000300622	7.16388e-07	-18.3781	0.00741517	0.00703697	0.0023379	-15.5589	52.678	50.7476	14.1298	0.0182902	0.00509245	0.0189859	15.5585	4.07036e+08	1.46193e+09	1.51753e+09	-74.4415	0.0000000E+000	0.0000000E+000	0.0000000E+000	74.4415	0.0000000E+000	0.0000000E+000	0.0000000E+000	-74.4415	0.0000000E+000	0.0000000E+000	0.0000000E+000	-15.5585	0.0000000E+000	0.0000000E+000	0.0000000E+000	15.5585	3.59164	74.4415	0.000000000000000E+000	-3.99983e-06	3.0295e-10	-4.00013e-06	3.9694	3.9386e+06	298.312	3.9389e+06
0.000497799	58.8312	19.4704	61.9694	-18.3121	20329.8	3.9691	-0.00100774	1.64207e+07	1.62101e+06	1	11	0.00509103	8.21539e-05	0	-0.0152384	-0.000300622	5.16223e-07	-8.55673	0.00628361	0.00621367	0.000934929	-18.3111	61.9756	58.8375	19.4713	0.0153198	0.00507013	0.016137	18.3121	1.62101e+09	4.898e+09	5.15927e+09	-71.6879	0.0000000E+000	0.0000000E+000	0.0000000E+000	71.6879	0.0000000E+000	0.0000000E+000	0.0000000E+000	-71.6879	0.0000000E+000	0.0000000E+000	0.0000000E+000	-18.3121	0.0000000E+000	0.0000000E+000	0.0000000E+000	18.3121	3.02158	71.6879	0.000000000000000E+000	-3.99983e-06	3.0295e-10	-4.00013e-06	3.9694	3.9386e+06	298.312	3.9389e+06
9.95598e-05	69.6719	79.8871	106.001	-48.9074	20329.8	3.9691	-0.00100774	2.00106e+07	1.13657e+07	1	11	0.00508726	4.79928e-05	0	-0.0152384	-0.000300622	1.72243e-06	-98.5028	0.0358894	-0.00530652	0.035495	-48.9222	106.024	69.6666	79.9226	0.0062007	0.00710985	0.00943391	48.9074	1.13657e+10	9.91236e+09	1.50809e+10	-41.0926	0.0000000E+000	0.0000000E+000	0.0000000E+000	41.0926	0.0000000E+000	0.0000000E+000	0.0000000E+000	-41.0926	0.0000000E+000	0.0000000E+000	0.0000000E+000	-48.9074	0.0000000E+000	0.0000000E+000	0.0000000E+000	48.9074	0.872129	41.0926	0.000000000000000E+000	-3.99983e-06	3.0295e-10	-4.00013e-06	3.9694	3.9386e+06	298.312	3.9389e+06

File: 18808_R307_UC93_28_SOC50_C05.mpt
EC-Lab ASCII FILE
Nb header lines : 65

Potentio Electrochemical Impedance Spectroscopy

Run on channel : 5 (SN 65912)
Grouped channel(s) : 1, 2, 3, 4, 5
User :
CE vs. WE compliance from -10 V to 10 V
Electrode connection : standard
Potential control : Ewe
Ewe ctrl range : min = -10.00 V, max = 10.00 V
Safety Limits :
	Do not start on E overload
Acquisition started on : 11/05/2025 08:59:28.513
Loaded Setting File :  C:\Users\Celltest\OneDrive - store-dot.com\Documents\EC-Lab\Data\@Biologic Test Protocols\cathode half cell EIS SOC50.mps
Saved on :
	File : 18804_R307_UC93_28_SOC00_C05.mpr
	Directory : C:\Users\Celltest\OneDrive - store-dot.com\Documents\EC-Lab\Data\Anna\
	Host : 169.254.61.224
Device : VMP-3e (SN .003165)
Address : USB
EC-LAB for windows v11.62 (software)
Internet server v27.00 (firmware)
Command interpretor v12.03 (firmware)
Electrode material :
Initial state :
Electrolyte :
Comments :
Electrode surface area : 0.001 cm²
Characteristic mass : 0.001 g
Equivalent Weight : 0.000 g/eq.
Density : 0.000 g/cm3
Volume (V) : 0.001 cm³
Record Ece
Cycle Definition : Charge/Discharge alternance
Mode                Multi sine
E (V)               0.0000
vs.                 Eoc
tE (h:m:s)          0:00:0.0000
record              0
dI                  0.000
unit dI             mA
dt (s)              0.000
fi                  1.000
unit fi             MHz
ff                  0.100
unit ff             mHz
Nd                  10
Points              per decade
spacing             Logarithmic
Va (mV)             5.0
pw                  0.10
Na                  2
corr                0
E range min (V)     -10.000
E range max (V)     10.000
I Range             Auto
Bandwidth           5
nc cycles           0
goto Ns'            0
nr cycles           0
inc. cycle          0

freq/Hz	Re(Z)/Ohm	-Im(Z)/Ohm	|Z|/Ohm	Phase(Z)/deg	time/s	<Ewe>/V	<I>/mA	Cs/µF	Cp/µF	cycle number	I Range	|Ewe|/V	|I|/A	Ns	(Q-Qo)/mA.h	<Ece>/V	|Ece|/V	Phase(Zce)/deg	|Zce|/Ohm	Re(Zce)/Ohm	-Im(Zce)/Ohm	Phase(Zwe-ce)/deg	|Zwe-ce|/Ohm	Re(Zwe-ce)/Ohm	-Im(Zwe-ce)/Ohm	Re(Y)/Ohm-1	Im(Y)/Ohm-1	|Y|/Ohm-1	Phase(Y)/deg	Re(C)/nF	Im(C)/nF	|C|/nF	Phase(C)/deg	Re(M)	Im(M)	|M|	Phase(M)/deg	Re(Permittivity)	Im(Permittivity)	|Permittivity|	Phase(Permittivity)/deg	Re(Resistivity)/Ohm.cm	Im(Resistivity)/Ohm.cm	|Resistivity|/Ohm.cm	Phase(Resistivity)/deg	Re(Conductivity)/mS/cm	Im(Conductivity)/mS/cm	|Conductivity|/mS/cm	Phase(Conductivity)/deg	Tan(Delta)	Loss Angle(Delta)/deg	dq/mA.h	Pwe/W	Pce/W	Pwe-ce/W	<Ewe-Ece>/V	Rwe/Ohm	Rce/Ohm	Rwe-ce/Ohm		Ewe-Ece/V
1.00002e+06	2.09896	2.61184	3.35072	-51.2136	2.40952	3.97177	0.0444293	0.0609347	0.0370239	1	10	0.000217671	6.49624e-05	0	1.38513e-05	-5.94036e-05	0.00019412	-69.8581	2.98819	1.02897	2.80544	-59.998	6.25547	3.12793	5.41729	0.18695	0.232632	0.298443	51.2136	37.0239	29.7535	47.4978	-38.7864	0.0000000E+000	0.0000000E+000	0.0000000E+000	38.7864	0.0000000E+000	0.0000000E+000	0.0000000E+000	-38.7864	0.0000000E+000	0.0000000E+000	0.0000000E+000	-51.2136	0.0000000E+000	0.0000000E+000	0.0000000E+000	51.2136	0.803629	38.7864	1.38513e-05	0.000176463	-2.63926e-09	0.000176466	3.97183	89395.3	1.33704	89396.7
251206	1.49709	0.441684	1.56088	-16.4376	5.23652	3.97018	1.57067e-05	1.43443	0.114858	1	9	0.00354278	0.00226973	0	1.59898e-05	5.51437e-05	5.38836e-05	85.3096	0.0237401	0.00194127	-0.0236606	-15.5818	1.55622	1.49903	0.418023	0.614479	0.181289	0.640664	16.4376	114.858	389.311	405.901	-73.5624	0.0000000E+000	0.0000000E+000	0.0000000E+000	73.5624	0.0000000E+000	0.0000000E+000	0.0000000E+000	-73.5624	0.0000000E+000	0.0000000E+000	0.0000000E+000	-16.4376	0.0000000E+000	0.0000000E+000	0.0000000E+000	16.4376	3.3895	73.5624	6.4711e-07	6.23584e-08	8.66125e-13	6.23575e-08	3.97012	2.5277e+08	3510.84	2.52766e+08
0.0000000E+000	0.0000000E+000	0.0000000E+000	0.0000000E+000	0.0000000E+000	0.000000000000000E+000	0.0000000E+000	0.0000000E+000	0.0000000E+000	0.0000000E+000	0.000000000000000E+000	0	0.0000000E+000	0.0000000E+000	0	0.000000000000000E+000	0.0000000E+000	0.0000000E+000	0.0000000E+000	0.0000000E+000	0.0000000E+000	0.0000000E+000	0.0000000E+000	0.0000000E+000	0.0000000E+000	0.0000000E+000	0.0000000E+000	0.0000000E+000	0.0000000E+000	0.0000000E+000	0.0000000E+000	0.0000000E+000	0.0000000E+000	-90	0.0000000E+000	0.0000000E+000	0.0000000E+000	90	0.0000000E+000	0.0000000E+000	0.0000000E+000	-90	0.0000000E+000	0.0000000E+000	0.0000000E+000	0.0000000E+000	0.0000000E+000	0.0000000E+000	0.0000000E+000	0.0000000E+000	0.0000000E+000	90	0.000000000000000E+000	0.0000000E+000	0.0000000E+000	0.0000000E+000	0.0000000E+000	0.0000000E+000	0.0000000E+000	0.0000000E+000
15847.7	3.70112	1.77775	4.10593	-25.6563	9.83654	3.96988	0.0091022	5.64915	1.05901	1	9	0.00516028	0.00125679	0	1.36687e-06	-7.84948e-05	1.31468e-05	10.6732	0.0104606	0.0102797	-0.00193739	-25.57	4.11436	3.7114	1.77581	0.219538	0.10545	0.24355	25.6563	1059.01	2204.77	2445.92	-64.3437	0.0000000E+000	0.0000000E+000	0.0000000E+000	64.3437	0.0000000E+000	0.0000000E+000	0.0000000E+000	-64.3437	0.0000000E+000	0.0000000E+000	0.0000000E+000	-25.6563	0.0000000E+000	0.0000000E+000	0.0000000E+000	25.6563	2.08191	64.3437	1.36687e-06	3.61347e-05	-7.14476e-10	3.61354e-05	3.96996	436145	8.62372	436154
12590.9	3.96038	1.81021	4.35448	-24.5642	10.4985	3.96989	-0.00654043	6.98284	1.20676	1	10	0.00489813	0.00112485	0	8.35398e-07	5.51437e-05	1.30991e-05	-80.5927	0.0116452	0.00190343	0.0114886	-24.6911	4.361	3.96229	1.8217	0.208864	0.0954679	0.229649	24.5642	1206.76	2640.14	2902.86	-65.4358	0.0000000E+000	0.0000000E+000	0.0000000E+000	65.4358	0.0000000E+000	0.0000000E+000	0.0000000E+000	-65.4358	0.0000000E+000	0.0000000E+000	0.0000000E+000	-24.5642	0.0000000E+000	0.0000000E+000	0.0000000E+000	24.5642	2.1878	65.4358	-5.31476e-07	-2.59648e-05	-3.60663e-10	-2.59644e-05	3.96983	606977	8.4312	606968
3163.08	5.63034	1.95785	5.96103	-19.1743	12.5837	3.96982	-0.00983193	25.6998	2.77235	1	10	0.00535599	0.000898501	0	-3.181e-06	-7.84948e-05	5.89785e-06	-76.6779	0.0065641	0.00151253	0.00638746	-19.2274	5.96456	5.63185	1.96424	0.15845	0.0550983	0.167756	19.1743	2772.35	7972.63	8440.9	-70.8257	0.0000000E+000	0.0000000E+000	0.0000000E+000	70.8257	0.0000000E+000	0.0000000E+000	0.0000000E+000	-70.8257	0.0000000E+000	0.0000000E+000	0.0000000E+000	-19.1743	0.0000000E+000	0.0000000E+000	0.0000000E+000	19.1743	2.87577	70.8257	-3.20219e-07	-3.9031e-05	7.71756e-10	-3.90318e-05	3.9699	403768	7.98366	403776
794.238	7.48382	2.23653	7.81086	-16.6387	15.2901	3.96985	-0.00344258	89.5973	7.34592	1	10	0.0052042	0.000666277	0	-5.61689e-06	0.000112417	1.21049e-05	7.78355	0.0181679	0.0180005	-0.0024605	-16.5837	7.82741	7.50182	2.23407	0.122666	0.0366586	0.128027	16.6387	7345.91	24580.7	25654.9	-73.3613	0.0000000E+000	0.0000000E+000	0.0000000E+000	73.3613	0.0000000E+000	0.0000000E+000	0.0000000E+000	-73.3613	0.0000000E+000	0.0000000E+000	0.0000000E+000	-16.6387	0.0000000E+000	0.0000000E+000	0.0000000E+000	16.6387	3.34618	73.3613	-8.22189e-07	-1.36665e-05	-3.87005e-10	-1.36661e-05	3.96974	1.15316e+06	32.655	1.15313e+06
[...]
3.1604	15.7175	4.67125	16.3969	-16.552	26.8084	3.96988	0.000441922	10780.7	874.958	1	11	0.00513209	0.000312991	0	-1.42583e-05	9.33261e-05	7.16601e-06	51.1697	0.0228952	0.0143557	-0.0178355	-16.478	16.4056	15.7318	4.65341	0.0584599	0.0173743	0.0609871	16.552	874958	2.94399e+06	3.07126e+06	-73.448	0.0000000E+000	0.0000000E+000	0.0000000E+000	73.448	0.0000000E+000	0.0000000E+000	0.0000000E+000	-73.448	0.0000000E+000	0.0000000E+000	0.0000000E+000	-16.552	0.0000000E+000	0.0000000E+000	0.0000000E+000	16.552	3.36472	73.448	-9.35605e-07	1.75438e-06	4.12429e-11	1.75433e-06	3.96978	8.98321e+06	211.182	8.983e+06
0.793708	20.2489	9.20635	22.2436	-24.4493	240.928	3.96985	-0.0012869	21780.7	3731.11	1	11	0.00508484	0.000228598	0	-0.000321713	-0.000135768	5.78419e-07	-35.0688	0.00253029	0.00207095	0.0014538	-24.4505	22.2461	20.251	9.20781	0.0409254	0.0186071	0.0449568	24.4493	3.73111e+06	8.2064e+06	9.01477e+06	-65.5507	0.0000000E+000	0.0000000E+000	0.0000000E+000	65.5507	0.0000000E+000	0.0000000E+000	0.0000000E+000	-65.5507	0.0000000E+000	0.0000000E+000	0.0000000E+000	-24.4493	0.0000000E+000	0.0000000E+000	0.0000000E+000	24.4493	2.19945	65.5507	0.000000000000000E+000	-5.10879e-06	1.7472e-10	-5.10897e-06	3.96999	3.08482e+06	105.501	3.08493e+06
0.200939	29.6444	18.3914	34.8861	-31.8155	240.929	3.96985	-0.0012869	43066.7	11969.3	1	11	0.00509602	0.000146076	0	-0.000321713	-0.000135768	6.52941e-07	-34.2745	0.00446987	0.00369367	0.00251724	-31.8158	34.8905	29.6481	18.3939	0.0243579	0.0151116	0.0286647	31.8155	1.19693e+07	1.92928e+07	2.27041e+07	-58.1845	0.0000000E+000	0.0000000E+000	0.0000000E+000	58.1845	0.0000000E+000	0.0000000E+000	0.0000000E+000	-58.1845	0.0000000E+000	0.0000000E+000	0.0000000E+000	-31.8155	0.0000000E+000	0.0000000E+000	0.0000000E+000	31.8155	1.61186	58.1845	0.000000000000000E+000	-5.10879e-06	1.7472e-10	-5.10897e-06	3.96999	3.08482e+06	105.501	3.08493e+06
0.0502347	49.0853	35.3355	60.4811	-35.7493	240.93	3.96985	-0.0012869	89661.3	30604.7	1	11	0.00510505	8.44073e-05	0	-0.000321713	-0.000135768	6.65743e-07	-48.5314	0.00788726	0.00522302	0.00591007	-35.751	60.4888	49.0905	35.3414	0.0134187	0.00965988	0.0165341	35.7493	3.06047e+07	4.25136e+07	5.23837e+07	-54.2507	0.0000000E+000	0.0000000E+000	0.0000000E+000	54.2507	0.0000000E+000	0.0000000E+000	0.0000000E+000	-54.2507	0.0000000E+000	0.0000000E+000	0.0000000E+000	-35.7493	0.0000000E+000	0.0000000E+000	0.0000000E+000	35.7493	1.38912	54.2507	0.000000000000000E+000	-5.10879e-06	1.7472e-10	-5.10897e-06	3.96999	3.08482e+06	105.501	3.08493e+06
0.0100469	98.6102	70.0694	120.97	-35.3964	240.931	3.96985	-0.0012869	226078	75850.9	1	11	0.00510419	4.21939e-05	0	-0.000321713	-0.000135768	1.67221e-06	17.322	0.0396315	0.0378341	-0.0118	-35.3815	120.994	98.6481	70.0576	0.00673857	0.00478822	0.00826652	35.3964	7.58509e+07	1.06747e+08	1.30951e+08	-54.6036	0.0000000E+000	0.0000000E+000	0.0000000E+000	54.6036	0.0000000E+000	0.0000000E+000	0.0000000E+000	-54.6036	0.0000000E+000	0.0000000E+000	0.0000000E+000	-35.3964	0.0000000E+000	0.0000000E+000	0.0000000E+000	35.3964	1.40732	54.6036	0.000000000000000E+000	-5.10879e-06	1.7472e-10	-5.10897e-06	3.96999	3.08482e+06	105.501	3.08493e+06