Folder: EIS/txt (part 192)

File: 19503_R316_UA716_SOC00_C05.mpt
EC-Lab ASCII FILE
Nb header lines : 65

Potentio Electrochemical Impedance Spectroscopy

Run on channel : 5 (SN 65912)
User :
CE vs. WE compliance from -10 V to 10 V
Electrode connection : standard
Potential control : Ewe
Ewe ctrl range : min = -10.00 V, max = 10.00 V
Safety Limits :
	Do not start on E overload
Acquisition started on : 12/04/2025 15:15:00.169
Technique started on : 12/04/2025 15:15:02.224
Loaded Setting File :  C:\Users\Celltest\OneDrive - store-dot.com\Documents\EC-Lab\Data\@Biologic Test Protocols\anode half cell EIS SOC00.mps
Saved on :
	File : 19503_R316_UA716_SOC00_C05.mpr
	Directory : C:\Users\Celltest\OneDrive - store-dot.com\Documents\EC-Lab\Data\Charmaine\
	Host : 169.254.61.224
Device : VMP-3e (SN .003165)
Address : USB
EC-LAB for windows v11.62 (software)
Internet server v27.00 (firmware)
Command interpretor v12.03 (firmware)
Electrode material :
Initial state :
Electrolyte :
Comments :
Electrode surface area : 0.001 cm²
Characteristic mass : 0.001 g
Equivalent Weight : 0.000 g/eq.
Density : 0.000 g/cm3
Volume (V) : 0.001 cm³
Record Ece
Cycle Definition : Charge/Discharge alternance
Mode                Single sine
E (V)               0.0000
vs.                 Eoc
tE (h:m:s)          0:00:0.0000
record              0
dI                  0.000
unit dI             mA
dt (s)              0.000
fi                  100.000
unit fi             kHz
ff                  10.000
unit ff             mHz
Nd                  6
Points              per decade
spacing             Logarithmic
Va (mV)             5.0
pw                  0.10
Na                  2
corr                0
E range min (V)     -10.000
E range max (V)     10.000
I Range             Auto
Bandwidth           5
nc cycles           0
goto Ns'            0
nr cycles           0
inc. cycle          0

freq/Hz	Re(Z)/Ohm	-Im(Z)/Ohm	|Z|/Ohm	Phase(Z)/deg	time/s	<Ewe>/V	<I>/mA	Cs/µF	Cp/µF	cycle number	I Range	|Ewe|/V	|I|/A	Ns	(Q-Qo)/mA.h	<Ece>/V	|Ece|/V	Phase(Zce)/deg	|Zce|/Ohm	Re(Zce)/Ohm	-Im(Zce)/Ohm	Phase(Zwe-ce)/deg	|Zwe-ce|/Ohm	Re(Zwe-ce)/Ohm	-Im(Zwe-ce)/Ohm	Re(Y)/Ohm-1	Im(Y)/Ohm-1	|Y|/Ohm-1	Phase(Y)/deg	Re(C)/nF	Im(C)/nF	|C|/nF	Phase(C)/deg	Re(M)	Im(M)	|M|	Phase(M)/deg	Re(Permittivity)	Im(Permittivity)	|Permittivity|	Phase(Permittivity)/deg	Re(Resistivity)/Ohm.cm	Im(Resistivity)/Ohm.cm	|Resistivity|/Ohm.cm	Phase(Resistivity)/deg	Re(Conductivity)/mS/cm	Im(Conductivity)/mS/cm	|Conductivity|/mS/cm	Phase(Conductivity)/deg	Tan(Delta)	Loss Angle(Delta)/deg	dq/mA.h	Pwe/W	Pce/W	Pwe-ce/W	<Ewe-Ece>/V	Rwe/Ohm	Rce/Ohm	Rwe-ce/Ohm		Ewe-Ece/V
100004	1.32769	0.487266	1.41428	-20.1533	2.05454	0.219593	0.0231417	3.26616	0.387705	1	9	0.00493846	0.00349186	0	-4.31923e-06	-8.57495e-05	3.5381e-05	61.0194	0.0101324	0.0049093	-0.00886366	-19.7482	1.41587	1.3326	0.478403	0.663783	0.243611	0.707075	20.1533	387.705	1056.4	1125.3	-69.8467	0.0000000E+000	0.0000000E+000	0.0000000E+000	69.8467	0.0000000E+000	0.0000000E+000	0.0000000E+000	-69.8467	0.0000000E+000	0.0000000E+000	0.0000000E+000	-20.1533	0.0000000E+000	0.0000000E+000	0.0000000E+000	20.1533	2.72477	69.8467	-4.31923e-06	5.08174e-06	-1.98439e-09	5.08373e-06	0.219679	9489.08	3.70542	9492.78
31621.1	1.78095	0.762415	1.93728	-23.1755	3.45154	0.219547	0.0202742	6.60163	1.02246	1	9	0.00541242	0.00279382	0	-4.58394e-06	-0.000104841	7.85458e-06	6.1003	0.00281141	0.00279549	-0.000298767	-23.1349	1.93974	1.78375	0.762116	0.474532	0.203144	0.516187	23.1755	1022.46	2388.41	2598.06	-66.8245	0.0000000E+000	0.0000000E+000	0.0000000E+000	66.8245	0.0000000E+000	0.0000000E+000	0.0000000E+000	-66.8245	0.0000000E+000	0.0000000E+000	0.0000000E+000	-23.1755	0.0000000E+000	0.0000000E+000	0.0000000E+000	23.1755	2.33594	66.8245	9.83422e-06	4.45113e-06	-2.12556e-09	4.45326e-06	0.219652	10828.9	5.17115	10834.1
10002.2	2.39631	1.08725	2.63143	-24.4047	4.60252	0.219535	0.0108897	14.635	2.49845	1	9	0.00521011	0.00197996	0	-8.10306e-06	-9.38465e-06	1.2117e-05	-64.941	0.00611984	0.00259206	0.00554379	-24.4912	2.63608	2.3989	1.0928	0.346067	0.157017	0.380022	24.4047	2498.45	5506.6	6046.89	-65.5953	0.0000000E+000	0.0000000E+000	0.0000000E+000	65.5953	0.0000000E+000	0.0000000E+000	0.0000000E+000	-65.5953	0.0000000E+000	0.0000000E+000	0.0000000E+000	-24.4047	0.0000000E+000	0.0000000E+000	0.0000000E+000	24.4047	2.20401	65.5953	2.64872e-06	2.39067e-06	-1.02196e-10	2.39077e-06	0.219544	20159.8	0.86179	20160.7
3163.08	3.21285	1.60311	3.59059	-26.5178	5.62666	0.21942	-0.0360324	31.3867	6.25664	1	9	0.00498579	0.00138857	0	-1.3183e-05	0.000181527	6.88966e-06	-73.6398	0.00496169	0.00139758	0.00476079	-26.5757	3.59397	3.21425	1.60787	0.249206	0.124346	0.278506	26.5178	6256.64	12539.1	14013.4	-63.4822	0.0000000E+000	0.0000000E+000	0.0000000E+000	63.4822	0.0000000E+000	0.0000000E+000	0.0000000E+000	-63.4822	0.0000000E+000	0.0000000E+000	0.0000000E+000	-26.5178	0.0000000E+000	0.0000000E+000	0.0000000E+000	26.5178	2.00413	63.4822	-3.6433e-06	-7.90625e-06	-6.54088e-09	-7.89971e-06	0.219239	6089.52	5.03789	6084.48
1000.32	4.35141	2.5502	5.04364	-30.373	7.22482	0.219474	-0.0142032	62.3888	15.9502	1	10	0.00480941	0.00095356	0	-1.98107e-05	-0.000143023	9.30057e-06	-79.0584	0.00975353	0.0018513	0.00957622	-30.4561	5.05008	4.35326	2.55978	0.171057	0.10025	0.198269	30.373	15950.2	27215.9	31545.5	-59.627	0.0000000E+000	0.0000000E+000	0.0000000E+000	59.627	0.0000000E+000	0.0000000E+000	0.0000000E+000	-59.627	0.0000000E+000	0.0000000E+000	0.0000000E+000	-30.373	0.0000000E+000	0.0000000E+000	0.0000000E+000	30.373	1.7063	59.627	-9.09189e-07	-3.11723e-06	2.03139e-09	-3.11926e-06	0.219617	15452.4	10.0698	15462.5
316.316	6.03822	4.67742	7.63796	-37.7627	8.57407	0.219497	-0.0138123	107.57	40.3414	1	10	0.00467403	0.000611948	0	-2.49235e-05	-4.75671e-05	7.74265e-06	-88.4095	0.0126525	0.000351186	0.0126476	-37.836	7.64599	6.03857	4.69007	0.103503	0.0801774	0.130925	37.7627	40341.4	52077.9	65875.2	-52.2373	0.0000000E+000	0.0000000E+000	0.0000000E+000	52.2373	0.0000000E+000	0.0000000E+000	0.0000000E+000	-52.2373	0.0000000E+000	0.0000000E+000	0.0000000E+000	-37.7627	0.0000000E+000	0.0000000E+000	0.0000000E+000	37.7627	1.29093	52.2373	-1.21233e-06	-3.03175e-06	6.5701e-10	-3.0324e-06	0.219544	15891.4	3.44383	15894.9
100.032	10.0038	9.58577	13.8551	-43.7775	9.9218	0.219489	-0.013708	165.979	79.4492	1	10	0.00463124	0.000334263	0	-3.01346e-05	-0.000123932	6.18772e-06	63.4316	0.0185115	0.00827958	-0.0165567	-43.7043	13.8496	10.0121	9.56921	0.0521132	0.0499354	0.0721756	43.7775	79449.2	82914.1	114834	-46.2225	0.0000000E+000	0.0000000E+000	0.0000000E+000	46.2225	0.0000000E+000	0.0000000E+000	0.0000000E+000	-46.2225	0.0000000E+000	0.0000000E+000	0.0000000E+000	-43.7775	0.0000000E+000	0.0000000E+000	0.0000000E+000	43.7775	1.04361	46.2225	-1.24823e-06	-3.00876e-06	1.69886e-09	-3.01046e-06	0.219613	16011.7	9.04083	16020.8
[...]
1.00006	41.9366	3.47625	42.0805	-4.73858	19.6607	0.219504	-0.0057611	45780.6	312.423	1	12	0.00462955	0.000110017	0	-4.61085e-05	-0.000143023	2.70817e-06	-48.7904	0.024616	0.0162174	0.0185187	-4.76188	42.0982	41.9528	3.49477	0.0236828	0.00196314	0.023764	4.73858	312423	3.76899e+06	3.78192e+06	-85.2614	0.0000000E+000	0.0000000E+000	0.0000000E+000	85.2614	0.0000000E+000	0.0000000E+000	0.0000000E+000	-85.2614	0.0000000E+000	0.0000000E+000	0.0000000E+000	-4.73858	0.0000000E+000	0.0000000E+000	0.0000000E+000	4.73858	12.0637	85.2614	-4.08331e-06	-1.26459e-06	8.2397e-10	-1.26541e-06	0.219647	38101.1	24.8257	38125.9
0.316193	43.5412	2.9108	43.6383	-3.82463	34.004	0.219494	-0.00515289	172924	769.386	1	12	0.00463373	0.000106185	0	-8.41851e-05	-0.000200297	1.93645e-06	-7.46709	0.0182366	0.0180819	0.00236996	-3.82615	43.6565	43.5592	2.91317	0.0228646	0.00152854	0.0229156	3.82463	769385	1.15088e+07	1.15345e+07	-86.1754	0.0000000E+000	0.0000000E+000	0.0000000E+000	86.1754	0.0000000E+000	0.0000000E+000	0.0000000E+000	-86.1754	0.0000000E+000	0.0000000E+000	0.0000000E+000	-3.82463	0.0000000E+000	0.0000000E+000	0.0000000E+000	3.82463	14.9585	86.1754	-1.60913e-05	-1.13103e-06	1.03211e-09	-1.13206e-06	0.219695	42596.4	38.8708	42635.2
0.0999041	45.1194	4.05912	45.3016	-5.14073	79.2119	0.219497	-0.00403569	392468	3150.96	1	12	0.00463447	0.000102303	0	-0.000101169	4.7889e-05	1.69254e-06	9.47924	0.0165445	0.0163185	-0.00272471	-5.13545	45.3176	45.1357	4.0564	0.0219855	0.00197791	0.0220743	5.14073	3.15096e+06	3.50246e+07	3.5166e+07	-84.8593	0.0000000E+000	0.0000000E+000	0.0000000E+000	84.8593	0.0000000E+000	0.0000000E+000	0.0000000E+000	-84.8593	0.0000000E+000	0.0000000E+000	0.0000000E+000	-5.14073	0.0000000E+000	0.0000000E+000	0.0000000E+000	5.14073	11.1155	84.8593	3.14855e-06	-8.85824e-07	-1.93265e-10	-8.85631e-07	0.21945	54389	11.8664	54377.2
0.0315922	47.9082	7.42736	48.4805	-8.81259	222.096	0.219498	-0.000895772	678275	15919.9	1	12	0.0046318	9.55395e-05	0	-0.000118367	0.000200619	2.30722e-06	28.1987	0.0241493	0.0212832	-0.0114113	-8.79541	48.4998	47.9295	7.41595	0.0203833	0.00316009	0.0206268	8.81259	1.59199e+07	1.02687e+08	1.03914e+08	-81.1874	0.0000000E+000	0.0000000E+000	0.0000000E+000	81.1874	0.0000000E+000	0.0000000E+000	0.0000000E+000	-81.1874	0.0000000E+000	0.0000000E+000	0.0000000E+000	-8.81259	0.0000000E+000	0.0000000E+000	0.0000000E+000	8.81259	6.45023	81.1874	-3.12527e-05	-1.9662e-07	-1.79709e-10	-1.96441e-07	0.219298	245038	223.962	244814
0.0100092	53.0782	15.2601	55.2283	-16.0401	673.319	0.219499	-0.000184301	1.04199e+06	79552.8	1	12	0.00463087	8.38495e-05	0	-0.000607767	0.000181527	1.5364e-06	56.5652	0.0183233	0.0100959	-0.015291	-16.0219	55.2338	53.0883	15.2448	0.0174017	0.00500303	0.0181066	16.0401	7.95528e+07	2.76703e+08	2.87912e+08	-73.9599	0.0000000E+000	0.0000000E+000	0.0000000E+000	73.9599	0.0000000E+000	0.0000000E+000	0.0000000E+000	-73.9599	0.0000000E+000	0.0000000E+000	0.0000000E+000	-16.0401	0.0000000E+000	0.0000000E+000	0.0000000E+000	16.0401	3.47824	73.9599	-0.000205191	-4.04541e-08	-3.34558e-11	-4.04206e-08	0.219318	1.19098e+06	984.949	1.19e+06

File: 19504_R316_UA716_SOC00_C06.mpt
EC-Lab ASCII FILE
Nb header lines : 65

Potentio Electrochemical Impedance Spectroscopy

Run on channel : 6 (SN 65795)
User :
CE vs. WE compliance from -10 V to 10 V
Electrode connection : standard
Potential control : Ewe
Ewe ctrl range : min = -10.00 V, max = 10.00 V
Safety Limits :
	Do not start on E overload
Acquisition started on : 12/04/2025 15:15:05.388
Technique started on : 12/04/2025 15:15:07.167
Loaded Setting File :  C:\Users\Celltest\OneDrive - store-dot.com\Documents\EC-Lab\Data\Charmaine\19495_R316_UA628_SOC00_C05.mpr
Saved on :
	File : 19504_R316_UA716_SOC00_C06.mpr
	Directory : C:\Users\Celltest\OneDrive - store-dot.com\Documents\EC-Lab\Data\Charmaine\
	Host : 169.254.61.224
Device : VMP-3e (SN .003165)
Address : USB
EC-LAB for windows v11.62 (software)
Internet server v27.00 (firmware)
Command interpretor v12.03 (firmware)
Electrode material :
Initial state :
Electrolyte :
Comments :
Electrode surface area : 0.001 cm²
Characteristic mass : 0.001 g
Equivalent Weight : 0.000 g/eq.
Density : 0.000 g/cm3
Volume (V) : 0.001 cm³
Record Ece
Cycle Definition : Charge/Discharge alternance
Mode                Single sine
E (V)               0.0000
vs.                 Eoc
tE (h:m:s)          0:00:0.0000
record              0
dI                  0.000
unit dI             mA
dt (s)              0.000
fi                  100.000
unit fi             kHz
ff                  10.000
unit ff             mHz
Nd                  6
Points              per decade
spacing             Logarithmic
Va (mV)             5.0
pw                  0.10
Na                  2
corr                0
E range min (V)     -10.000
E range max (V)     10.000
I Range             Auto
Bandwidth           5
nc cycles           0
goto Ns'            0
nr cycles           0
inc. cycle          0

freq/Hz	Re(Z)/Ohm	-Im(Z)/Ohm	|Z|/Ohm	Phase(Z)/deg	time/s	<Ewe>/V	<I>/mA	Cs/µF	Cp/µF	cycle number	I Range	|Ewe|/V	|I|/A	Ns	(Q-Qo)/mA.h	<Ece>/V	|Ece|/V	Phase(Zce)/deg	|Zce|/Ohm	Re(Zce)/Ohm	-Im(Zce)/Ohm	Phase(Zwe-ce)/deg	|Zwe-ce|/Ohm	Re(Zwe-ce)/Ohm	-Im(Zwe-ce)/Ohm	Re(Y)/Ohm-1	Im(Y)/Ohm-1	|Y|/Ohm-1	Phase(Y)/deg	Re(C)/nF	Im(C)/nF	|C|/nF	Phase(C)/deg	Re(M)	Im(M)	|M|	Phase(M)/deg	Re(Permittivity)	Im(Permittivity)	|Permittivity|	Phase(Permittivity)/deg	Re(Resistivity)/Ohm.cm	Im(Resistivity)/Ohm.cm	|Resistivity|/Ohm.cm	Phase(Resistivity)/deg	Re(Conductivity)/mS/cm	Im(Conductivity)/mS/cm	|Conductivity|/mS/cm	Phase(Conductivity)/deg	Tan(Delta)	Loss Angle(Delta)/deg	dq/mA.h	Pwe/W	Pce/W	Pwe-ce/W	<Ewe-Ece>/V	Rwe/Ohm	Rce/Ohm	Rwe-ce/Ohm		Ewe-Ece/V
100004	1.41948	0.320272	1.45516	-12.7145	1.77855	0.217004	0.0556818	4.96918	0.240713	1	9	0.00249897	0.00171731	0	6.19343e-06	0.000106829	2.88831e-05	54.528	0.0168188	0.00976003	-0.0136972	-12.1066	1.46175	1.42924	0.306575	0.670357	0.15125	0.687209	12.7145	240.713	1066.87	1093.69	-77.2855	0.0000000E+000	0.0000000E+000	0.0000000E+000	77.2855	0.0000000E+000	0.0000000E+000	0.0000000E+000	-77.2855	0.0000000E+000	0.0000000E+000	0.0000000E+000	-12.7145	0.0000000E+000	0.0000000E+000	0.0000000E+000	12.7145	4.43211	77.2855	6.19343e-06	1.20832e-05	5.94843e-09	1.20772e-05	0.216897	3897.21	1.91856	3895.29
31621.1	1.73979	0.724725	1.8847	-22.6147	3.30752	0.21695	0.0230881	6.94495	1.02691	1	9	0.0050604	0.00268499	0	0.000116012	0.000183221	8.44347e-06	74.8865	0.00314469	0.000819923	-0.00303592	-22.5198	1.88429	1.74061	0.721689	0.489793	0.204028	0.530589	22.6147	1026.91	2465.22	2670.55	-67.3853	0.0000000E+000	0.0000000E+000	0.0000000E+000	67.3853	0.0000000E+000	0.0000000E+000	0.0000000E+000	-67.3853	0.0000000E+000	0.0000000E+000	0.0000000E+000	-22.6147	0.0000000E+000	0.0000000E+000	0.0000000E+000	22.6147	2.40062	67.3853	-5.53213e-07	5.00898e-06	4.23024e-09	5.00475e-06	0.216767	9396.62	7.93572	9388.68
10002.2	2.31029	1.00162	2.51807	-23.439	4.33251	0.216956	0.0173516	15.8863	2.51357	1	9	0.00482137	0.00191471	0	0.000127676	0.000297809	7.64233e-06	-135.249	0.00399137	-0.00283458	0.00281001	-23.5234	2.51659	2.30745	1.00443	0.364361	0.157967	0.39713	23.439	2513.57	5797.69	6319.12	-66.561	0.0000000E+000	0.0000000E+000	0.0000000E+000	66.561	0.0000000E+000	0.0000000E+000	0.0000000E+000	-66.561	0.0000000E+000	0.0000000E+000	0.0000000E+000	-23.439	0.0000000E+000	0.0000000E+000	0.0000000E+000	23.439	2.30656	66.561	2.89041e-06	3.76455e-06	5.16748e-09	3.75938e-06	0.216659	12503.5	17.1632	12486.4
3163.08	3.05386	1.48897	3.39751	-25.9925	5.40861	0.216753	-0.0300303	33.7928	6.49044	1	9	0.0049761	0.00146463	0	0.000127291	0.000240515	4.29512e-06	104.536	0.00293256	-0.000736036	-0.00283869	-25.9548	3.39561	3.05312	1.48613	0.264562	0.128992	0.294333	25.9925	6490.44	13311.8	14809.8	-64.0075	0.0000000E+000	0.0000000E+000	0.0000000E+000	64.0075	0.0000000E+000	0.0000000E+000	0.0000000E+000	-64.0075	0.0000000E+000	0.0000000E+000	0.0000000E+000	-25.9925	0.0000000E+000	0.0000000E+000	0.0000000E+000	25.9925	2.05099	64.0075	-2.48124e-06	-6.50918e-06	-7.22275e-09	-6.50195e-06	0.216513	7217.82	8.00908	7209.81
1000.32	4.08723	2.38252	4.73094	-30.2387	7.0068	0.216873	-0.0164534	66.7798	16.9364	1	10	0.00492416	0.00104084	0	0.000125063	0.000355103	1.4851e-05	-15.7924	0.0142682	0.0137297	0.00388315	-30.1957	4.74476	4.10096	2.3864	0.182614	0.106449	0.211374	30.2387	16936.4	29054.6	33630.5	-59.7613	0.0000000E+000	0.0000000E+000	0.0000000E+000	59.7613	0.0000000E+000	0.0000000E+000	0.0000000E+000	-59.7613	0.0000000E+000	0.0000000E+000	0.0000000E+000	-30.2387	0.0000000E+000	0.0000000E+000	0.0000000E+000	30.2387	1.71551	59.7613	-2.84489e-06	-3.5683e-06	-5.84266e-09	-3.56246e-06	0.216518	13181	21.5824	13159.5
316.316	5.6904	4.45505	7.2269	-38.0576	8.35708	0.216876	-0.0167441	112.94	42.9187	1	10	0.00485833	0.000672256	0	0.000119955	0.000145025	1.29404e-05	-46.913	0.0192492	0.0131493	0.014058	-38.081	7.24592	5.70355	4.4691	0.108953	0.0852997	0.138372	38.0576	42918.7	54819.8	69622.1	-51.9424	0.0000000E+000	0.0000000E+000	0.0000000E+000	51.9424	0.0000000E+000	0.0000000E+000	0.0000000E+000	-51.9424	0.0000000E+000	0.0000000E+000	0.0000000E+000	-38.0576	0.0000000E+000	0.0000000E+000	0.0000000E+000	38.0576	1.27729	51.9424	-1.47807e-06	-3.63139e-06	-2.42831e-09	-3.62897e-06	0.216731	12952.4	8.66126	12943.7
100.032	9.59029	9.11595	13.2316	-43.5474	9.70381	0.216876	-0.016718	174.534	82.844	1	10	0.00481417	0.00036384	0	0.000114125	0.000240515	6.8061e-06	-75.888	0.0187063	0.00456093	0.0181418	-43.5907	13.2474	9.59485	9.13409	0.0547784	0.0520691	0.0755769	43.5474	82844	87154.7	120246	-46.4526	0.0000000E+000	0.0000000E+000	0.0000000E+000	46.4526	0.0000000E+000	0.0000000E+000	0.0000000E+000	-46.4526	0.0000000E+000	0.0000000E+000	0.0000000E+000	-43.5474	0.0000000E+000	0.0000000E+000	0.0000000E+000	43.5474	1.05203	46.4526	-2.16025e-06	-3.62574e-06	-4.02094e-09	-3.62172e-06	0.216636	12972.6	14.3866	12958.2
[...]
1.00006	37.8572	2.97423	37.9738	-4.49218	19.4416	0.216904	-0.0066808	53507.9	328.245	1	12	0.00481384	0.000126767	0	9.70708e-05	0.000355103	2.90196e-06	25.36	0.022892	0.020686	-0.00980474	-4.475	37.9937	37.8778	2.96442	0.026253	0.00206256	0.0263339	4.49218	328245	4.17803e+06	4.19091e+06	-85.5078	0.0000000E+000	0.0000000E+000	0.0000000E+000	85.5078	0.0000000E+000	0.0000000E+000	0.0000000E+000	-85.5078	0.0000000E+000	0.0000000E+000	0.0000000E+000	-4.49218	0.0000000E+000	0.0000000E+000	0.0000000E+000	4.49218	12.7284	85.5078	9.81263e-08	-1.44909e-06	-2.37237e-09	-1.44672e-06	0.216549	32466.8	53.1529	32413.6
0.316193	39.2068	2.63206	39.295	-3.84066	33.782	0.216911	-0.0047439	191237	858	1	12	0.00481732	0.000122594	0	6.91237e-05	-0.000160544	3.07382e-06	-86.5537	0.0250732	0.00150722	0.0250279	-3.87692	39.2982	39.2083	2.65709	0.0253913	0.00170459	0.0254485	3.84066	858001	1.27807e+07	1.28094e+07	-86.1593	0.0000000E+000	0.0000000E+000	0.0000000E+000	86.1593	0.0000000E+000	0.0000000E+000	0.0000000E+000	-86.1593	0.0000000E+000	0.0000000E+000	0.0000000E+000	-3.84066	0.0000000E+000	0.0000000E+000	0.0000000E+000	3.84066	14.8959	86.1593	-1.77424e-05	-1.029e-06	7.61603e-10	-1.02976e-06	0.217071	45724.1	33.8421	45758
0.0999041	40.7563	3.69182	40.9232	-5.17589	78.9901	0.21691	-0.00422476	431515	3511.87	1	12	0.00481271	0.000117603	0	-2.63858e-05	0.000221417	1.72385e-06	22.9608	0.0146581	0.0134968	-0.00571815	-5.16621	40.9361	40.7698	3.6861	0.0243364	0.00220446	0.024436	5.17589	3.51187e+06	3.87697e+07	3.89285e+07	-84.8241	0.0000000E+000	0.0000000E+000	0.0000000E+000	84.8241	0.0000000E+000	0.0000000E+000	0.0000000E+000	-84.8241	0.0000000E+000	0.0000000E+000	0.0000000E+000	-5.17589	0.0000000E+000	0.0000000E+000	0.0000000E+000	5.17589	11.0396	84.8241	-3.22541e-05	-9.16391e-07	-9.35434e-10	-9.15455e-07	0.216688	51342.5	52.4095	51290.1
0.0315922	43.0398	6.87546	43.5855	-9.07612	221.873	0.216903	-0.00212045	732721	18233	1	12	0.00481156	0.000110394	0	2.88875e-05	0.000183221	2.00138e-06	-28.2742	0.0181295	0.0159665	0.00858778	-9.08395	43.6026	43.0558	6.88405	0.0226561	0.00361924	0.0229434	9.07612	1.8233e+07	1.14137e+08	1.15584e+08	-80.9239	0.0000000E+000	0.0000000E+000	0.0000000E+000	80.9239	0.0000000E+000	0.0000000E+000	0.0000000E+000	-80.9239	0.0000000E+000	0.0000000E+000	0.0000000E+000	-9.07612	0.0000000E+000	0.0000000E+000	0.0000000E+000	9.07612	6.25992	80.9239	5.52367e-05	-4.59931e-07	-3.88511e-10	-4.59543e-07	0.21672	102291	86.4069	102205
0.0100092	47.9823	14.6493	50.1688	-16.9778	673.095	0.216902	0.000582166	1.08544e+06	92549.3	1	12	0.00481367	9.59495e-05	0	-5.74542e-05	8.77309e-05	2.24001e-06	2.39065	0.0233457	0.0233254	-0.000973808	-16.969	50.1908	48.0056	14.6484	0.019064	0.00582038	0.0199327	16.9778	9.25493e+07	3.03135e+08	3.16949e+08	-73.0222	0.0000000E+000	0.0000000E+000	0.0000000E+000	73.0222	0.0000000E+000	0.0000000E+000	0.0000000E+000	-73.0222	0.0000000E+000	0.0000000E+000	0.0000000E+000	-16.9778	0.0000000E+000	0.0000000E+000	0.0000000E+000	16.9778	3.27539	73.0222	-0.000148138	1.26273e-07	5.1074e-11	1.26222e-07	0.216814	372578	150.697	372427