Folder: EIS/txt (part 87)

File: 18403_R288_UA691_SOC00_C03.mpt
EC-Lab ASCII FILE
Nb header lines : 65

Potentio Electrochemical Impedance Spectroscopy

Run on channel : 3 (SN 65921)
User :
CE vs. WE compliance from -10 V to 10 V
Electrode connection : standard
Potential control : Ewe
Ewe ctrl range : min = -10.00 V, max = 10.00 V
Safety Limits :
	Do not start on E overload
Acquisition started on : 10/14/2025 16:30:19.060
Technique started on : 10/14/2025 16:30:20.786
Loaded Setting File :  NONE
Saved on :
	File : 18403_R288_UA691_SOC00_C03.mpr
	Directory : C:\Users\Celltest\OneDrive - store-dot.com\Documents\EC-Lab\Data\Charmaine\
	Host : 169.254.61.224
Device : VMP-3e (SN .003165)
Address : USB
EC-LAB for windows v11.62 (software)
Internet server v27.00 (firmware)
Command interpretor v12.03 (firmware)
Electrode material :
Initial state :
Electrolyte :
Comments :
Electrode surface area : 0.001 cm²
Characteristic mass : 0.001 g
Equivalent Weight : 0.000 g/eq.
Density : 0.000 g/cm3
Volume (V) : 0.001 cm³
Record Ece
Cycle Definition : Charge/Discharge alternance
Mode                Single sine
E (V)               0.0000
vs.                 Eoc
tE (h:m:s)          0:00:0.0000
record              0
dI                  0.000
unit dI             mA
dt (s)              0.000
fi                  100.000
unit fi             kHz
ff                  10.000
unit ff             mHz
Nd                  6
Points              per decade
spacing             Logarithmic
Va (mV)             5.0
pw                  0.10
Na                  2
corr                0
E range min (V)     -10.000
E range max (V)     10.000
I Range             Auto
Bandwidth           5
nc cycles           0
goto Ns'            0
nr cycles           0
inc. cycle          0

freq/Hz	Re(Z)/Ohm	-Im(Z)/Ohm	|Z|/Ohm	Phase(Z)/deg	time/s	<Ewe>/V	<I>/mA	Cs/µF	Cp/µF	cycle number	I Range	|Ewe|/V	|I|/A	Ns	(Q-Qo)/mA.h	<Ece>/V	|Ece|/V	Phase(Zce)/deg	|Zce|/Ohm	Re(Zce)/Ohm	-Im(Zce)/Ohm	Phase(Zwe-ce)/deg	|Zwe-ce|/Ohm	Re(Zwe-ce)/Ohm	-Im(Zwe-ce)/Ohm	Re(Y)/Ohm-1	Im(Y)/Ohm-1	|Y|/Ohm-1	Phase(Y)/deg	Re(C)/nF	Im(C)/nF	|C|/nF	Phase(C)/deg	Re(M)	Im(M)	|M|	Phase(M)/deg	Re(Permittivity)	Im(Permittivity)	|Permittivity|	Phase(Permittivity)/deg	Re(Resistivity)/Ohm.cm	Im(Resistivity)/Ohm.cm	|Resistivity|/Ohm.cm	Phase(Resistivity)/deg	Re(Conductivity)/mS/cm	Im(Conductivity)/mS/cm	|Conductivity|/mS/cm	Phase(Conductivity)/deg	Tan(Delta)	Loss Angle(Delta)/deg	dq/mA.h	Pwe/W	Pce/W	Pwe-ce/W	<Ewe-Ece>/V	Rwe/Ohm	Rce/Ohm	Rwe-ce/Ohm		Ewe-Ece/V
100004	1.32426	0.426129	1.39114	-17.8374	1.72551	0.260473	0.0109952	3.73476	0.350434	1	9	0.00463779	0.00333381	0	4.65577e-06	-2.32329e-05	3.63398e-05	85.1072	0.0109004	0.000929704	-0.0108606	-17.3991	1.38874	1.32519	0.415269	0.684282	0.220192	0.718837	17.8374	350.434	1089.03	1144.02	-72.1626	0.0000000E+000	0.0000000E+000	0.0000000E+000	72.1626	0.0000000E+000	0.0000000E+000	0.0000000E+000	-72.1626	0.0000000E+000	0.0000000E+000	0.0000000E+000	-17.8374	0.0000000E+000	0.0000000E+000	0.0000000E+000	17.8374	3.10766	72.1626	4.65577e-06	2.86396e-06	-2.55451e-10	2.86422e-06	0.260497	23689.7	2.113	23691.8
31621.1	1.69768	0.594165	1.79865	-19.2894	3.24652	0.260465	-0.002244	8.47101	0.92439	1	9	0.00516196	0.0028699	0	-8.27549e-06	-6.1421e-05	1.41469e-05	-1.37336	0.00492939	0.00492797	0.000118144	-19.2412	1.80334	1.70261	0.594284	0.524761	0.183659	0.555972	19.2894	924.39	2641.22	2798.31	-70.7106	0.0000000E+000	0.0000000E+000	0.0000000E+000	70.7106	0.0000000E+000	0.0000000E+000	0.0000000E+000	-70.7106	0.0000000E+000	0.0000000E+000	0.0000000E+000	-19.2894	0.0000000E+000	0.0000000E+000	0.0000000E+000	19.2894	2.85725	70.7106	-9.92525e-06	-5.84484e-07	1.37829e-10	-5.84622e-07	0.260526	116071	27.3712	116099
10002.2	2.15918	0.805839	2.30465	-20.4664	4.39553	0.260458	0.003984	19.7458	2.41413	1	9	0.00498872	0.00216463	0	-3.13893e-06	0.00012952	1.06313e-05	-112.254	0.00491139	-0.00185999	0.00454557	-20.5884	2.30451	2.15732	0.810385	0.406516	0.151718	0.433905	20.4664	2414.13	6468.46	6904.27	-69.5336	0.0000000E+000	0.0000000E+000	0.0000000E+000	69.5336	0.0000000E+000	0.0000000E+000	0.0000000E+000	-69.5336	0.0000000E+000	0.0000000E+000	0.0000000E+000	-20.4664	0.0000000E+000	0.0000000E+000	0.0000000E+000	20.4664	2.67942	69.5336	8.02333e-07	1.03767e-06	5.16006e-10	1.03715e-06	0.260329	65376.1	32.51	65343.6
3163.08	2.7939	1.17215	3.02982	-22.7599	5.29461	0.26024	-0.0471455	42.9267	6.42477	1	9	0.00457738	0.00151078	0	-8.55499e-06	9.13315e-05	7.2866e-06	-91.034	0.00482308	-8.70318e-05	0.0048223	-22.8446	3.03161	2.79382	1.17697	0.304353	0.127687	0.330052	22.7599	6424.77	15313.9	16607.1	-67.2401	0.0000000E+000	0.0000000E+000	0.0000000E+000	67.2401	0.0000000E+000	0.0000000E+000	0.0000000E+000	-67.2401	0.0000000E+000	0.0000000E+000	0.0000000E+000	-22.7599	0.0000000E+000	0.0000000E+000	0.0000000E+000	22.7599	2.38358	67.2401	-4.75016e-06	-1.22691e-05	-4.30587e-09	-1.22648e-05	0.260148	5519.93	1.93723	5517.99
1000.32	3.57858	1.85346	4.03008	-27.3811	6.89384	0.260411	-0.0219936	85.8414	18.1567	1	10	0.00459296	0.00113967	0	2.14425e-06	-0.000214174	9.01107e-06	77.9074	0.00790676	0.00165641	-0.00773131	-27.2726	4.02801	3.58024	1.84573	0.220335	0.114118	0.248134	27.3811	18156.7	35056.1	39479.1	-62.6189	0.0000000E+000	0.0000000E+000	0.0000000E+000	62.6189	0.0000000E+000	0.0000000E+000	0.0000000E+000	-62.6189	0.0000000E+000	0.0000000E+000	0.0000000E+000	-27.3811	0.0000000E+000	0.0000000E+000	0.0000000E+000	27.3811	1.93075	62.6189	-2.28835e-06	-5.72738e-06	4.71044e-09	-5.73209e-06	0.260626	11840.3	9.73801	11850.1
316.316	4.98616	3.46835	6.07381	-34.8223	8.24308	0.260401	-0.0222285	145.07	47.3042	1	10	0.0045046	0.000741642	0	-6.25973e-06	-0.000252362	5.16265e-06	80.1667	0.00696111	0.00118884	-0.00685884	-34.7628	6.07087	4.98734	3.46149	0.135158	0.0940157	0.164641	34.8223	47304.2	68005.2	82839.6	-55.1777	0.0000000E+000	0.0000000E+000	0.0000000E+000	55.1777	0.0000000E+000	0.0000000E+000	0.0000000E+000	-55.1777	0.0000000E+000	0.0000000E+000	0.0000000E+000	-34.8223	0.0000000E+000	0.0000000E+000	0.0000000E+000	34.8223	1.43762	55.1777	-2.30435e-06	-5.78832e-06	5.60962e-09	-5.79393e-06	0.260653	11714.7	11.3531	11726.1
100.032	8.54014	5.86697	10.3612	-34.4886	9.80479	0.260406	-0.0213709	271.186	86.9504	1	10	0.00485811	0.000468873	0	-1.38556e-05	-0.000443302	1.0439e-05	26.6514	0.0222641	0.0198986	-0.00998684	-34.3809	10.372	8.56004	5.85699	0.0795502	0.05465	0.0965135	34.4886	86950.4	126568	153557	-55.5114	0.0000000E+000	0.0000000E+000	0.0000000E+000	55.5114	0.0000000E+000	0.0000000E+000	0.0000000E+000	-55.5114	0.0000000E+000	0.0000000E+000	0.0000000E+000	-34.4886	0.0000000E+000	0.0000000E+000	0.0000000E+000	34.4886	1.45563	55.5114	-3.40821e-06	-5.5651e-06	9.47375e-09	-5.57457e-06	0.260849	12185.1	20.7433	12205.8
31.6296	14.2833	6.60261	15.7355	-24.8093	11.1335	0.26039	-0.0268859	762.099	134.177	1	10	0.00484533	0.000307922	0	-2.20514e-05	-2.32329e-05	6.06197e-06	47.783	0.0196867	0.0132283	-0.0145801	-24.7409	15.7414	14.2965	6.58803	0.0576853	0.0266657	0.0635504	24.8093	134177	290263	319776	-65.1907	0.0000000E+000	0.0000000E+000	0.0000000E+000	65.1907	0.0000000E+000	0.0000000E+000	0.0000000E+000	-65.1907	0.0000000E+000	0.0000000E+000	0.0000000E+000	-24.8093	0.0000000E+000	0.0000000E+000	0.0000000E+000	24.8093	2.16328	65.1907	-3.33007e-06	-7.00081e-06	6.24636e-10	-7.00144e-06	0.260413	9685.01	0.864129	9685.87
[...]
1.00006	24.8418	2.99964	25.0222	-6.88513	19.853	0.260442	-0.010551	53054.6	762.448	1	12	0.00485781	0.00019414	0	-4.36898e-05	-0.000214174	3.25358e-06	-10.6954	0.0167589	0.0164678	0.00311025	-6.88768	25.0389	24.8582	3.00275	0.0396763	0.00479091	0.0399645	6.88513	762449	6.31427e+06	6.36014e+06	-83.1149	0.0000000E+000	0.0000000E+000	0.0000000E+000	83.1149	0.0000000E+000	0.0000000E+000	0.0000000E+000	-83.1149	0.0000000E+000	0.0000000E+000	0.0000000E+000	-6.88513	0.0000000E+000	0.0000000E+000	0.0000000E+000	6.88513	8.28158	83.1149	-8.69767e-06	-2.74794e-06	2.25975e-09	-2.7502e-06	0.260657	24684.1	20.2988	24704.3
0.316193	26.8123	2.90485	26.9692	-6.18332	34.1959	0.260443	-0.00907632	173278	2010.27	1	12	0.00485838	0.000180145	0	-0.000110456	1.49552e-05	4.02917e-06	20.6078	0.0223662	0.0209351	-0.00787221	-6.16192	26.9892	26.8332	2.89698	0.0368636	0.00399381	0.0370793	6.18332	2.01027e+06	1.85552e+07	1.86638e+07	-83.8167	0.0000000E+000	0.0000000E+000	0.0000000E+000	83.8167	0.0000000E+000	0.0000000E+000	0.0000000E+000	-83.8167	0.0000000E+000	0.0000000E+000	0.0000000E+000	-6.18332	0.0000000E+000	0.0000000E+000	0.0000000E+000	6.18332	9.23018	83.8167	-2.85206e-05	-2.36387e-06	-1.35739e-10	-2.36373e-06	0.260428	28694.8	1.64772	28693.2
0.0999041	29.3573	4.41081	29.6868	-8.54454	79.4038	0.260452	-0.00754646	361176	7973.13	1	12	0.00485539	0.000163554	0	-0.00015359	0.000110426	2.87235e-06	12.6103	0.0175621	0.0171384	-0.00383413	-8.53232	29.7032	29.3744	4.40698	0.0333111	0.00500486	0.033685	8.54454	7.97313e+06	5.30672e+07	5.36628e+07	-81.4555	0.0000000E+000	0.0000000E+000	0.0000000E+000	81.4555	0.0000000E+000	0.0000000E+000	0.0000000E+000	-81.4555	0.0000000E+000	0.0000000E+000	0.0000000E+000	-8.54454	0.0000000E+000	0.0000000E+000	0.0000000E+000	8.54454	6.65576	81.4555	-7.53471e-07	-1.96549e-06	-8.33322e-10	-1.96466e-06	0.260342	34513.2	14.6328	34498.5
0.0315922	34.0711	8.22917	35.0508	-13.5786	222.287	0.260454	-0.00340294	612187	33744.4	1	12	0.0048567	0.000138562	0	-0.000247537	-6.1421e-05	3.32729e-06	-1.09234	0.024013	0.0240087	0.000457779	-13.5701	35.0742	34.0951	8.22963	0.0277326	0.00669825	0.0285301	13.5786	3.37444e+07	1.39711e+08	1.43728e+08	-76.4214	0.0000000E+000	0.0000000E+000	0.0000000E+000	76.4214	0.0000000E+000	0.0000000E+000	0.0000000E+000	-76.4214	0.0000000E+000	0.0000000E+000	0.0000000E+000	-13.5786	0.0000000E+000	0.0000000E+000	0.0000000E+000	13.5786	4.14028	76.4214	-8.26391e-05	-8.8631e-07	2.09012e-10	-8.86519e-07	0.260515	76537.8	18.0494	76555.9
0.0100092	41.1305	16.1403	44.184	-21.4259	673.506	0.260448	-0.00391165	985167	131463	1	12	0.00485655	0.000109916	0	-0.00131127	3.40493e-05	2.12216e-06	-20.5734	0.019307	0.0180757	0.0067846	-21.4256	44.2033	41.1485	16.1471	0.0210685	0.00826766	0.0226326	21.4259	1.31463e+08	3.35009e+08	3.5988e+08	-68.5741	0.0000000E+000	0.0000000E+000	0.0000000E+000	68.5741	0.0000000E+000	0.0000000E+000	0.0000000E+000	-68.5741	0.0000000E+000	0.0000000E+000	0.0000000E+000	-21.4259	0.0000000E+000	0.0000000E+000	0.0000000E+000	21.4259	2.5483	68.5741	-0.000482306	-1.01878e-06	-1.33189e-10	-1.01865e-06	0.260414	66582.7	8.7046	66574

File: 18404_R288_UA691_SOC00_C04.mpt
EC-Lab ASCII FILE
Nb header lines : 65

Potentio Electrochemical Impedance Spectroscopy

Run on channel : 4 (SN 66756)
User :
CE vs. WE compliance from -10 V to 10 V
Electrode connection : standard
Potential control : Ewe
Ewe ctrl range : min = -10.00 V, max = 10.00 V
Safety Limits :
	Do not start on E overload
Acquisition started on : 10/14/2025 16:30:35.389
Technique started on : 10/14/2025 16:30:37.300
Loaded Setting File :  NONE
Saved on :
	File : 18404_R288_UA691_SOC00_C04.mpr
	Directory : C:\Users\Celltest\OneDrive - store-dot.com\Documents\EC-Lab\Data\Charmaine\
	Host : 169.254.61.224
Device : VMP-3e (SN .003165)
Address : USB
EC-LAB for windows v11.62 (software)
Internet server v27.00 (firmware)
Command interpretor v12.03 (firmware)
Electrode material :
Initial state :
Electrolyte :
Comments :
Electrode surface area : 0.001 cm²
Characteristic mass : 0.001 g
Equivalent Weight : 0.000 g/eq.
Density : 0.000 g/cm3
Volume (V) : 0.001 cm³
Record Ece
Cycle Definition : Charge/Discharge alternance
Mode                Single sine
E (V)               0.0000
vs.                 Eoc
tE (h:m:s)          0:00:0.0000
record              0
dI                  0.000
unit dI             mA
dt (s)              0.000
fi                  100.000
unit fi             kHz
ff                  10.000
unit ff             mHz
Nd                  6
Points              per decade
spacing             Logarithmic
Va (mV)             5.0
pw                  0.10
Na                  2
corr                0
E range min (V)     -10.000
E range max (V)     10.000
I Range             Auto
Bandwidth           5
nc cycles           0
goto Ns'            0
nr cycles           0
inc. cycle          0

freq/Hz	Re(Z)/Ohm	-Im(Z)/Ohm	|Z|/Ohm	Phase(Z)/deg	time/s	<Ewe>/V	<I>/mA	Cs/µF	Cp/µF	cycle number	I Range	|Ewe|/V	|I|/A	Ns	(Q-Qo)/mA.h	<Ece>/V	|Ece|/V	Phase(Zce)/deg	|Zce|/Ohm	Re(Zce)/Ohm	-Im(Zce)/Ohm	Phase(Zwe-ce)/deg	|Zwe-ce|/Ohm	Re(Zwe-ce)/Ohm	-Im(Zwe-ce)/Ohm	Re(Y)/Ohm-1	Im(Y)/Ohm-1	|Y|/Ohm-1	Phase(Y)/deg	Re(C)/nF	Im(C)/nF	|C|/nF	Phase(C)/deg	Re(M)	Im(M)	|M|	Phase(M)/deg	Re(Permittivity)	Im(Permittivity)	|Permittivity|	Phase(Permittivity)/deg	Re(Resistivity)/Ohm.cm	Im(Resistivity)/Ohm.cm	|Resistivity|/Ohm.cm	Phase(Resistivity)/deg	Re(Conductivity)/mS/cm	Im(Conductivity)/mS/cm	|Conductivity|/mS/cm	Phase(Conductivity)/deg	Tan(Delta)	Loss Angle(Delta)/deg	dq/mA.h	Pwe/W	Pce/W	Pwe-ce/W	<Ewe-Ece>/V	Rwe/Ohm	Rce/Ohm	Rwe-ce/Ohm		Ewe-Ece/V
100004	1.27813	0.416298	1.34422	-18.0409	1.91055	0.26088	-0.0232588	3.82296	0.366664	1	9	0.00460729	0.00342748	0	-8.59386e-06	3.60827e-06	4.04796e-05	91.5579	0.0118103	-0.000321089	-0.011806	-17.5652	1.34031	1.27781	0.404492	0.707351	0.23039	0.743926	18.0409	366.663	1125.74	1183.95	-71.9592	0.0000000E+000	0.0000000E+000	0.0000000E+000	71.9592	0.0000000E+000	0.0000000E+000	0.0000000E+000	-71.9592	0.0000000E+000	0.0000000E+000	0.0000000E+000	-18.0409	0.0000000E+000	0.0000000E+000	0.0000000E+000	18.0409	3.07023	71.9592	-8.59386e-06	-6.06775e-06	-8.39241e-11	-6.06766e-06	0.260876	11216.4	0.155136	11216.2
31621.1	1.65153	0.581501	1.75091	-19.3971	3.30953	0.260861	-0.0284431	8.6555	0.954695	1	9	0.0054913	0.00313625	0	-1.57755e-05	-0.000244821	1.04242e-05	14.4226	0.00332378	0.00321903	-0.000827861	-19.3367	1.75367	1.65475	0.580673	0.538713	0.18968	0.571131	19.3971	954.695	2711.44	2874.61	-70.6029	0.0000000E+000	0.0000000E+000	0.0000000E+000	70.6029	0.0000000E+000	0.0000000E+000	0.0000000E+000	-70.6029	0.0000000E+000	0.0000000E+000	0.0000000E+000	-19.3971	0.0000000E+000	0.0000000E+000	0.0000000E+000	19.3971	2.84011	70.6029	1.45953e-06	-7.41972e-06	6.96348e-09	-7.42668e-06	0.261106	9171.33	8.60739	9179.94
10002.2	2.10439	0.782343	2.24511	-20.3935	4.33456	0.260853	-0.024788	20.3388	2.46971	1	9	0.00528862	0.00235562	0	-1.35526e-05	0.000194708	8.06302e-06	65.5332	0.00342289	0.00141764	-0.00311552	-20.3064	2.24535	2.10581	0.779228	0.417495	0.155211	0.445413	20.3935	2469.71	6643.16	7087.39	-69.6065	0.0000000E+000	0.0000000E+000	0.0000000E+000	69.6065	0.0000000E+000	0.0000000E+000	0.0000000E+000	-69.6065	0.0000000E+000	0.0000000E+000	0.0000000E+000	-20.3935	0.0000000E+000	0.0000000E+000	0.0000000E+000	20.3935	2.68985	69.6065	-2.06981e-06	-6.46603e-06	-4.82642e-09	-6.4612e-06	0.260658	10523.4	7.85492	10515.5
3163.08	2.67101	1.10763	2.89157	-22.5231	5.23267	0.2607	-0.0680529	45.427	6.66561	1	9	0.00503079	0.00173982	0	-2.53245e-05	2.27182e-05	6.333e-06	-95.081	0.00364004	-0.000322375	0.00362574	-22.5919	2.89266	2.67069	1.11126	0.319455	0.132474	0.345833	22.5231	6665.61	16073.8	17401.1	-67.4769	0.0000000E+000	0.0000000E+000	0.0000000E+000	67.4769	0.0000000E+000	0.0000000E+000	0.0000000E+000	-67.4769	0.0000000E+000	0.0000000E+000	0.0000000E+000	-22.5231	0.0000000E+000	0.0000000E+000	0.0000000E+000	22.5231	2.41146	67.4769	-5.41042e-06	-1.77414e-05	-1.54604e-09	-1.77399e-05	0.260678	3830.85	0.333832	3830.51
1000.32	3.4806	1.78928	3.91358	-27.2065	6.83179	0.260762	-0.0226668	88.9206	18.5871	1	10	0.0050047	0.00127881	0	-3.80355e-05	-5.37216e-05	4.2213e-06	-64.1389	0.00330097	0.00143985	0.00297039	-27.2355	3.91621	3.48203	1.79225	0.227251	0.116824	0.255521	27.2065	18587.1	36156.6	40654.4	-62.7935	0.0000000E+000	0.0000000E+000	0.0000000E+000	62.7935	0.0000000E+000	0.0000000E+000	0.0000000E+000	-62.7935	0.0000000E+000	0.0000000E+000	0.0000000E+000	-27.2065	0.0000000E+000	0.0000000E+000	0.0000000E+000	27.2065	1.94525	62.7935	-3.78479e-06	-5.91064e-06	1.2177e-09	-5.91185e-06	0.260816	11504.1	2.37006	11506.5
316.316	4.89467	3.30788	5.90761	-34.0514	8.18201	0.260777	-0.0227302	152.107	47.6898	1	10	0.00490873	0.000830917	0	-4.5468e-05	-5.37216e-05	7.98342e-06	14.6004	0.00960797	0.0092977	-0.00242195	-33.9815	5.91396	4.90396	3.30546	0.140249	0.0947821	0.169273	34.0514	47689.8	70566.6	85170.2	-55.9486	0.0000000E+000	0.0000000E+000	0.0000000E+000	55.9486	0.0000000E+000	0.0000000E+000	0.0000000E+000	-55.9486	0.0000000E+000	0.0000000E+000	0.0000000E+000	-34.0514	0.0000000E+000	0.0000000E+000	0.0000000E+000	34.0514	1.4797	55.9486	-2.37078e-06	-5.92751e-06	1.2211e-09	-5.92873e-06	0.26083	11472.7	2.36345	11475.1
100.032	8.28369	5.39939	9.88802	-33.0967	9.52982	0.260777	-0.0219954	294.67	87.8632	1	10	0.00486926	0.00049244	0	-5.40499e-05	2.27182e-05	5.54012e-06	20.1701	0.0112503	0.0105604	-0.00387922	-33.0445	9.89475	8.29425	5.39551	0.0847237	0.0552238	0.101132	33.0967	87863.2	134799	160906	-56.9033	0.0000000E+000	0.0000000E+000	0.0000000E+000	56.9033	0.0000000E+000	0.0000000E+000	0.0000000E+000	-56.9033	0.0000000E+000	0.0000000E+000	0.0000000E+000	-33.0967	0.0000000E+000	0.0000000E+000	0.0000000E+000	33.0967	1.53419	56.9033	-1.91714e-06	-5.73588e-06	-4.99696e-10	-5.73538e-06	0.260754	11856	1.03286	11854.9
31.6296	13.4681	5.91987	14.7117	-23.7278	10.8586	0.260773	-0.0252071	849.992	137.631	1	10	0.00487076	0.000331082	0	-6.22874e-05	-0.000149271	2.03189e-06	8.72261	0.00613713	0.00606615	-0.000930701	-23.715	14.7169	13.4741	5.91894	0.0622272	0.0273519	0.0679732	23.7278	137631	313118	342030	-66.2722	0.0000000E+000	0.0000000E+000	0.0000000E+000	66.2722	0.0000000E+000	0.0000000E+000	0.0000000E+000	-66.2722	0.0000000E+000	0.0000000E+000	0.0000000E+000	-23.7278	0.0000000E+000	0.0000000E+000	0.0000000E+000	23.7278	2.27506	66.2722	-3.29242e-06	-6.57332e-06	3.76269e-09	-6.57708e-06	0.260922	10345.2	5.92181	10351.2
[...]
1.00006	22.7893	2.65375	22.9433	-6.64201	19.5788	0.260807	-0.0052641	59969.8	802.305	1	12	0.00486643	0.000212106	0	-7.20752e-05	-0.000149271	3.10624e-06	-34.7419	0.0146447	0.012034	0.00834574	-6.65922	22.9562	22.8014	2.66209	0.0432931	0.00504135	0.0435857	6.64201	802305	6.88987e+06	6.93643e+06	-83.358	0.0000000E+000	0.0000000E+000	0.0000000E+000	83.358	0.0000000E+000	0.0000000E+000	0.0000000E+000	-83.358	0.0000000E+000	0.0000000E+000	0.0000000E+000	-6.64201	0.0000000E+000	0.0000000E+000	0.0000000E+000	6.64201	8.5876	83.358	-5.72568e-06	-1.37291e-06	7.85779e-10	-1.3737e-06	0.260956	49544.5	28.3565	49572.8
0.316193	24.4177	2.64134	24.5601	-6.17386	33.9219	0.26082	-0.00506661	190565	2204.1	1	12	0.00486497	0.000198084	0	-0.000120851	-0.000149271	2.74341e-06	49.5144	0.0138497	0.00899203	-0.0105337	-6.14718	24.5679	24.4267	2.6308	0.0404803	0.00437888	0.0407164	6.17386	2.2041e+06	2.03756e+07	2.04945e+07	-83.8261	0.0000000E+000	0.0000000E+000	0.0000000E+000	83.8261	0.0000000E+000	0.0000000E+000	0.0000000E+000	-83.8261	0.0000000E+000	0.0000000E+000	0.0000000E+000	-6.17386	0.0000000E+000	0.0000000E+000	0.0000000E+000	6.17386	9.24444	83.8261	-1.86204e-05	-1.32147e-06	7.563e-10	-1.32223e-06	0.260969	51478.1	29.4618	51507.6
0.0999041	26.6146	4.09345	26.9276	-8.74385	79.1311	0.260816	-0.00503314	389177	8993.58	1	12	0.00486734	0.000180757	0	-0.000105962	-0.000283041	2.88779e-06	-23.6584	0.0159761	0.0146333	0.00641093	-8.75259	26.943	26.6292	4.09987	0.0367051	0.00564542	0.0371367	8.74385	8.99359e+06	5.8474e+07	5.91616e+07	-81.2561	0.0000000E+000	0.0000000E+000	0.0000000E+000	81.2561	0.0000000E+000	0.0000000E+000	0.0000000E+000	-81.2561	0.0000000E+000	0.0000000E+000	0.0000000E+000	-8.74385	0.0000000E+000	0.0000000E+000	0.0000000E+000	8.74385	6.50175	81.2561	2.13429e-05	-1.31272e-06	1.42458e-09	-1.31415e-06	0.261099	51819.7	56.2355	51875.9
0.0315922	30.6604	7.81865	31.6416	-14.306	222.016	0.260816	-0.00239586	644330	39341.8	1	12	0.00486899	0.000153879	0	-0.000184743	-0.000111051	2.70761e-06	5.10243	0.0175957	0.017526	-0.0015649	-14.2954	31.6582	30.678	7.81708	0.0306239	0.00780933	0.0316039	14.306	3.93418e+07	1.54277e+08	1.59214e+08	-75.694	0.0000000E+000	0.0000000E+000	0.0000000E+000	75.694	0.0000000E+000	0.0000000E+000	0.0000000E+000	-75.694	0.0000000E+000	0.0000000E+000	0.0000000E+000	-14.306	0.0000000E+000	0.0000000E+000	0.0000000E+000	14.306	3.92145	75.694	-9.64817e-05	-6.24877e-07	2.66063e-10	-6.25143e-07	0.260927	108861	46.3515	108907
0.0100092	37.0926	15.4342	40.1756	-22.5922	673.238	0.26081	-0.00378224	1.03024e+06	152049	1	12	0.00486356	0.000121058	0	-0.00123512	0.000271148	4.23654e-06	64.762	0.034996	0.0149216	-0.0316555	-22.5423	40.1772	37.1076	15.4026	0.0229807	0.00956226	0.0248907	22.5922	1.52049e+08	3.65414e+08	3.95785e+08	-67.4078	0.0000000E+000	0.0000000E+000	0.0000000E+000	67.4078	0.0000000E+000	0.0000000E+000	0.0000000E+000	-67.4078	0.0000000E+000	0.0000000E+000	0.0000000E+000	-22.5922	0.0000000E+000	0.0000000E+000	0.0000000E+000	22.5922	2.40327	67.4078	-0.000435955	-9.86445e-07	-1.02554e-09	-9.8542e-07	0.260539	68956.6	71.6898	68884.9