Folder: EIS/txt (part 99)

File: 18573_R297_UC90_SOC50_C04.mpt
EC-Lab ASCII FILE
Nb header lines : 65

Potentio Electrochemical Impedance Spectroscopy

Run on channel : 4 (SN 66756)
User :
CE vs. WE compliance from -10 V to 10 V
Electrode connection : standard
Potential control : Ewe
Ewe ctrl range : min = -10.00 V, max = 10.00 V
Safety Limits :
	Do not start on E overload
Acquisition started on : 10/21/2025 16:34:50.544
Technique started on : 10/21/2025 16:34:53.238
Loaded Setting File :  C:\Users\Celltest\OneDrive - store-dot.com\Documents\EC-Lab\Data\@Biologic Test Protocols\cathode half cell EIS SOC50.mps
Saved on :
	File : 18573_R297_UC90_SOC50_C04.mpr
	Directory : C:\Users\Celltest\OneDrive - store-dot.com\Documents\EC-Lab\Data\Michael\
	Host : 169.254.61.224
Device : VMP-3e (SN .003165)
Address : USB
EC-LAB for windows v11.62 (software)
Internet server v27.00 (firmware)
Command interpretor v12.03 (firmware)
Electrode material :
Initial state :
Electrolyte :
Comments :
Electrode surface area : 0.001 cm²
Characteristic mass : 0.001 g
Equivalent Weight : 0.000 g/eq.
Density : 0.000 g/cm3
Volume (V) : 0.001 cm³
Record Ece
Cycle Definition : Charge/Discharge alternance
Mode                Multi sine
E (V)               0.0000
vs.                 Eoc
tE (h:m:s)          0:00:0.0000
record              0
dI                  0.000
unit dI             mA
dt (s)              0.000
fi                  1.000
unit fi             MHz
ff                  0.100
unit ff             mHz
Nd                  10
Points              per decade
spacing             Logarithmic
Va (mV)             5.0
pw                  0.10
Na                  2
corr                0
E range min (V)     -10.000
E range max (V)     10.000
I Range             Auto
Bandwidth           5
nc cycles           0
goto Ns'            0
nr cycles           0
inc. cycle          0

freq/Hz	Re(Z)/Ohm	-Im(Z)/Ohm	|Z|/Ohm	Phase(Z)/deg	time/s	<Ewe>/V	<I>/mA	Cs/µF	Cp/µF	cycle number	I Range	|Ewe|/V	|I|/A	Ns	(Q-Qo)/mA.h	<Ece>/V	|Ece|/V	Phase(Zce)/deg	|Zce|/Ohm	Re(Zce)/Ohm	-Im(Zce)/Ohm	Phase(Zwe-ce)/deg	|Zwe-ce|/Ohm	Re(Zwe-ce)/Ohm	-Im(Zwe-ce)/Ohm	Re(Y)/Ohm-1	Im(Y)/Ohm-1	|Y|/Ohm-1	Phase(Y)/deg	Re(C)/nF	Im(C)/nF	|C|/nF	Phase(C)/deg	Re(M)	Im(M)	|M|	Phase(M)/deg	Re(Permittivity)	Im(Permittivity)	|Permittivity|	Phase(Permittivity)/deg	Re(Resistivity)/Ohm.cm	Im(Resistivity)/Ohm.cm	|Resistivity|/Ohm.cm	Phase(Resistivity)/deg	Re(Conductivity)/mS/cm	Im(Conductivity)/mS/cm	|Conductivity|/mS/cm	Phase(Conductivity)/deg	Tan(Delta)	Loss Angle(Delta)/deg	dq/mA.h	Pwe/W	Pce/W	Pwe-ce/W	<Ewe-Ece>/V	Rwe/Ohm	Rce/Ohm	Rwe-ce/Ohm		Ewe-Ece/V
1.00002e+06	0.938345	-0.283244	0.980162	16.7967	2.69355	3.89053	0.0799054	-0.56189	-0.0469221	1	9	0.00019669	0.000200671	0	3.34308e-05	-0.000321261	0.000187148	12.782	0.932611	0.9095	-0.206333	14.8393	1.9116	1.84784	-0.489578	0.976712	-0.294826	1.02024	-16.7967	-46.9221	155.446	162.373	-106.797	0.0000000E+000	0.0000000E+000	0.0000000E+000	106.797	0.0000000E+000	0.0000000E+000	0.0000000E+000	-106.797	0.0000000E+000	0.0000000E+000	0.0000000E+000	16.7967	0.0000000E+000	0.0000000E+000	0.0000000E+000	-16.7967	3.31285	73.2033	3.34308e-05	0.000310875	-2.56705e-08	0.000310901	3.89086	48689.2	4.02051	48693.3
251206	0.760903	0.331023	0.829789	-23.5109	4.99354	3.88913	0.0101968	1.91396	0.304588	1	9	0.00180646	0.00217701	0	4.12246e-05	-5.37216e-05	5.34836e-05	78.3521	0.0245674	0.00496007	-0.0240615	-21.8411	0.825089	0.765863	0.306961	1.10508	0.480754	1.20513	23.5109	304.588	700.138	763.523	-66.4891	0.0000000E+000	0.0000000E+000	0.0000000E+000	66.4891	0.0000000E+000	0.0000000E+000	0.0000000E+000	-66.4891	0.0000000E+000	0.0000000E+000	0.0000000E+000	-23.5109	0.0000000E+000	0.0000000E+000	0.0000000E+000	23.5109	2.29864	66.4891	-1.22232e-06	3.96568e-05	-5.47791e-10	3.96574e-05	3.88918	381405	5.26845	381410
63093.8	1.23803	0.825266	1.48788	-33.6872	7.29353	3.88901	0.00762337	3.05661	0.940353	1	9	0.00536246	0.00360409	0	6.93525e-05	4.18282e-05	1.63657e-05	45.0511	0.00454086	0.00320801	-0.00321374	-33.5158	1.48877	1.24124	0.822052	0.559237	0.372784	0.672097	33.6872	940.353	1410.68	1695.37	-56.3128	0.0000000E+000	0.0000000E+000	0.0000000E+000	56.3128	0.0000000E+000	0.0000000E+000	0.0000000E+000	-56.3128	0.0000000E+000	0.0000000E+000	0.0000000E+000	-33.6872	0.0000000E+000	0.0000000E+000	0.0000000E+000	33.6872	1.50016	56.3128	5.52575e-06	2.96473e-05	3.18872e-10	2.9647e-05	3.88896	510143	5.48684	510137
15847.7	2.11295	1.41004	2.54023	-33.7164	9.59151	3.88901	0.0079963	7.12236	2.19452	1	9	0.00528749	0.0020815	0	7.26006e-05	4.18282e-05	1.17718e-05	-67.5452	0.00565544	0.00216012	0.00522665	-33.7873	2.54493	2.11511	1.41526	0.327449	0.218517	0.393665	33.7164	2194.52	3288.5	3953.5	-56.2836	0.0000000E+000	0.0000000E+000	0.0000000E+000	56.2836	0.0000000E+000	0.0000000E+000	0.0000000E+000	-56.2836	0.0000000E+000	0.0000000E+000	0.0000000E+000	-33.7164	0.0000000E+000	0.0000000E+000	0.0000000E+000	33.7164	1.49851	56.2836	-7.30675e-07	3.10977e-05	3.34471e-10	3.10974e-05	3.88897	486351	5.23094	486346
3983.6	3.5167	2.41153	4.26411	-34.4399	11.8621	3.88899	0.0165374	16.5673	5.29883	1	10	0.00525718	0.00123289	0	7.48442e-05	-0.000111051	9.35992e-06	32.2666	0.00759186	0.00641947	-0.00405298	-34.3463	4.26712	3.52312	2.40748	0.19341	0.132628	0.234515	34.4399	5298.83	7727.2	9369.48	-55.5601	0.0000000E+000	0.0000000E+000	0.0000000E+000	55.5601	0.0000000E+000	0.0000000E+000	0.0000000E+000	-55.5601	0.0000000E+000	0.0000000E+000	0.0000000E+000	-34.4399	0.0000000E+000	0.0000000E+000	0.0000000E+000	34.4399	1.45828	55.5601	7.6065e-07	6.43137e-05	-1.8365e-09	6.43155e-05	3.8891	235164	6.71518	235170
1000.32	6.08638	4.20878	7.39986	-34.6642	14.4908	3.88897	0.0108488	37.8028	12.229	1	10	0.00468021	0.000632473	0	8.24152e-05	-5.37216e-05	1.35119e-05	-10.0233	0.0213636	0.0210375	0.0037183	-34.5954	7.41928	6.10742	4.2125	0.111151	0.0768616	0.135138	34.6642	12229	17684.5	21500.9	-55.3358	0.0000000E+000	0.0000000E+000	0.0000000E+000	55.3358	0.0000000E+000	0.0000000E+000	0.0000000E+000	-55.3358	0.0000000E+000	0.0000000E+000	0.0000000E+000	-34.6642	0.0000000E+000	0.0000000E+000	0.0000000E+000	34.6642	1.44611	55.3358	1.66656e-06	4.21908e-05	-5.82817e-10	4.21914e-05	3.88902	358469	4.95183	358474
251.044	11.4042	6.09729	12.9319	-28.1313	17.19	3.88896	0.0104534	103.976	23.1144	1	10	0.00452092	0.000349595	0	9.08324e-05	0.000175598	8.20106e-06	-97.99	0.0234587	-0.00326076	0.023231	-28.2288	12.94	11.401	6.12052	0.0681935	0.0364598	0.0773283	28.1313	23114.4	43232.7	49023.9	-61.8687	0.0000000E+000	0.0000000E+000	0.0000000E+000	61.8687	0.0000000E+000	0.0000000E+000	0.0000000E+000	-61.8687	0.0000000E+000	0.0000000E+000	0.0000000E+000	-28.1313	0.0000000E+000	0.0000000E+000	0.0000000E+000	28.1313	1.87038	61.8687	1.01137e-06	4.0653e-05	1.8356e-09	4.06511e-05	3.88879	372027	16.7981	372011
[...]
0.0602816	23.8041	3.41641	24.048	-8.16743	240.767	3.88895	0.00799455	772797	15597.2	1	11	0.00508399	0.00021141	0	-0.000108564	-5.37216e-05	7.93321e-07	-17.6503	0.00375252	0.00357587	0.00113779	-8.1689	24.0517	23.8076	3.41755	0.0411617	0.00590762	0.0415835	8.16743	1.55972e+07	1.08675e+08	1.09788e+08	-81.8326	0.0000000E+000	0.0000000E+000	0.0000000E+000	81.8326	0.0000000E+000	0.0000000E+000	0.0000000E+000	-81.8326	0.0000000E+000	0.0000000E+000	0.0000000E+000	-8.16743	0.0000000E+000	0.0000000E+000	0.0000000E+000	8.16743	6.96757	81.8326	0.000000000000000E+000	3.10904e-05	-4.2948e-10	3.10908e-05	3.889	486450	6.71978	486457
0.00796479	29.4595	5.64894	29.9962	-10.8549	20329.7	3.88896	-0.000913294	3.53736e+06	125453	1	11	0.00507505	0.00016919	0	-0.0140615	-0.000283041	4.83602e-07	-13.5688	0.00285834	0.00277856	0.000670603	-10.8551	29.9991	29.4623	5.64961	0.0327411	0.00627819	0.0333376	10.8549	1.25453e+08	6.54243e+08	6.66162e+08	-79.1451	0.0000000E+000	0.0000000E+000	0.0000000E+000	79.1451	0.0000000E+000	0.0000000E+000	0.0000000E+000	-79.1451	0.0000000E+000	0.0000000E+000	0.0000000E+000	-10.8549	0.0000000E+000	0.0000000E+000	0.0000000E+000	10.8549	5.21505	79.1451	-0.0139529	-3.55176e-06	2.585e-10	-3.55202e-06	3.88924	4.25816e+06	309.912	4.25847e+06
0.0019912	33.6544	10.0838	35.1326	-16.6796	20329.7	3.88896	-0.000913294	7.92654e+06	652991	1	11	0.00508976	0.000144873	0	-0.0140615	-0.000283041	3.17392e-07	-56.0038	0.00219083	0.00122498	0.00181636	-16.6819	35.1343	33.6556	10.0856	0.027266	0.00816961	0.0284636	16.6796	6.52991e+08	2.17935e+09	2.27507e+09	-73.3204	0.0000000E+000	0.0000000E+000	0.0000000E+000	73.3204	0.0000000E+000	0.0000000E+000	0.0000000E+000	-73.3204	0.0000000E+000	0.0000000E+000	0.0000000E+000	-16.6796	0.0000000E+000	0.0000000E+000	0.0000000E+000	16.6796	3.33749	73.3204	0.000000000000000E+000	-3.55176e-06	2.585e-10	-3.55202e-06	3.88924	4.25816e+06	309.912	4.25847e+06
0.000497799	37.325	24.5456	44.6726	-33.3296	20329.7	3.88896	-0.000913294	1.30254e+07	3.93239e+06	1	11	0.00509053	0.000113952	0	-0.0140615	-0.000283041	1.40285e-06	-37.59	0.0123109	0.0097551	0.00750974	-33.3308	44.6849	37.3347	24.5531	0.0187033	0.0122996	0.0223851	33.3296	3.93239e+09	5.97975e+09	7.1569e+09	-56.6704	0.0000000E+000	0.0000000E+000	0.0000000E+000	56.6704	0.0000000E+000	0.0000000E+000	0.0000000E+000	-56.6704	0.0000000E+000	0.0000000E+000	0.0000000E+000	-33.3296	0.0000000E+000	0.0000000E+000	0.0000000E+000	33.3296	1.52064	56.6704	0.000000000000000E+000	-3.55176e-06	2.585e-10	-3.55202e-06	3.88924	4.25816e+06	309.912	4.25847e+06
9.95598e-05	48.9527	133.336	142.038	-69.8399	20329.7	3.88896	-0.000913294	1.19892e+07	1.05651e+07	1	11	0.00509292	3.5856e-05	0	-0.0140615	-0.000283041	2.75008e-06	-63.847	0.076698	0.0338062	0.0688457	-69.8367	142.114	48.9865	133.405	0.00242642	0.00660902	0.00704036	69.8399	1.05651e+10	3.87884e+09	1.12546e+10	-20.1601	0.0000000E+000	0.0000000E+000	0.0000000E+000	20.1601	0.0000000E+000	0.0000000E+000	0.0000000E+000	-20.1601	0.0000000E+000	0.0000000E+000	0.0000000E+000	-69.8399	0.0000000E+000	0.0000000E+000	0.0000000E+000	69.8399	0.367138	20.1601	0.000000000000000E+000	-3.55176e-06	2.585e-10	-3.55202e-06	3.88924	4.25816e+06	309.912	4.25847e+06

File: 18574_R297_UC90_SOC50_C05.mpt
EC-Lab ASCII FILE
Nb header lines : 65

Potentio Electrochemical Impedance Spectroscopy

Run on channel : 5 (SN 65912)
User :
CE vs. WE compliance from -10 V to 10 V
Electrode connection : standard
Potential control : Ewe
Ewe ctrl range : min = -10.00 V, max = 10.00 V
Safety Limits :
	Do not start on E overload
Acquisition started on : 10/21/2025 16:35:05.807
Technique started on : 10/21/2025 16:35:08.501
Loaded Setting File :  C:\Users\Celltest\OneDrive - store-dot.com\Documents\EC-Lab\Data\@Biologic Test Protocols\cathode half cell EIS SOC50.mps
Saved on :
	File : 18574_R297_UC90_SOC50_C05.mpr
	Directory : C:\Users\Celltest\OneDrive - store-dot.com\Documents\EC-Lab\Data\Michael\
	Host : 169.254.61.224
Device : VMP-3e (SN .003165)
Address : USB
EC-LAB for windows v11.62 (software)
Internet server v27.00 (firmware)
Command interpretor v12.03 (firmware)
Electrode material :
Initial state :
Electrolyte :
Comments :
Electrode surface area : 0.001 cm²
Characteristic mass : 0.001 g
Equivalent Weight : 0.000 g/eq.
Density : 0.000 g/cm3
Volume (V) : 0.001 cm³
Record Ece
Cycle Definition : Charge/Discharge alternance
Mode                Multi sine
E (V)               0.0000
vs.                 Eoc
tE (h:m:s)          0:00:0.0000
record              0
dI                  0.000
unit dI             mA
dt (s)              0.000
fi                  1.000
unit fi             MHz
ff                  0.100
unit ff             mHz
Nd                  10
Points              per decade
spacing             Logarithmic
Va (mV)             5.0
pw                  0.10
Na                  2
corr                0
E range min (V)     -10.000
E range max (V)     10.000
I Range             Auto
Bandwidth           5
nc cycles           0
goto Ns'            0
nr cycles           0
inc. cycle          0

freq/Hz	Re(Z)/Ohm	-Im(Z)/Ohm	|Z|/Ohm	Phase(Z)/deg	time/s	<Ewe>/V	<I>/mA	Cs/µF	Cp/µF	cycle number	I Range	|Ewe|/V	|I|/A	Ns	(Q-Qo)/mA.h	<Ece>/V	|Ece|/V	Phase(Zce)/deg	|Zce|/Ohm	Re(Zce)/Ohm	-Im(Zce)/Ohm	Phase(Zwe-ce)/deg	|Zwe-ce|/Ohm	Re(Zwe-ce)/Ohm	-Im(Zwe-ce)/Ohm	Re(Y)/Ohm-1	Im(Y)/Ohm-1	|Y|/Ohm-1	Phase(Y)/deg	Re(C)/nF	Im(C)/nF	|C|/nF	Phase(C)/deg	Re(M)	Im(M)	|M|	Phase(M)/deg	Re(Permittivity)	Im(Permittivity)	|Permittivity|	Phase(Permittivity)/deg	Re(Resistivity)/Ohm.cm	Im(Resistivity)/Ohm.cm	|Resistivity|/Ohm.cm	Phase(Resistivity)/deg	Re(Conductivity)/mS/cm	Im(Conductivity)/mS/cm	|Conductivity|/mS/cm	Phase(Conductivity)/deg	Tan(Delta)	Loss Angle(Delta)/deg	dq/mA.h	Pwe/W	Pce/W	Pwe-ce/W	<Ewe-Ece>/V	Rwe/Ohm	Rce/Ohm	Rwe-ce/Ohm		Ewe-Ece/V
1.00002e+06	1.00428	-0.107203	1.00998	6.09305	2.69352	3.88918	0.0470495	-1.48458	-0.016726	1	9	0.00021744	0.000215291	0	1.80101e-05	1.58158e-05	0.000187288	2.26395	0.869933	0.869254	-0.034365	4.32118	1.87887	1.87353	-0.141568	0.984522	-0.105094	0.990116	-6.09305	-16.726	156.689	157.579	-96.0931	0.0000000E+000	0.0000000E+000	0.0000000E+000	96.0931	0.0000000E+000	0.0000000E+000	0.0000000E+000	-96.0931	0.0000000E+000	0.0000000E+000	0.0000000E+000	6.09305	0.0000000E+000	0.0000000E+000	0.0000000E+000	-6.09305	9.36798	83.9069	1.80101e-05	0.000182984	7.44125e-10	0.000182983	3.88916	82661.3	0.336152	82661
251206	0.791712	0.286557	0.841976	-19.8975	4.99152	3.88756	-0.0482098	2.21095	0.256095	1	9	0.00230071	0.00273251	0	2.41722e-06	3.4907e-05	4.96715e-05	92.7939	0.018178	-0.000886056	-0.0181564	-18.7468	0.835131	0.790826	0.2684	1.11678	0.404214	1.18768	19.8975	256.095	707.552	752.472	-70.1025	0.0000000E+000	0.0000000E+000	0.0000000E+000	70.1025	0.0000000E+000	0.0000000E+000	0.0000000E+000	-70.1025	0.0000000E+000	0.0000000E+000	0.0000000E+000	-19.8975	0.0000000E+000	0.0000000E+000	0.0000000E+000	19.8975	2.76285	70.1025	-6.3231e-06	-0.000187419	-1.68286e-09	-0.000187417	3.88753	80638.3	0.724064	80637.6
63093.8	1.20128	0.612869	1.34859	-27.0297	7.29152	3.88729	-0.0426611	4.1159	0.850046	1	9	0.0053728	0.00398402	0	1.21867e-05	3.4907e-05	2.73482e-05	71.3466	0.00686448	0.00219555	-0.00650389	-26.741	1.34761	1.20348	0.606366	0.660521	0.336984	0.741516	27.0297	850.046	1666.17	1870.48	-62.9703	0.0000000E+000	0.0000000E+000	0.0000000E+000	62.9703	0.0000000E+000	0.0000000E+000	0.0000000E+000	-62.9703	0.0000000E+000	0.0000000E+000	0.0000000E+000	-27.0297	0.0000000E+000	0.0000000E+000	0.0000000E+000	27.0297	1.9601	62.9703	-3.30184e-06	-0.000165836	-1.48917e-09	-0.000165834	3.88725	91120.2	0.81824	91119.4
15847.7	1.82642	1.06645	2.11498	-30.2808	9.59155	3.88729	-0.0433314	9.41699	2.39433	1	9	0.00486186	0.00229877	0	4.88542e-06	-7.96403e-05	4.99211e-06	5.55558	0.00217164	0.00216144	-0.000210239	-30.2464	2.11674	1.82858	1.06624	0.408309	0.238413	0.472818	30.2808	2394.33	4100.56	4748.41	-59.7192	0.0000000E+000	0.0000000E+000	0.0000000E+000	59.7192	0.0000000E+000	0.0000000E+000	0.0000000E+000	-59.7192	0.0000000E+000	0.0000000E+000	0.0000000E+000	-30.2808	0.0000000E+000	0.0000000E+000	0.0000000E+000	30.2808	1.71261	59.7192	-2.58354e-06	-0.000168442	3.45093e-09	-0.000168445	3.88737	89710.6	1.83793	89712.4
3983.6	2.94589	1.84349	3.47515	-32.0376	11.4381	3.8871	-0.10083	21.6723	6.09868	1	9	0.00467264	0.00134458	0	-1.38486e-05	0.000187637	6.4144e-06	57.746	0.00477054	0.00254591	-0.00403441	-31.9589	3.47518	2.94844	1.83945	0.243932	0.152648	0.287757	32.0376	6098.68	9745.69	11496.6	-57.9624	0.0000000E+000	0.0000000E+000	0.0000000E+000	57.9624	0.0000000E+000	0.0000000E+000	0.0000000E+000	-57.9624	0.0000000E+000	0.0000000E+000	0.0000000E+000	-32.0376	0.0000000E+000	0.0000000E+000	0.0000000E+000	32.0376	1.598	57.9624	-7.68412e-06	-0.000391935	-1.89194e-08	-0.000391916	3.88691	38551.1	1.86093	38549.3
1000.32	4.8906	3.19654	5.84259	-33.169	14.2759	3.8872	-0.0251724	49.7738	14.8988	1	10	0.00459466	0.000786407	0	-3.86276e-05	-2.23667e-05	7.3942e-06	-81.8093	0.00940252	0.00133957	0.0093066	-33.2381	5.84881	4.89194	3.20585	0.143269	0.0936417	0.171157	33.169	14898.8	22794.6	27231.7	-56.831	0.0000000E+000	0.0000000E+000	0.0000000E+000	56.831	0.0000000E+000	0.0000000E+000	0.0000000E+000	-56.831	0.0000000E+000	0.0000000E+000	0.0000000E+000	-33.169	0.0000000E+000	0.0000000E+000	0.0000000E+000	33.169	1.52997	56.831	-2.93941e-06	-9.78502e-05	5.63022e-10	-9.78507e-05	3.88722	154423	0.888539	154424
251.044	8.93314	4.6771	10.0835	-27.6351	16.976	3.88718	-0.0249527	135.548	29.1627	1	10	0.0045182	0.00044808	0	-5.60092e-05	-9.87315e-05	1.84915e-05	59.1472	0.0412683	0.0211638	-0.0354284	-27.401	10.0859	8.9543	4.64168	0.0878586	0.0459999	0.0991722	27.6351	29162.7	55699.9	62872.4	-62.3649	0.0000000E+000	0.0000000E+000	0.0000000E+000	62.3649	0.0000000E+000	0.0000000E+000	0.0000000E+000	-62.3649	0.0000000E+000	0.0000000E+000	0.0000000E+000	-27.6351	0.0000000E+000	0.0000000E+000	0.0000000E+000	27.6351	1.90997	62.3649	-3.22293e-06	-9.69958e-05	2.46362e-09	-9.69983e-05	3.88728	155782	3.95674	155786
[...]
0.0602816	18.5735	3.01624	18.8168	-9.224	240.578	3.88722	-0.010803	875325	22490.9	1	11	0.00509535	0.000270786	0	-0.00191963	0.000187637	2.5861e-07	-9.70934	0.000955035	0.000941355	0.000161067	-9.22403	18.8178	18.5745	3.0164	0.0524567	0.00851868	0.0531439	9.224	2.24909e+07	1.38496e+08	1.4031e+08	-80.776	0.0000000E+000	0.0000000E+000	0.0000000E+000	80.776	0.0000000E+000	0.0000000E+000	0.0000000E+000	-80.776	0.0000000E+000	0.0000000E+000	0.0000000E+000	-9.224	0.0000000E+000	0.0000000E+000	0.0000000E+000	9.224	6.15784	80.776	0.000000000000000E+000	-4.19937e-05	-2.02704e-09	-4.19916e-05	3.88703	359827	17.3689	359810
0.00796479	23.6452	5.32033	24.2363	-12.6808	20329.5	3.88723	-0.000917234	3.75584e+06	180988	1	11	0.00508885	0.000209968	0	-0.0239773	-6.05491e-05	1.19186e-07	-67.4279	0.000567638	0.000217885	0.000524156	-12.6819	24.2367	23.6454	5.32086	0.040254	0.00905743	0.0412604	12.6808	1.80988e+08	8.04368e+08	8.24478e+08	-77.3192	0.0000000E+000	0.0000000E+000	0.0000000E+000	77.3192	0.0000000E+000	0.0000000E+000	0.0000000E+000	-77.3192	0.0000000E+000	0.0000000E+000	0.0000000E+000	-12.6808	0.0000000E+000	0.0000000E+000	0.0000000E+000	12.6808	4.4443	77.3192	-0.0220577	-3.5655e-06	5.55377e-11	-3.56556e-06	3.88729	4.23799e+06	66.0127	4.23806e+06
0.0019912	27.4874	8.8879	28.8887	-17.9183	20329.5	3.88723	-0.000917234	8.99304e+06	851237	1	11	0.00509998	0.000176539	0	-0.0239773	-6.05491e-05	3.8968e-07	-92.2768	0.00220733	-8.76902e-05	0.00220559	-17.9225	28.8893	27.4874	8.89011	0.0329367	0.0106499	0.0346157	17.9183	8.51237e+08	2.63261e+09	2.76681e+09	-72.0817	0.0000000E+000	0.0000000E+000	0.0000000E+000	72.0817	0.0000000E+000	0.0000000E+000	0.0000000E+000	-72.0817	0.0000000E+000	0.0000000E+000	0.0000000E+000	-17.9183	0.0000000E+000	0.0000000E+000	0.0000000E+000	17.9183	3.09268	72.0817	0.000000000000000E+000	-3.5655e-06	5.55377e-11	-3.56556e-06	3.88729	4.23799e+06	66.0127	4.23806e+06
0.000497799	30.1162	21.7775	37.1652	-35.8713	20329.5	3.88723	-0.000917234	1.4681e+07	5.04084e+06	1	11	0.00510144	0.000137264	0	-0.0239773	-6.05491e-05	1.26558e-06	-91.1914	0.00922001	-0.000191707	0.00921802	-35.883	37.1704	30.116	21.7868	0.0218036	0.0157666	0.0269069	35.8713	5.04084e+09	6.97099e+09	8.6026e+09	-54.1287	0.0000000E+000	0.0000000E+000	0.0000000E+000	54.1287	0.0000000E+000	0.0000000E+000	0.0000000E+000	-54.1287	0.0000000E+000	0.0000000E+000	0.0000000E+000	-35.8713	0.0000000E+000	0.0000000E+000	0.0000000E+000	35.8713	1.3829	54.1287	0.000000000000000E+000	-3.5655e-06	5.55377e-11	-3.56556e-06	3.88729	4.23799e+06	66.0127	4.23806e+06
9.95598e-05	38.2176	122.927	128.731	-72.7297	20329.5	3.88723	-0.000917234	1.30043e+07	1.18582e+07	1	11	0.00509941	3.96129e-05	0	-0.0239773	-6.05491e-05	1.00638e-06	16.1674	0.0254055	0.0244007	-0.00707403	-72.7184	128.732	38.242	122.92	0.0023062	0.00741791	0.00776813	72.7297	1.18582e+10	3.68666e+09	1.2418e+10	-17.2703	0.0000000E+000	0.0000000E+000	0.0000000E+000	17.2703	0.0000000E+000	0.0000000E+000	0.0000000E+000	-17.2703	0.0000000E+000	0.0000000E+000	0.0000000E+000	-72.7297	0.0000000E+000	0.0000000E+000	0.0000000E+000	72.7297	0.310896	17.2703	0.000000000000000E+000	-3.5655e-06	5.55377e-11	-3.56556e-06	3.88729	4.23799e+06	66.0127	4.23806e+06