Folder: EIS/txt (part 173)

File: 19157_R306_UA713_SOC00_C05.mpt
EC-Lab ASCII FILE
Nb header lines : 66

Potentio Electrochemical Impedance Spectroscopy

Run on channel : 5 (SN 65912)
Grouped channel(s) : 5, 6, 7, 8
User :
CE vs. WE compliance from -10 V to 10 V
Electrode connection : standard
Potential control : Ewe
Ewe ctrl range : min = -10.00 V, max = 10.00 V
Safety Limits :
	Do not start on E overload
Acquisition started on : 11/12/2025 13:01:01.674
Loaded Setting File :  C:\Users\Celltest\OneDrive - store-dot.com\Documents\EC-Lab\Data\@Biologic Test Protocols\anode half cell EIS SOC00.mps
Saved on :
	File : 19157_R306_UA713_SOC00_C05.mpr
	Directory : C:\Users\Celltest\OneDrive - store-dot.com\Documents\EC-Lab\Data\Charmaine\
	Host : 169.254.61.224
Device : VMP-3e (SN .003165)
Address : USB
EC-LAB for windows v11.62 (software)
Internet server v27.00 (firmware)
Command interpretor v12.03 (firmware)
Electrode material :
Initial state :
Electrolyte :
Comments :
Electrode surface area : 0.001 cm²
Characteristic mass : 0.001 g
Equivalent Weight : 0.000 g/eq.
Density : 0.000 g/cm3
Volume (V) : 0.001 cm³
Record Ece
Cycle Definition : Charge/Discharge alternance
Mode                Single sine
E (V)               0.0000
vs.                 Eoc
tE (h:m:s)          0:00:0.0000
record              0
dI                  0.000
unit dI             mA
dt (s)              0.000
fi                  100.000
unit fi             kHz
ff                  10.000
unit ff             mHz
Nd                  6
Points              per decade
spacing             Logarithmic
Va (mV)             5.0
pw                  0.10
Na                  2
corr                0
E range min (V)     -10.000
E range max (V)     10.000
I Range             Auto
Bandwidth           5
nc cycles           0
goto Ns'            0
nr cycles           0
inc. cycle          0

freq/Hz	Re(Z)/Ohm	-Im(Z)/Ohm	|Z|/Ohm	Phase(Z)/deg	time/s	<Ewe>/V	<I>/mA	Cs/µF	Cp/µF	cycle number	I Range	|Ewe|/V	|I|/A	Ns	(Q-Qo)/mA.h	<Ece>/V	|Ece|/V	Phase(Zce)/deg	|Zce|/Ohm	Re(Zce)/Ohm	-Im(Zce)/Ohm	Phase(Zwe-ce)/deg	|Zwe-ce|/Ohm	Re(Zwe-ce)/Ohm	-Im(Zwe-ce)/Ohm	Re(Y)/Ohm-1	Im(Y)/Ohm-1	|Y|/Ohm-1	Phase(Y)/deg	Re(C)/nF	Im(C)/nF	|C|/nF	Phase(C)/deg	Re(M)	Im(M)	|M|	Phase(M)/deg	Re(Permittivity)	Im(Permittivity)	|Permittivity|	Phase(Permittivity)/deg	Re(Resistivity)/Ohm.cm	Im(Resistivity)/Ohm.cm	|Resistivity|/Ohm.cm	Phase(Resistivity)/deg	Re(Conductivity)/mS/cm	Im(Conductivity)/mS/cm	|Conductivity|/mS/cm	Phase(Conductivity)/deg	Tan(Delta)	Loss Angle(Delta)/deg	dq/mA.h	Pwe/W	Pce/W	Pwe-ce/W	<Ewe-Ece>/V	Rwe/Ohm	Rce/Ohm	Rwe-ce/Ohm		Ewe-Ece/V
100004	2.92011	0.756272	3.01646	-14.5199	2.05356	0.290788	-0.000170504	2.10439	0.132278	1	9	0.004874	0.0016158	0	-1.97224e-06	5.67187e-05	2.81011e-05	55.2883	0.0173915	0.00990351	-0.0142963	-14.2104	3.0225	2.93002	0.741976	0.320926	0.0831159	0.331515	14.5199	132.278	510.751	527.603	-75.4801	0.0000000E+000	0.0000000E+000	0.0000000E+000	75.4801	0.0000000E+000	0.0000000E+000	0.0000000E+000	-75.4801	0.0000000E+000	0.0000000E+000	0.0000000E+000	-14.5199	0.0000000E+000	0.0000000E+000	0.0000000E+000	14.5199	3.86119	75.4801	-1.97224e-06	-4.95806e-08	-9.67077e-12	-4.9571e-08	0.290732	1.70546e+06	332.653	1.70513e+06
31621.1	3.62714	1.2316	3.83054	-18.755	3.20355	0.29075	-0.000505659	4.08669	0.422468	1	9	0.00536347	0.00140019	0	1.05124e-06	-0.000191467	1.37815e-05	8.52745	0.00984261	0.0097338	-0.00145949	-18.6877	3.83929	3.63688	1.23014	0.247198	0.0839366	0.26106	18.755	422.468	1244.19	1313.96	-71.245	0.0000000E+000	0.0000000E+000	0.0000000E+000	71.245	0.0000000E+000	0.0000000E+000	0.0000000E+000	-71.245	0.0000000E+000	0.0000000E+000	0.0000000E+000	-18.755	0.0000000E+000	0.0000000E+000	0.0000000E+000	18.755	2.94506	71.245	4.25259e-06	-1.4702e-07	9.6817e-11	-1.47117e-07	0.290941	574992	378.649	575371
10002.2	4.65791	1.61556	4.93012	-19.1287	4.63554	0.290763	-0.00786597	9.84919	1.05762	1	10	0.00526927	0.00106879	0	1.52811e-06	-5.54966e-07	2.93884e-05	42.4464	0.0274968	0.0202902	-0.0185576	-18.8484	4.94327	4.6782	1.597	0.191635	0.0664672	0.202835	19.1287	1057.62	3049.29	3227.5	-70.8713	0.0000000E+000	0.0000000E+000	0.0000000E+000	70.8713	0.0000000E+000	0.0000000E+000	0.0000000E+000	-70.8713	0.0000000E+000	0.0000000E+000	0.0000000E+000	-19.1287	0.0000000E+000	0.0000000E+000	0.0000000E+000	19.1287	2.88315	70.8713	-2.20345e-06	-2.28713e-06	4.36535e-12	-2.28714e-06	0.290764	36964.7	0.0705529	36964.8
3163.08	5.87861	2.10683	6.24474	-19.7171	5.78368	0.290719	-0.0108373	23.8826	2.71838	1	10	0.00547083	0.00087607	0	5.29628e-08	1.85363e-05	1.48419e-05	-60.7697	0.0169415	0.00827287	0.0147842	-19.819	6.25753	5.88688	2.12161	0.150746	0.0540257	0.160135	19.7171	2718.38	7585	8057.41	-70.2829	0.0000000E+000	0.0000000E+000	0.0000000E+000	70.2829	0.0000000E+000	0.0000000E+000	0.0000000E+000	-70.2829	0.0000000E+000	0.0000000E+000	0.0000000E+000	-19.7171	0.0000000E+000	0.0000000E+000	0.0000000E+000	19.7171	2.79027	70.2829	-7.71022e-07	-3.15059e-06	-2.00882e-10	-3.15039e-06	0.2907	26825.9	1.71042	26824.2
1000.32	7.48333	3.003	8.06339	-21.8652	7.35086	0.290754	-0.00557981	52.9817	7.34855	1	10	0.00501977	0.000622539	0	-4.08318e-06	-0.000172376	1.00513e-05	159.154	0.0161456	-0.0150888	-0.00574543	-21.8672	8.04724	7.46824	2.99725	0.115096	0.0461871	0.124017	21.8652	7348.55	18312.2	19731.7	-68.1348	0.0000000E+000	0.0000000E+000	0.0000000E+000	68.1348	0.0000000E+000	0.0000000E+000	0.0000000E+000	-68.1348	0.0000000E+000	0.0000000E+000	0.0000000E+000	-21.8652	0.0000000E+000	0.0000000E+000	0.0000000E+000	21.8652	2.49195	68.1348	-1.02659e-06	-1.62235e-06	9.61826e-10	-1.62331e-06	0.290926	52108.1	30.8928	52139
316.316	9.78625	4.5122	10.7764	-24.7533	8.70006	0.29075	-0.00573992	111.509	19.5497	1	10	0.00490895	0.000455528	0	-5.88444e-06	1.85363e-05	8.22641e-06	32.9117	0.0180591	0.0151608	-0.00981231	-24.6722	10.7861	9.80142	4.50239	0.0842693	0.0388545	0.0927954	24.7533	19549.7	42400.3	46690.2	-65.2468	0.0000000E+000	0.0000000E+000	0.0000000E+000	65.2468	0.0000000E+000	0.0000000E+000	0.0000000E+000	-65.2468	0.0000000E+000	0.0000000E+000	0.0000000E+000	-24.7533	0.0000000E+000	0.0000000E+000	0.0000000E+000	24.7533	2.16884	65.2468	-1.04379e-06	-1.66888e-06	-1.06397e-10	-1.66878e-06	0.290731	50654	3.22936	50650.7
100.032	13.782	7.13856	15.5211	-27.3824	10.0468	0.290752	-0.00524099	222.88	47.1464	1	10	0.00488609	0.000314804	0	-8.45948e-06	0.000247631	4.99383e-06	-41.5599	0.0158633	0.0118699	0.0105238	-27.3967	15.5364	13.7939	7.14908	0.0572098	0.0296325	0.0644286	27.3824	47146.4	91023	102508	-62.6176	0.0000000E+000	0.0000000E+000	0.0000000E+000	62.6176	0.0000000E+000	0.0000000E+000	0.0000000E+000	-62.6176	0.0000000E+000	0.0000000E+000	0.0000000E+000	-27.3824	0.0000000E+000	0.0000000E+000	0.0000000E+000	27.3824	1.93065	62.6176	-2.78067e-07	-1.52383e-06	-1.29783e-09	-1.52253e-06	0.290505	55476.6	47.2489	55429.3
[...]
0.316193	38.6114	3.38661	38.7597	-5.01259	34.1279	0.290762	-0.0027585	148629	1134.68	1	12	0.0048775	0.00012584	0	-3.46933e-05	0.000133084	2.03861e-06	-18.6123	0.0162	0.0153528	0.00517045	-5.01822	38.7754	38.6268	3.39178	0.0257013	0.00225427	0.0258	5.01259	1.13468e+06	1.29367e+07	1.29864e+07	-84.9874	0.0000000E+000	0.0000000E+000	0.0000000E+000	84.9874	0.0000000E+000	0.0000000E+000	0.0000000E+000	-84.9874	0.0000000E+000	0.0000000E+000	0.0000000E+000	-5.01259	0.0000000E+000	0.0000000E+000	0.0000000E+000	5.01259	11.4012	84.9874	-1.68791e-06	-8.02065e-07	-3.6711e-10	-8.01698e-07	0.290629	105406	48.245	105358
0.0999041	40.3788	4.80148	40.6633	-6.78125	79.3358	0.290756	-0.0011686	331789	4626.02	1	12	0.00487699	0.000119936	0	2.4366e-06	0.000209448	2.1776e-06	16.9436	0.0181564	0.0173682	-0.00529132	-6.77096	40.6799	40.3962	4.79619	0.0244202	0.00290382	0.0245922	6.78125	4.62601e+06	3.89032e+07	3.91773e+07	-83.2188	0.0000000E+000	0.0000000E+000	0.0000000E+000	83.2188	0.0000000E+000	0.0000000E+000	0.0000000E+000	-83.2188	0.0000000E+000	0.0000000E+000	0.0000000E+000	-6.78125	0.0000000E+000	0.0000000E+000	0.0000000E+000	6.78125	8.40966	83.2188	1.60096e-05	-3.39777e-07	-2.44761e-10	-3.39532e-07	0.290546	248807	179.23	248628
0.0315922	43.3558	9.55421	44.3961	-12.4275	222.219	0.290756	-8.87095e-05	527285	24420	1	12	0.00487192	0.000109738	0	-0.000115934	0.000438543	1.79011e-06	31.5308	0.0163126	0.0139042	-0.00853079	-12.4129	44.4078	43.3697	9.54568	0.0219968	0.00484737	0.0225245	12.4275	2.442e+07	1.10815e+08	1.13474e+08	-77.5725	0.0000000E+000	0.0000000E+000	0.0000000E+000	77.5725	0.0000000E+000	0.0000000E+000	0.0000000E+000	-77.5725	0.0000000E+000	0.0000000E+000	0.0000000E+000	-12.4275	0.0000000E+000	0.0000000E+000	0.0000000E+000	12.4275	4.53787	77.5725	-9.20689e-05	-2.57928e-08	-3.89029e-11	-2.57539e-08	0.290317	3.27761e+06	4943.58	3.27267e+06
0.0146812	47.2584	15.9079	49.864	-18.604	463.26	0.290757	-0.000779569	681471	69358	1	12	0.00487385	9.77429e-05	0	-0.000392474	0.000152175	1.89798e-06	6.89673	0.0194181	0.0192776	-0.00233173	-18.5944	49.8815	47.2777	15.9055	0.0190066	0.0063979	0.0200545	18.604	6.9358e+07	2.06046e+08	2.17406e+08	-71.396	0.0000000E+000	0.0000000E+000	0.0000000E+000	71.396	0.0000000E+000	0.0000000E+000	0.0000000E+000	-71.396	0.0000000E+000	0.0000000E+000	0.0000000E+000	-18.604	0.0000000E+000	0.0000000E+000	0.0000000E+000	18.604	2.97076	71.396	-0.00013327	-2.26665e-07	-1.18631e-10	-2.26547e-07	0.290605	372972	195.204	372777

0.0100092	49.6221	21.1853	53.9553	-23.1192	673.442	0.29076	-0.000849274	750565	115715	1	12	0.00487456	9.03444e-05	0	-0.000396833	-3.87374e-05	1.84381e-06	19.1442	0.0204087	0.01928	-0.00669297	-23.1046	53.9704	49.6414	21.1786	0.0170454	0.00727723	0.0185339	23.1192	1.15715e+08	2.71038e+08	2.94705e+08	-66.8808	0.0000000E+000	0.0000000E+000	0.0000000E+000	66.8808	0.0000000E+000	0.0000000E+000	0.0000000E+000	-66.8808	0.0000000E+000	0.0000000E+000	0.0000000E+000	-23.1192	0.0000000E+000	0.0000000E+000	0.0000000E+000	23.1192	2.34229	66.8808	-4.35858e-06	-2.46935e-07	3.28987e-11	-2.46968e-07	0.290799	342363	45.6123	342408

File: 19158_R306_UA713_SOC00_C06.mpt
EC-Lab ASCII FILE
Nb header lines : 65

Potentio Electrochemical Impedance Spectroscopy

Run on channel : 6 (SN 65795)
Grouped channel(s) : 5, 6, 7, 8
User :
CE vs. WE compliance from -10 V to 10 V
Electrode connection : standard
Potential control : Ewe
Ewe ctrl range : min = -10.00 V, max = 10.00 V
Safety Limits :
	Do not start on E overload
Acquisition started on : 11/12/2025 13:01:01.674
Loaded Setting File :  C:\Users\Celltest\OneDrive - store-dot.com\Documents\EC-Lab\Data\@Biologic Test Protocols\anode half cell EIS SOC00.mps
Saved on :
	File : 19157_R306_UA713_SOC00_C06.mpr
	Directory : C:\Users\Celltest\OneDrive - store-dot.com\Documents\EC-Lab\Data\Charmaine\
	Host : 169.254.61.224
Device : VMP-3e (SN .003165)
Address : USB
EC-LAB for windows v11.62 (software)
Internet server v27.00 (firmware)
Command interpretor v12.03 (firmware)
Electrode material :
Initial state :
Electrolyte :
Comments :
Electrode surface area : 0.001 cm²
Characteristic mass : 0.001 g
Equivalent Weight : 0.000 g/eq.
Density : 0.000 g/cm3
Volume (V) : 0.001 cm³
Record Ece
Cycle Definition : Charge/Discharge alternance
Mode                Single sine
E (V)               0.0000
vs.                 Eoc
tE (h:m:s)          0:00:0.0000
record              0
dI                  0.000
unit dI             mA
dt (s)              0.000
fi                  100.000
unit fi             kHz
ff                  10.000
unit ff             mHz
Nd                  6
Points              per decade
spacing             Logarithmic
Va (mV)             5.0
pw                  0.10
Na                  2
corr                0
E range min (V)     -10.000
E range max (V)     10.000
I Range             Auto
Bandwidth           5
nc cycles           0
goto Ns'            0
nr cycles           0
inc. cycle          0

freq/Hz	Re(Z)/Ohm	-Im(Z)/Ohm	|Z|/Ohm	Phase(Z)/deg	time/s	<Ewe>/V	<I>/mA	Cs/µF	Cp/µF	cycle number	I Range	|Ewe|/V	|I|/A	Ns	(Q-Qo)/mA.h	<Ece>/V	|Ece|/V	Phase(Zce)/deg	|Zce|/Ohm	Re(Zce)/Ohm	-Im(Zce)/Ohm	Phase(Zwe-ce)/deg	|Zwe-ce|/Ohm	Re(Zwe-ce)/Ohm	-Im(Zwe-ce)/Ohm	Re(Y)/Ohm-1	Im(Y)/Ohm-1	|Y|/Ohm-1	Phase(Y)/deg	Re(C)/nF	Im(C)/nF	|C|/nF	Phase(C)/deg	Re(M)	Im(M)	|M|	Phase(M)/deg	Re(Permittivity)	Im(Permittivity)	|Permittivity|	Phase(Permittivity)/deg	Re(Resistivity)/Ohm.cm	Im(Resistivity)/Ohm.cm	|Resistivity|/Ohm.cm	Phase(Resistivity)/deg	Re(Conductivity)/mS/cm	Im(Conductivity)/mS/cm	|Conductivity|/mS/cm	Phase(Conductivity)/deg	Tan(Delta)	Loss Angle(Delta)/deg	dq/mA.h	Pwe/W	Pce/W	Pwe-ce/W	<Ewe-Ece>/V	Rwe/Ohm	Rce/Ohm	Rwe-ce/Ohm		Ewe-Ece/V
100004	2.68907	0.823357	2.8123	-17.0239	2.18554	0.278973	-0.0023536	1.93293	0.16568	1	9	0.00465556	0.00165543	0	1.41541e-06	6.86329e-05	2.67818e-05	93.3877	0.0161782	-0.000956015	-0.0161499	-16.7143	2.8067	2.68812	0.807208	0.34	0.104103	0.355581	17.0239	165.68	541.107	565.903	-72.9761	0.0000000E+000	0.0000000E+000	0.0000000E+000	72.9761	0.0000000E+000	0.0000000E+000	0.0000000E+000	-72.9761	0.0000000E+000	0.0000000E+000	0.0000000E+000	-17.0239	0.0000000E+000	0.0000000E+000	0.0000000E+000	17.0239	3.26599	72.9761	1.41541e-06	-6.56592e-07	-1.61535e-10	-6.56431e-07	0.278904	118530	29.1608	118501
31621.1	3.41279	1.10719	3.5879	-17.9743	3.58256	0.278972	0.00256338	4.54592	0.432896	1	9	0.00520598	0.00145098	0	-4.84084e-06	0.000316907	1.72599e-05	-77.8684	0.0118953	0.0024999	0.0116297	-18.1383	3.59388	3.41529	1.11882	0.265112	0.0860085	0.278715	17.9743	432.896	1334.36	1402.82	-72.0257	0.0000000E+000	0.0000000E+000	0.0000000E+000	72.0257	0.0000000E+000	0.0000000E+000	0.0000000E+000	-72.0257	0.0000000E+000	0.0000000E+000	0.0000000E+000	-17.9743	0.0000000E+000	0.0000000E+000	0.0000000E+000	17.9743	3.0824	72.0257	7.10396e-07	7.15113e-07	8.12355e-10	7.14301e-07	0.278655	108830	123.629	108706
10002.2	4.28805	1.35666	4.49754	-17.5564	4.63856	0.279014	-0.0131703	11.7288	1.0672	1	10	0.00458796	0.0010201	0	-4.30678e-06	0.000183221	2.94533e-05	-32.311	0.0288728	0.0244021	0.0154329	-17.6495	4.52547	4.31245	1.37209	0.211987	0.0670688	0.222344	17.5564	1067.2	3373.13	3537.92	-72.4436	0.0000000E+000	0.0000000E+000	0.0000000E+000	72.4436	0.0000000E+000	0.0000000E+000	0.0000000E+000	-72.4436	0.0000000E+000	0.0000000E+000	0.0000000E+000	-17.5564	0.0000000E+000	0.0000000E+000	0.0000000E+000	17.5564	3.16074	72.4436	-1.32067e-06	-3.6747e-06	-2.41308e-09	-3.67229e-06	0.278831	21185.1	13.9117	21171.1
3163.08	5.29106	1.79364	5.58682	-18.7264	5.53867	0.278952	-0.014251	28.0527	2.89146	1	10	0.0048247	0.000863586	0	-7.50064e-06	6.86329e-05	9.02404e-06	167.147	0.0104495	-0.0101877	-0.00232447	-18.7374	5.57642	5.28088	1.79132	0.169517	0.0574655	0.178993	18.7264	2891.46	8529.51	9006.28	-71.2736	0.0000000E+000	0.0000000E+000	0.0000000E+000	71.2736	0.0000000E+000	0.0000000E+000	0.0000000E+000	-71.2736	0.0000000E+000	0.0000000E+000	0.0000000E+000	-18.7264	0.0000000E+000	0.0000000E+000	0.0000000E+000	18.7264	2.9499	71.2736	-1.18543e-06	-3.97535e-06	-9.78089e-10	-3.97437e-06	0.278883	19574.2	4.816	19569.3
1000.32	6.68235	2.60606	7.17254	-21.3053	6.89284	0.278996	0.00307373	61.0516	8.0597	1	10	0.0047402	0.000660881	0	-6.32506e-06	0.000145025	8.8158e-06	110.515	0.0133395	-0.00467482	-0.0124935	-21.2258	7.16365	6.67768	2.59356	0.129892	0.0506568	0.139421	21.3053	8059.7	20666.4	22182.4	-68.6947	0.0000000E+000	0.0000000E+000	0.0000000E+000	68.6947	0.0000000E+000	0.0000000E+000	0.0000000E+000	-68.6947	0.0000000E+000	0.0000000E+000	0.0000000E+000	-21.3053	0.0000000E+000	0.0000000E+000	0.0000000E+000	21.3053	2.56416	68.6947	7.47856e-07	8.57561e-07	4.45768e-10	8.57115e-07	0.278851	90767.9	47.182	90720.7
316.316	8.70144	4.05041	9.59797	-24.9614	8.24207	0.278992	0.00137815	124.222	22.1228	1	10	0.00471016	0.000490745	0	-5.1889e-06	1.13388e-05	6.22983e-06	21.8245	0.0126946	0.0117848	-0.00471941	-24.9062	9.60666	8.71323	4.0457	0.0944567	0.0439684	0.104189	24.9614	22122.8	47526.1	52422.8	-65.0386	0.0000000E+000	0.0000000E+000	0.0000000E+000	65.0386	0.0000000E+000	0.0000000E+000	0.0000000E+000	-65.0386	0.0000000E+000	0.0000000E+000	0.0000000E+000	-24.9614	0.0000000E+000	0.0000000E+000	0.0000000E+000	24.9614	2.14828	65.0386	5.65211e-07	3.84493e-07	1.56266e-11	3.84478e-07	0.278981	202440	8.22755	202432
100.032	12.4272	6.50321	14.026	-27.6233	9.58879	0.279	0.00191849	244.654	52.595	1	10	0.00469517	0.000334749	0	-4.63774e-06	0.000183221	9.55205e-06	27.0778	0.028535	0.0254072	-0.0129891	-27.5282	14.0425	12.4526	6.49022	0.0631697	0.033057	0.0712964	27.6233	52595	100506	113435	-62.3767	0.0000000E+000	0.0000000E+000	0.0000000E+000	62.3767	0.0000000E+000	0.0000000E+000	0.0000000E+000	-62.3767	0.0000000E+000	0.0000000E+000	0.0000000E+000	-27.6233	0.0000000E+000	0.0000000E+000	0.0000000E+000	27.6233	1.91093	62.3767	2.41066e-07	5.35259e-07	3.51509e-10	5.34908e-07	0.278816	145426	95.5026	145331
[...]
1.00006	31.3233	2.96359	31.4632	-5.40483	19.64	0.279021	0.000775852	53700	476.436	1	12	0.00468947	0.000149046	0	-2.40955e-06	0.000221417	3.48075e-06	15.271	0.0233535	0.0225289	-0.00615098	-5.38982	31.4851	31.3459	2.95744	0.0316418	0.00299373	0.0317831	5.40483	476436	5.03563e+06	5.05812e+06	-84.5952	0.0000000E+000	0.0000000E+000	0.0000000E+000	84.5952	0.0000000E+000	0.0000000E+000	0.0000000E+000	-84.5952	0.0000000E+000	0.0000000E+000	0.0000000E+000	-5.40483	0.0000000E+000	0.0000000E+000	0.0000000E+000	5.40483	10.5694	84.5952	-2.42176e-06	2.16479e-07	1.71787e-10	2.16307e-07	0.278799	359631	285.386	359346
0.316193	32.6785	2.67828	32.7881	-4.68539	33.9848	0.279028	-4.62018e-05	187937	1253.98	1	12	0.00468519	0.000142893	0	-1.48808e-05	0.000125927	2.72581e-06	33.8115	0.0190759	0.0158496	-0.010615	-4.66465	32.803	32.6944	2.66766	0.0303969	0.00249128	0.0304989	4.68539	1.25398e+06	1.53002e+07	1.53515e+07	-85.3146	0.0000000E+000	0.0000000E+000	0.0000000E+000	85.3146	0.0000000E+000	0.0000000E+000	0.0000000E+000	-85.3146	0.0000000E+000	0.0000000E+000	0.0000000E+000	-4.68539	0.0000000E+000	0.0000000E+000	0.0000000E+000	4.68539	12.2013	85.3146	-5.296e-07	-1.28916e-08	-5.81805e-12	-1.28858e-08	0.278902	6.03933e+06	2725.59	6.03661e+06
0.0999041	34.0404	4.21325	34.3001	-7.05574	79.193	0.279021	-3.46e-05	378111	5705.09	1	12	0.00468805	0.000136677	0	5.31537e-05	8.77309e-05	1.23426e-06	-44.4208	0.00903047	0.00644973	0.00632063	-7.06489	34.3073	34.0468	4.21957	0.0289336	0.00358118	0.0291544	7.05574	5.70509e+06	4.60935e+07	4.64452e+07	-82.9443	0.0000000E+000	0.0000000E+000	0.0000000E+000	82.9443	0.0000000E+000	0.0000000E+000	0.0000000E+000	-82.9443	0.0000000E+000	0.0000000E+000	0.0000000E+000	-7.05574	0.0000000E+000	0.0000000E+000	0.0000000E+000	7.05574	8.07936	82.9443	3.46122e-05	-9.65411e-09	-3.03549e-12	-9.65108e-09	0.278933	8.0642e+06	2535.58	8.06166e+06
0.0315922	36.6419	8.94334	37.7176	-13.7162	222.076	0.279016	0.000768011	563301	31670.4	1	12	0.00468229	0.000124141	0	1.91754e-05	-8.41514e-05	6.78359e-07	-30.3379	0.00546443	0.00471614	0.00276008	-13.7186	37.7228	36.6466	8.9461	0.0257568	0.00628656	0.0265129	13.7162	3.16704e+07	1.29757e+08	1.33566e+08	-76.2838	0.0000000E+000	0.0000000E+000	0.0000000E+000	76.2838	0.0000000E+000	0.0000000E+000	0.0000000E+000	-76.2838	0.0000000E+000	0.0000000E+000	0.0000000E+000	-13.7162	0.0000000E+000	0.0000000E+000	0.0000000E+000	13.7162	4.09712	76.2838	-6.87605e-05	2.14287e-07	-6.46292e-11	2.14352e-07	0.2791	363297	109.571	363406
0.0100092	42.3432	20.0609	46.8549	-25.3501	673.298	0.27902	-0.00052291	792633	145299	1	12	0.00468801	0.000100054	0	-0.000380204	-7.75924e-06	2.91433e-06	54.9089	0.0291277	0.0167449	-0.0238334	-25.315	46.8599	42.3599	20.037	0.0192874	0.00913775	0.0213425	25.3501	1.45299e+08	3.06687e+08	3.39365e+08	-64.6499	0.0000000E+000	0.0000000E+000	0.0000000E+000	64.6499	0.0000000E+000	0.0000000E+000	0.0000000E+000	-64.6499	0.0000000E+000	0.0000000E+000	0.0000000E+000	-25.3501	0.0000000E+000	0.0000000E+000	0.0000000E+000	25.3501	2.11074	64.6499	-7.17395e-05	-1.45902e-07	4.05739e-12	-1.45907e-07	0.279028	533592	14.8386	533606