Folder: EIS/txt (part 38)

File: 17494_R280_UC81_SOC50_C03.mpt
EC-Lab ASCII FILE
Nb header lines : 64

Potentio Electrochemical Impedance Spectroscopy

Run on channel : 3 (SN 65921)
User :
CE vs. WE compliance from -10 V to 10 V
Electrode connection : standard
Potential control : Ewe
Ewe ctrl range : min = -10.00 V, max = 10.00 V
Safety Limits :
	Do not start on E overload
Acquisition started on : 09/15/2025 12:22:15.638
Loaded Setting File :  C:\Users\Celltest\OneDrive - store-dot.com\Documents\EC-Lab\Data\John\17493_R280-G001, UC81 half-cell.mps
Saved on :
	File : 17494_R280-G001, UC81 half-cell_C03.mpr
	Directory : C:\Users\Celltest\OneDrive - store-dot.com\Documents\EC-Lab\Data\Gyutae\
	Host : 169.254.61.224
Device : VMP-3e (SN .003165)
Address : USB
EC-LAB for windows v11.62 (software)
Internet server v27.00 (firmware)
Command interpretor v12.03 (firmware)
Electrode material :
Initial state :
Electrolyte :
Comments :
Electrode surface area : 0.001 cm²
Characteristic mass : 0.001 g
Equivalent Weight : 0.000 g/eq.
Density : 0.000 g/cm3
Volume (V) : 0.001 cm³
Record Ece
Cycle Definition : Charge/Discharge alternance
Mode                Multi sine
E (V)               0.0000
vs.                 Eoc
tE (h:m:s)          0:00:0.0000
record              0
dI                  0.000
unit dI             mA
dt (s)              0.000
fi                  1.000
unit fi             MHz
ff                  0.100
unit ff             mHz
Nd                  10
Points              per decade
spacing             Logarithmic
Va (mV)             5.0
pw                  0.10
Na                  2
corr                0
E range min (V)     -10.000
E range max (V)     10.000
I Range             Auto
Bandwidth           5
nc cycles           0
goto Ns'            0
nr cycles           0
inc. cycle          0

freq/Hz	Re(Z)/Ohm	-Im(Z)/Ohm	|Z|/Ohm	Phase(Z)/deg	time/s	<Ewe>/V	<I>/mA	Cs/µF	Cp/µF	cycle number	I Range	|Ewe|/V	|I|/A	Ns	(Q-Qo)/mA.h	<Ece>/V	|Ece|/V	Phase(Zce)/deg	|Zce|/Ohm	Re(Zce)/Ohm	-Im(Zce)/Ohm	Phase(Zwe-ce)/deg	|Zwe-ce|/Ohm	Re(Zwe-ce)/Ohm	-Im(Zwe-ce)/Ohm	Re(Y)/Ohm-1	Im(Y)/Ohm-1	|Y|/Ohm-1	Phase(Y)/deg	Re(C)/nF	Im(C)/nF	|C|/nF	Phase(C)/deg	Re(M)	Im(M)	|M|	Phase(M)/deg	Re(Permittivity)	Im(Permittivity)	|Permittivity|	Phase(Permittivity)/deg	Re(Resistivity)/Ohm.cm	Im(Resistivity)/Ohm.cm	|Resistivity|/Ohm.cm	Phase(Resistivity)/deg	Re(Conductivity)/mS/cm	Im(Conductivity)/mS/cm	|Conductivity|/mS/cm	Phase(Conductivity)/deg	Tan(Delta)	Loss Angle(Delta)/deg	dq/mA.h	Pwe/W	Pce/W	Pwe-ce/W	<Ewe-Ece>/V	Rwe/Ohm	Rce/Ohm	Rwe-ce/Ohm		Ewe-Ece/V
1.00002e+06	2.98397	1.8633	3.51795	-31.9822	1.77452	3.78184	-0.0586783	0.0854138	0.0239617	1	10	0.000245387	6.97528e-05	0	-3.81833e-05	-0.000208064	0.000198481	-63.0997	2.84549	1.28741	2.5376	-45.8557	6.13291	4.27138	4.4009	0.24111	0.150558	0.284257	31.9822	23.9617	38.3731	45.24	-58.0178	0.0000000E+000	0.0000000E+000	0.0000000E+000	58.0178	0.0000000E+000	0.0000000E+000	0.0000000E+000	-58.0178	0.0000000E+000	0.0000000E+000	0.0000000E+000	-31.9822	0.0000000E+000	0.0000000E+000	0.0000000E+000	31.9822	1.60144	58.0178	-3.81833e-05	-0.000221912	1.22088e-08	-0.000221924	3.78204	64450.3	3.54583	64453.8
251206	1.18937	0.0904936	1.19281	-4.35098	4.60252	3.78149	-0.0257017	7.00119	0.0402964	1	9	0.0031133	0.00261006	0	-6.05234e-05	-3.6217e-05	4.6318e-05	100.053	0.017746	-0.00309774	-0.0174735	-3.52235	1.18852	1.18627	0.0730201	0.835941	0.0636028	0.838357	4.35098	40.2964	529.621	531.152	-85.649	0.0000000E+000	0.0000000E+000	0.0000000E+000	85.649	0.0000000E+000	0.0000000E+000	0.0000000E+000	-85.649	0.0000000E+000	0.0000000E+000	0.0000000E+000	-4.35098	0.0000000E+000	0.0000000E+000	0.0000000E+000	4.35098	13.1432	85.649	-3.50123e-06	-9.71905e-05	9.30837e-10	-9.71914e-05	3.78152	147130	1.40913	147131
63093.8	1.38878	0.249977	1.4111	-10.2038	6.78056	3.78145	-0.0268951	10.091	0.316678	1	9	0.00534527	0.00378802	0	-9.64718e-05	-0.000246252	4.64445e-05	-41.7291	0.0122609	0.00915031	0.00816096	-10.4622	1.42157	1.39793	0.258138	0.697458	0.125541	0.708667	10.2038	316.678	1759.35	1787.62	-79.7962	0.0000000E+000	0.0000000E+000	0.0000000E+000	79.7962	0.0000000E+000	0.0000000E+000	0.0000000E+000	-79.7962	0.0000000E+000	0.0000000E+000	0.0000000E+000	-10.2038	0.0000000E+000	0.0000000E+000	0.0000000E+000	10.2038	5.55564	79.7962	-5.13358e-06	-0.000101702	6.62295e-09	-0.000101709	3.7817	140600	9.15602	140609
15847.7	1.63511	0.427566	1.69009	-14.6542	8.95652	3.78144	-0.0128354	23.4883	1.50327	1	9	0.00521104	0.00308329	0	-0.000104498	-0.000169875	1.06261e-05	-47.5089	0.00344636	0.00232794	0.00254129	-14.7174	1.69298	1.63744	0.430107	0.572438	0.149687	0.591685	14.6542	1503.27	5748.87	5942.17	-75.3458	0.0000000E+000	0.0000000E+000	0.0000000E+000	75.3458	0.0000000E+000	0.0000000E+000	0.0000000E+000	-75.3458	0.0000000E+000	0.0000000E+000	0.0000000E+000	-14.6542	0.0000000E+000	0.0000000E+000	0.0000000E+000	14.6542	3.82423	75.3458	-3.56233e-06	-4.85361e-05	2.18041e-09	-4.85383e-05	3.78161	294611	13.2349	294624
3983.6	2.07654	0.72317	2.19886	-19.201	10.5571	3.78129	-0.106368	55.2464	5.97569	1	9	0.00465035	0.00211489	0	-0.000119913	0.000173818	1.00029e-05	-100.003	0.00472977	-0.000821571	0.00465787	-19.3226	2.19963	2.07572	0.727828	0.429481	0.14957	0.45478	19.201	5975.69	17158.9	18169.6	-70.799	0.0000000E+000	0.0000000E+000	0.0000000E+000	70.799	0.0000000E+000	0.0000000E+000	0.0000000E+000	-70.799	0.0000000E+000	0.0000000E+000	0.0000000E+000	-19.201	0.0000000E+000	0.0000000E+000	0.0000000E+000	19.201	2.87145	70.799	-8.25933e-06	-0.000402207	-1.84886e-08	-0.000402188	3.78111	35549.2	1.63412	35547.6
1000.32	2.85594	1.26185	3.12228	-23.8374	13.1848	3.78138	-0.00847209	126.088	20.5941	1	9	0.00451089	0.00144474	0	-0.000137581	4.01593e-05	9.82047e-06	-11.7497	0.00679738	0.00665496	0.0013842	-23.8114	3.12893	2.86259	1.26323	0.292957	0.129438	0.320278	23.8374	20594.1	46610.7	50957.6	-66.1626	0.0000000E+000	0.0000000E+000	0.0000000E+000	66.1626	0.0000000E+000	0.0000000E+000	0.0000000E+000	-66.1626	0.0000000E+000	0.0000000E+000	0.0000000E+000	-23.8374	0.0000000E+000	0.0000000E+000	0.0000000E+000	23.8374	2.2633	66.1626	-1.72404e-06	-3.20362e-05	-3.40233e-10	-3.20358e-05	3.78134	446334	4.74018	446329
251.044	4.42581	1.82523	4.78741	-22.4115	16.346	3.78138	-0.0831845	347.338	50.4878	1	10	0.00488213	0.00101978	0	-0.000208572	-1.71229e-05	1.38617e-05	116.667	0.0135928	-0.00610052	-0.0121469	-22.3048	4.77714	4.41971	1.81308	0.193104	0.0796374	0.208881	22.4115	50487.8	122423	132425	-67.5885	0.0000000E+000	0.0000000E+000	0.0000000E+000	67.5885	0.0000000E+000	0.0000000E+000	0.0000000E+000	-67.5885	0.0000000E+000	0.0000000E+000	0.0000000E+000	-22.4115	0.0000000E+000	0.0000000E+000	0.0000000E+000	22.4115	2.4248	67.5885	-1.07132e-05	-0.000314553	1.42436e-09	-0.000314554	3.7814	45457.8	0.205843	45458
63.0823	6.24144	1.31519	6.3785	-11.8992	19.066	3.78139	-0.0776844	1918.34	81.5573	1	10	0.00485421	0.000761027	0	-0.000269517	-0.000150781	7.40782e-06	-41.8788	0.00973399	0.00724752	0.006498	-11.9428	6.38694	6.24869	1.32168	0.153408	0.0323259	0.156777	11.8992	81557.2	387044	395543	-78.1008	0.0000000E+000	0.0000000E+000	0.0000000E+000	78.1008	0.0000000E+000	0.0000000E+000	0.0000000E+000	-78.1008	0.0000000E+000	0.0000000E+000	0.0000000E+000	-11.8992	0.0000000E+000	0.0000000E+000	0.0000000E+000	11.8992	4.74567	78.1008	-9.75438e-06	-0.000293755	1.17134e-08	-0.000293767	3.78154	48676.3	1.94095	48678.2
[...]
0.0602816	8.42799	1.42222	8.54715	-9.57841	239.823	3.78141	-0.0597137	1.85638e+06	51399.6	1	11	0.00505919	0.000591916	0	-0.00672223	-0.00018897	5.05169e-07	18.9089	0.000853448	0.000807392	-0.000276572	-9.57568	8.5479	8.4288	1.42194	0.115367	0.0194682	0.116998	9.57841	5.13996e+07	3.04591e+08	3.08897e+08	-80.4216	0.0000000E+000	0.0000000E+000	0.0000000E+000	80.4216	0.0000000E+000	0.0000000E+000	0.0000000E+000	-80.4216	0.0000000E+000	0.0000000E+000	0.0000000E+000	-9.57841	0.0000000E+000	0.0000000E+000	0.0000000E+000	9.57841	5.92593	80.4216	0.000000000000000E+000	-0.000225802	1.12841e-08	-0.000225813	3.7816	63325.6	3.16459	63328.8
0.00796479	12.3093	3.99747	12.9422	-17.9913	20328.7	3.78142	0.000542868	4.99874e+06	476889	1	11	0.00505348	0.000390466	0	-0.0351048	-0.000322628	4.4322e-07	-150.013	0.0011351	-0.000983156	0.000567333	-17.995	12.9414	12.3084	3.99804	0.0734887	0.0238655	0.0772668	17.9913	4.76889e+08	1.46848e+09	1.54397e+09	-72.0087	0.0000000E+000	0.0000000E+000	0.0000000E+000	72.0087	0.0000000E+000	0.0000000E+000	0.0000000E+000	-72.0087	0.0000000E+000	0.0000000E+000	0.0000000E+000	-17.9913	0.0000000E+000	0.0000000E+000	0.0000000E+000	17.9913	3.07928	72.0087	-0.0283825	2.05281e-06	-1.75144e-10	2.05299e-06	3.78174	6.96563e+06	594.303	6.96623e+06
0.0019912	16.5367	5.83412	17.5356	-19.4328	20328.7	3.78142	0.000542868	1.37003e+07	1.51649e+06	1	11	0.00506688	0.000288948	0	-0.0351048	-0.000322628	5.81577e-07	-59.7476	0.00201274	0.00101404	0.00173863	-19.4371	17.5372	16.5377	5.83586	0.0537781	0.0189729	0.0570268	19.4328	1.51649e+09	4.29845e+09	4.55811e+09	-70.5672	0.0000000E+000	0.0000000E+000	0.0000000E+000	70.5672	0.0000000E+000	0.0000000E+000	0.0000000E+000	-70.5672	0.0000000E+000	0.0000000E+000	0.0000000E+000	-19.4328	0.0000000E+000	0.0000000E+000	0.0000000E+000	19.4328	2.83447	70.5672	0.000000000000000E+000	2.05281e-06	-1.75144e-10	2.05299e-06	3.78174	6.96563e+06	594.303	6.96623e+06
0.000497799	19.7165	8.51408	21.4763	-23.3559	20328.7	3.78142	0.000542868	3.75516e+07	5.90183e+06	1	11	0.00506716	0.000235942	0	-0.0351048	-0.000322628	7.86559e-07	14.275	0.0033337	0.00323076	-0.000822007	-23.3505	21.4789	19.7197	8.51326	0.0427477	0.0184595	0.046563	23.3559	5.90183e+09	1.36672e+10	1.4887e+10	-66.6441	0.0000000E+000	0.0000000E+000	0.0000000E+000	66.6441	0.0000000E+000	0.0000000E+000	0.0000000E+000	-66.6441	0.0000000E+000	0.0000000E+000	0.0000000E+000	-23.3559	0.0000000E+000	0.0000000E+000	0.0000000E+000	23.3559	2.31575	66.6441	0.000000000000000E+000	2.05281e-06	-1.75144e-10	2.05299e-06	3.78174	6.96563e+06	594.303	6.96623e+06
9.95598e-05	24.1252	36.0161	43.3496	-56.1841	20328.7	3.78142	0.000542868	4.43853e+07	3.06382e+07	1	11	0.00506797	0.000116909	0	-0.0351048	-0.000322628	2.12392e-06	-72.9592	0.0181672	0.00532393	0.0173696	-56.191	43.367	24.1305	36.0335	0.0128381	0.0191658	0.0230683	56.1841	3.06382e+10	2.05228e+10	3.68766e+10	-33.8159	0.0000000E+000	0.0000000E+000	0.0000000E+000	33.8159	0.0000000E+000	0.0000000E+000	0.0000000E+000	-33.8159	0.0000000E+000	0.0000000E+000	0.0000000E+000	-56.1841	0.0000000E+000	0.0000000E+000	0.0000000E+000	56.1841	0.669844	33.8159	0.000000000000000E+000	2.05281e-06	-1.75144e-10	2.05299e-06	3.78174	6.96563e+06	594.303	6.96623e+06

File: 17495_R280_UC81_SOC50_C04.mpt
EC-Lab ASCII FILE
Nb header lines : 64

Potentio Electrochemical Impedance Spectroscopy

Run on channel : 4 (SN 66756)
User :
CE vs. WE compliance from -10 V to 10 V
Electrode connection : standard
Potential control : Ewe
Ewe ctrl range : min = -10.00 V, max = 10.00 V
Safety Limits :
	Do not start on E overload
Acquisition started on : 09/15/2025 12:22:32.413
Loaded Setting File :  C:\Users\Celltest\OneDrive - store-dot.com\Documents\EC-Lab\Data\Gyutae\17494_R280-G001, UC81 half-cell_C03.mpr
Saved on :
	File : 17495_R280-G001, UC81 half-cell_C04.mpr
	Directory : C:\Users\Celltest\OneDrive - store-dot.com\Documents\EC-Lab\Data\John\
	Host : 169.254.61.224
Device : VMP-3e (SN .003165)
Address : USB
EC-LAB for windows v11.62 (software)
Internet server v27.00 (firmware)
Command interpretor v12.03 (firmware)
Electrode material :
Initial state :
Electrolyte :
Comments :
Electrode surface area : 0.001 cm²
Characteristic mass : 0.001 g
Equivalent Weight : 0.000 g/eq.
Density : 0.000 g/cm3
Volume (V) : 0.001 cm³
Record Ece
Cycle Definition : Charge/Discharge alternance
Mode                Multi sine
E (V)               0.0000
vs.                 Eoc
tE (h:m:s)          0:00:0.0000
record              0
dI                  0.000
unit dI             mA
dt (s)              0.000
fi                  1.000
unit fi             MHz
ff                  0.100
unit ff             mHz
Nd                  10
Points              per decade
spacing             Logarithmic
Va (mV)             5.0
pw                  0.10
Na                  2
corr                0
E range min (V)     -10.000
E range max (V)     10.000
I Range             Auto
Bandwidth           5
nc cycles           0
goto Ns'            0
nr cycles           0
inc. cycle          0

freq/Hz	Re(Z)/Ohm	-Im(Z)/Ohm	|Z|/Ohm	Phase(Z)/deg	time/s	<Ewe>/V	<I>/mA	Cs/µF	Cp/µF	cycle number	I Range	|Ewe|/V	|I|/A	Ns	(Q-Qo)/mA.h	<Ece>/V	|Ece|/V	Phase(Zce)/deg	|Zce|/Ohm	Re(Zce)/Ohm	-Im(Zce)/Ohm	Phase(Zwe-ce)/deg	|Zwe-ce|/Ohm	Re(Zwe-ce)/Ohm	-Im(Zwe-ce)/Ohm	Re(Y)/Ohm-1	Im(Y)/Ohm-1	|Y|/Ohm-1	Phase(Y)/deg	Re(C)/nF	Im(C)/nF	|C|/nF	Phase(C)/deg	Re(M)	Im(M)	|M|	Phase(M)/deg	Re(Permittivity)	Im(Permittivity)	|Permittivity|	Phase(Permittivity)/deg	Re(Resistivity)/Ohm.cm	Im(Resistivity)/Ohm.cm	|Resistivity|/Ohm.cm	Phase(Resistivity)/deg	Re(Conductivity)/mS/cm	Im(Conductivity)/mS/cm	|Conductivity|/mS/cm	Phase(Conductivity)/deg	Tan(Delta)	Loss Angle(Delta)/deg	dq/mA.h	Pwe/W	Pce/W	Pwe-ce/W	<Ewe-Ece>/V	Rwe/Ohm	Rce/Ohm	Rwe-ce/Ohm		Ewe-Ece/V
1.00002e+06	2.0303	3.14844	3.7463	-57.1837	2.23353	3.78495	0.124518	0.0505495	0.0357028	1	10	0.000209103	5.58159e-05	0	2.42088e-05	3.03501e-06	0.000184433	-66.1884	3.3043	1.33405	3.02303	-61.4033	7.02893	3.36434	6.17147	0.144662	0.224331	0.26693	57.1837	35.7028	23.0232	42.4824	-32.8163	0.0000000E+000	0.0000000E+000	0.0000000E+000	32.8163	0.0000000E+000	0.0000000E+000	0.0000000E+000	-32.8163	0.0000000E+000	0.0000000E+000	0.0000000E+000	-57.1837	0.0000000E+000	0.0000000E+000	0.0000000E+000	57.1837	0.644858	32.8163	2.42088e-05	0.000471296	3.77915e-10	0.000471296	3.78495	30396.7	0.024374	30396.7
251206	1.06847	0.0732342	1.07097	-3.921	4.93756	3.78359	-0.0225129	8.65119	0.0404525	1	9	0.00240437	0.00224504	0	2.58619e-05	-0.000130735	5.00192e-05	77.3547	0.0222799	0.00487739	-0.0217395	-2.74671	1.07458	1.07334	0.0514947	0.931544	0.0638493	0.933729	3.921	40.4525	590.192	591.576	-86.079	0.0000000E+000	0.0000000E+000	0.0000000E+000	86.079	0.0000000E+000	0.0000000E+000	0.0000000E+000	-86.079	0.0000000E+000	0.0000000E+000	0.0000000E+000	-3.921	0.0000000E+000	0.0000000E+000	0.0000000E+000	3.921	14.5897	86.079	-3.08803e-07	-8.51796e-05	2.94321e-09	-8.51825e-05	3.78372	168064	5.80711	168069
63093.8	1.22458	0.24234	1.24833	-11.194	7.23755	3.78349	-0.0196782	10.409	0.392286	1	9	0.00526061	0.00421413	0	8.74129e-06	-1.60749e-05	2.01251e-05	51.6113	0.00477563	0.00296564	-0.00374322	-10.9994	1.25052	1.22754	0.238597	0.785832	0.155514	0.801072	11.194	392.286	1982.27	2020.71	-78.806	0.0000000E+000	0.0000000E+000	0.0000000E+000	78.806	0.0000000E+000	0.0000000E+000	0.0000000E+000	-78.806	0.0000000E+000	0.0000000E+000	0.0000000E+000	-11.194	0.0000000E+000	0.0000000E+000	0.0000000E+000	11.194	5.05313	78.806	-2.14561e-06	-7.44523e-05	3.16326e-10	-7.44526e-05	3.78351	192268	0.81689	192269
15847.7	1.48021	0.458544	1.54961	-17.2121	9.53954	3.7835	-0.0320983	21.9015	1.91775	1	9	0.00522661	0.00337286	0	8.17093e-06	0.000117695	8.93623e-06	2.19344	0.00264945	0.00264751	-0.000101403	-17.1796	1.55211	1.48286	0.458443	0.616425	0.190958	0.645325	17.2121	1917.75	6190.62	6480.86	-72.7879	0.0000000E+000	0.0000000E+000	0.0000000E+000	72.7879	0.0000000E+000	0.0000000E+000	0.0000000E+000	-72.7879	0.0000000E+000	0.0000000E+000	0.0000000E+000	-17.2121	0.0000000E+000	0.0000000E+000	0.0000000E+000	17.2121	3.22806	72.7879	-8.77748e-07	-0.000121444	-3.7778e-09	-0.00012144	3.78339	117873	3.6667	117869
3983.6	1.96105	0.811223	2.12221	-22.4733	11.907	3.7835	-0.0198648	49.2497	7.19626	1	9	0.00499351	0.00235297	0	-5.85608e-06	-0.000207174	4.33768e-06	16.268	0.00184349	0.00176968	-0.000516418	-22.4422	2.12365	1.96282	0.810707	0.435422	0.18012	0.471206	22.4733	7196.26	17396.2	18825.9	-67.5267	0.0000000E+000	0.0000000E+000	0.0000000E+000	67.5267	0.0000000E+000	0.0000000E+000	0.0000000E+000	-67.5267	0.0000000E+000	0.0000000E+000	0.0000000E+000	-22.4733	0.0000000E+000	0.0000000E+000	0.0000000E+000	22.4733	2.41739	67.5267	3.26238e-06	-7.51584e-05	4.11547e-09	-7.51625e-05	3.78371	190463	10.4292	190473
1000.32	2.78865	1.37525	3.10932	-26.2506	14.5358	3.78348	-0.0304572	115.691	22.6324	1	9	0.00505777	0.00162665	0	-3.5359e-05	-0.000436494	4.10185e-06	-15.6176	0.00252166	0.00242856	0.000678867	-26.242	3.1118	2.79108	1.37593	0.288445	0.142249	0.321614	26.2506	22632.4	45892.7	51170	-63.7494	0.0000000E+000	0.0000000E+000	0.0000000E+000	63.7494	0.0000000E+000	0.0000000E+000	0.0000000E+000	-63.7494	0.0000000E+000	0.0000000E+000	0.0000000E+000	-26.2506	0.0000000E+000	0.0000000E+000	0.0000000E+000	26.2506	2.02775	63.7494	-4.11733e-06	-0.000115234	1.32944e-08	-0.000115248	3.78392	124223	14.3314	124237
251.044	4.49363	2.21248	5.00877	-26.2137	17.483	3.78348	-0.0235135	286.544	55.9096	1	10	0.0049145	0.00098118	0	-5.52783e-05	-0.000245394	1.24072e-05	-18.0321	0.0126452	0.0120241	0.00391431	-26.1932	5.02128	4.50565	2.21639	0.179116	0.0881895	0.19965	26.2137	55909.6	113555	126572	-63.7863	0.0000000E+000	0.0000000E+000	0.0000000E+000	63.7863	0.0000000E+000	0.0000000E+000	0.0000000E+000	-63.7863	0.0000000E+000	0.0000000E+000	0.0000000E+000	-26.2137	0.0000000E+000	0.0000000E+000	0.0000000E+000	26.2137	2.03104	63.7863	-3.40529e-06	-8.89631e-05	5.77009e-09	-8.89688e-05	3.78373	160907	10.4363	160917
63.0823	6.94773	1.90457	7.20405	-15.3299	20.2049	3.78349	-0.0319699	1324.69	92.5886	1	10	0.00485674	0.000674169	0	-7.67739e-05	-0.000226284	1.29881e-05	-12.9809	0.0192654	0.018773	0.0043275	-15.3236	7.2233	6.9665	1.9089	0.133872	0.0366982	0.138811	15.3299	92588.6	337755	350216	-74.6701	0.0000000E+000	0.0000000E+000	0.0000000E+000	74.6701	0.0000000E+000	0.0000000E+000	0.0000000E+000	-74.6701	0.0000000E+000	0.0000000E+000	0.0000000E+000	-15.3299	0.0000000E+000	0.0000000E+000	0.0000000E+000	15.3299	3.64792	74.6701	-2.88917e-06	-0.000120958	7.23428e-09	-0.000120965	3.78372	118346	7.07806	118353
[...]
0.0602816	9.6944	1.46228	9.80406	-8.57768	240.893	3.78347	-0.0153761	1.80553e+06	40165.5	1	11	0.00508373	0.000518533	0	-0.00328394	4.12549e-05	3.01166e-07	41.1051	0.000580804	0.000437639	-0.000381845	-8.57509	9.80443	9.69483	1.4619	0.100858	0.0152131	0.101999	8.57768	4.01655e+07	2.66283e+08	2.69296e+08	-81.4223	0.0000000E+000	0.0000000E+000	0.0000000E+000	81.4223	0.0000000E+000	0.0000000E+000	0.0000000E+000	-81.4223	0.0000000E+000	0.0000000E+000	0.0000000E+000	-8.57768	0.0000000E+000	0.0000000E+000	0.0000000E+000	8.57768	6.62966	81.4223	0.000000000000000E+000	-5.81752e-05	-6.34342e-10	-5.81746e-05	3.78343	246061	2.68305	246058
0.00796479	13.7486	3.8049	14.2654	-15.4693	20329.8	3.78346	0.000571764	5.25173e+06	373612	1	11	0.00507452	0.000355722	0	-0.0145786	7.94748e-05	4.2313e-07	-3.76469	0.0011895	0.00118693	7.8101e-05	-15.4683	14.2666	13.7498	3.80498	0.0675601	0.0186971	0.0700996	15.4693	3.73612e+08	1.35001e+09	1.40075e+09	-74.5307	0.0000000E+000	0.0000000E+000	0.0000000E+000	74.5307	0.0000000E+000	0.0000000E+000	0.0000000E+000	-74.5307	0.0000000E+000	0.0000000E+000	0.0000000E+000	-15.4693	0.0000000E+000	0.0000000E+000	0.0000000E+000	15.4693	3.6134	74.5307	-0.0112947	2.16325e-06	4.54409e-11	2.1632e-06	3.78338	6.61717e+06	138.999	6.61703e+06
0.0019912	17.4248	5.22404	18.191	-16.689	20329.8	3.78346	0.000571764	1.53003e+07	1.26182e+06	1	11	0.00509011	0.000279814	0	-0.0145786	7.94748e-05	7.78148e-07	-26.1502	0.00278094	0.00249629	0.00122563	-16.6904	18.1938	17.4273	5.22526	0.0526566	0.0157867	0.0549722	16.689	1.26182e+09	4.20881e+09	4.39389e+09	-73.311	0.0000000E+000	0.0000000E+000	0.0000000E+000	73.311	0.0000000E+000	0.0000000E+000	0.0000000E+000	-73.311	0.0000000E+000	0.0000000E+000	0.0000000E+000	-16.689	0.0000000E+000	0.0000000E+000	0.0000000E+000	16.689	3.3355	73.311	0.000000000000000E+000	2.16325e-06	4.54409e-11	2.1632e-06	3.78338	6.61717e+06	138.999	6.61703e+06
0.000497799	19.738	8.3641	21.437	-22.9651	20329.8	3.78346	0.000571764	3.82249e+07	5.81911e+06	1	11	0.00508971	0.000237426	0	-0.0145786	7.94748e-05	1.53868e-06	-25.371	0.00648065	0.00585561	0.00277682	-22.9659	21.4435	19.7438	8.36688	0.042951	0.0182008	0.0466483	22.9651	5.81911e+09	1.37322e+10	1.49143e+10	-67.0349	0.0000000E+000	0.0000000E+000	0.0000000E+000	67.0349	0.0000000E+000	0.0000000E+000	0.0000000E+000	-67.0349	0.0000000E+000	0.0000000E+000	0.0000000E+000	-22.9651	0.0000000E+000	0.0000000E+000	0.0000000E+000	22.9651	2.35984	67.0349	0.000000000000000E+000	2.16325e-06	4.54409e-11	2.1632e-06	3.78338	6.61717e+06	138.999	6.61703e+06
9.95598e-05	23.2683	34.7563	41.826	-56.1989	20329.8	3.78346	0.000571764	4.59941e+07	3.17597e+07	1	11	0.00508832	0.000121654	0	-0.0145786	7.94748e-05	2.12315e-06	-91.1309	0.0174523	-0.000344443	0.0174489	-56.2125	41.8403	23.268	34.7738	0.0133006	0.0198674	0.0239086	56.1989	3.17597e+10	2.12622e+10	3.82199e+10	-33.8011	0.0000000E+000	0.0000000E+000	0.0000000E+000	33.8011	0.0000000E+000	0.0000000E+000	0.0000000E+000	-33.8011	0.0000000E+000	0.0000000E+000	0.0000000E+000	-56.1989	0.0000000E+000	0.0000000E+000	0.0000000E+000	56.1989	0.66947	33.8011	0.000000000000000E+000	2.16325e-06	4.54409e-11	2.1632e-06	3.78338	6.61717e+06	138.999	6.61703e+06