Folder: EIS/txt (part 41)

File: 17544_R290_UC82_50SOC_C01.mpt
EC-Lab ASCII FILE
Nb header lines : 64

Potentio Electrochemical Impedance Spectroscopy

Run on channel : 1 (SN 66354)
User :
CE vs. WE compliance from -10 V to 10 V
Electrode connection : standard
Potential control : Ewe
Ewe ctrl range : min = -10.00 V, max = 10.00 V
Safety Limits :
	Do not start on E overload
Acquisition started on : 09/16/2025 16:51:03.280
Loaded Setting File :  C:\Users\Celltest\OneDrive - store-dot.com\Documents\EC-Lab\Data\Michael\UC74_NCMA_16706_EIS_50_SOC.mps
Saved on :
	File : 17544_R290_UC82_50SOC_C01.mpr
	Directory : C:\Users\Celltest\OneDrive - store-dot.com\Documents\EC-Lab\Data\Michael\R290\
	Host : 169.254.61.224
Device : VMP-3e (SN .003165)
Address : USB
EC-LAB for windows v11.62 (software)
Internet server v27.00 (firmware)
Command interpretor v12.03 (firmware)
Electrode material :
Initial state :
Electrolyte :
Comments :
Electrode surface area : 0.001 cm²
Characteristic mass : 0.001 g
Equivalent Weight : 0.000 g/eq.
Density : 0.000 g/cm3
Volume (V) : 0.001 cm³
Record Ece
Cycle Definition : Charge/Discharge alternance
Mode                Multi sine
E (V)               0.0000
vs.                 Eoc
tE (h:m:s)          0:00:0.0000
record              0
dI                  0.000
unit dI             mA
dt (s)              0.000
fi                  1.000
unit fi             MHz
ff                  0.100
unit ff             mHz
Nd                  10
Points              per decade
spacing             Logarithmic
Va (mV)             5.0
pw                  0.10
Na                  2
corr                0
E range min (V)     -10.000
E range max (V)     10.000
I Range             Auto
Bandwidth           5
nc cycles           0
goto Ns'            0
nr cycles           0
inc. cycle          0

freq/Hz	Re(Z)/Ohm	-Im(Z)/Ohm	|Z|/Ohm	Phase(Z)/deg	time/s	<Ewe>/V	<I>/mA	Cs/µF	Cp/µF	cycle number	I Range	|Ewe|/V	|I|/A	Ns	(Q-Qo)/mA.h	<Ece>/V	|Ece|/V	Phase(Zce)/deg	|Zce|/Ohm	Re(Zce)/Ohm	-Im(Zce)/Ohm	Phase(Zwe-ce)/deg	|Zwe-ce|/Ohm	Re(Zwe-ce)/Ohm	-Im(Zwe-ce)/Ohm	Re(Y)/Ohm-1	Im(Y)/Ohm-1	|Y|/Ohm-1	Phase(Y)/deg	Re(C)/nF	Im(C)/nF	|C|/nF	Phase(C)/deg	Re(M)	Im(M)	|M|	Phase(M)/deg	Re(Permittivity)	Im(Permittivity)	|Permittivity|	Phase(Permittivity)/deg	Re(Resistivity)/Ohm.cm	Im(Resistivity)/Ohm.cm	|Resistivity|/Ohm.cm	Phase(Resistivity)/deg	Re(Conductivity)/mS/cm	Im(Conductivity)/mS/cm	|Conductivity|/mS/cm	Phase(Conductivity)/deg	Tan(Delta)	Loss Angle(Delta)/deg	dq/mA.h	Pwe/W	Pce/W	Pwe-ce/W	<Ewe-Ece>/V	Rwe/Ohm	Rce/Ohm	Rwe-ce/Ohm		Ewe-Ece/V
1.00002e+06	1.07913	-0.144495	1.08877	7.6265	2.69353	3.78985	0.116452	-1.10143	-0.0193998	1	9	0.000217611	0.00019987	0	1.46084e-05	0.000161492	0.000199121	-5.03624	0.996257	0.992411	0.0874572	1.57719	2.07233	2.07155	-0.0570381	0.910347	-0.121895	0.918472	-7.6265	-19.3998	144.884	146.177	-97.6265	0.0000000E+000	0.0000000E+000	0.0000000E+000	97.6265	0.0000000E+000	0.0000000E+000	0.0000000E+000	-97.6265	0.0000000E+000	0.0000000E+000	0.0000000E+000	7.6265	0.0000000E+000	0.0000000E+000	0.0000000E+000	-7.6265	7.4683	82.3735	1.46084e-05	0.000441338	1.88061e-08	0.000441319	3.78969	32544.2	1.38676	32542.8
251206	0.64238	0.374806	0.743728	-30.262	4.99151	3.78955	0.0942117	1.69038	0.429306	1	9	0.00191121	0.00256977	0	7.79697e-05	0.000142415	6.14278e-05	120.343	0.023904	-0.0120758	-0.0206295	-29.3322	0.722997	0.630305	0.354176	1.16135	0.677606	1.34458	30.262	429.306	735.789	851.874	-59.738	0.0000000E+000	0.0000000E+000	0.0000000E+000	59.738	0.0000000E+000	0.0000000E+000	0.0000000E+000	-59.738	0.0000000E+000	0.0000000E+000	0.0000000E+000	-30.262	0.0000000E+000	0.0000000E+000	0.0000000E+000	30.262	1.7139	59.738	1.19621e-05	0.00035702	1.34171e-08	0.000357006	3.7894	40223.8	1.51165	40222.2
63093.8	1.06445	1.10365	1.53333	-46.0357	7.28956	3.78945	0.0886608	2.28561	1.18411	1	9	0.00541406	0.00353091	0	0.000129106	0.000161492	3.33898e-05	74.3954	0.00945643	0.00254376	-0.00910787	-45.73	1.52856	1.067	1.09454	0.452747	0.469417	0.652175	46.0357	1184.11	1142.06	1645.12	-43.9643	0.0000000E+000	0.0000000E+000	0.0000000E+000	43.9643	0.0000000E+000	0.0000000E+000	0.0000000E+000	-43.9643	0.0000000E+000	0.0000000E+000	0.0000000E+000	-46.0357	0.0000000E+000	0.0000000E+000	0.0000000E+000	46.0357	0.964487	43.9643	2.16199e-05	0.000335975	1.4318e-08	0.000335961	3.78929	42741	1.82146	42739.2
15847.7	2.82091	2.00848	3.46287	-35.4508	9.95952	3.78943	0.0876176	5.0002	1.68209	1	9	0.00486028	0.00140354	0	0.000194002	0.000123337	1.45332e-05	-100.355	0.0103547	-0.00186114	0.0101861	-35.6057	3.46728	2.81904	2.01866	0.235242	0.167492	0.288777	35.4508	1682.09	2362.49	2900.13	-54.5492	0.0000000E+000	0.0000000E+000	0.0000000E+000	54.5492	0.0000000E+000	0.0000000E+000	0.0000000E+000	-54.5492	0.0000000E+000	0.0000000E+000	0.0000000E+000	-35.4508	0.0000000E+000	0.0000000E+000	0.0000000E+000	35.4508	1.4045	54.5492	9.62752e-06	0.000332021	1.08065e-08	0.00033201	3.78931	43249.7	1.40768	43248.3
3983.6	4.66002	1.56446	4.91562	-18.5579	11.8401	3.78924	-0.0468108	25.5376	2.58673	1	10	0.00473577	0.000963411	0	0.000203691	8.87343e-06	1.3012e-05	-52.7301	0.0135061	0.00817892	0.0107481	-18.6461	4.9268	4.6682	1.57521	0.192855	0.0647451	0.203433	18.5579	2586.73	7705.05	8127.66	-71.4421	0.0000000E+000	0.0000000E+000	0.0000000E+000	71.4421	0.0000000E+000	0.0000000E+000	0.0000000E+000	-71.4421	0.0000000E+000	0.0000000E+000	0.0000000E+000	-18.5579	0.0000000E+000	0.0000000E+000	0.0000000E+000	18.5579	2.97868	71.4421	-3.49236e-06	-0.000177377	-4.15373e-10	-0.000177377	3.78923	80948	0.18956	80947.9
1000.32	5.73885	1.4353	5.91561	-14.0418	14.4688	3.78921	-0.0172264	110.85	6.52568	1	10	0.00460472	0.000778402	0	0.000191062	-0.000162822	1.05864e-05	71.5008	0.0136002	0.00431523	-0.0128974	-13.9105	5.91668	5.74316	1.42241	0.163993	0.0410152	0.169044	14.0418	6525.68	26091.9	26895.6	-75.9582	0.0000000E+000	0.0000000E+000	0.0000000E+000	75.9582	0.0000000E+000	0.0000000E+000	0.0000000E+000	-75.9582	0.0000000E+000	0.0000000E+000	0.0000000E+000	-14.0418	0.0000000E+000	0.0000000E+000	0.0000000E+000	14.0418	3.99835	75.9582	-1.91674e-06	-6.52743e-05	2.80484e-09	-6.52771e-05	3.78937	219966	9.45193	219975
251.044	7.19645	1.4565	7.34237	-11.4417	17.1701	3.7892	-0.0176885	435.269	17.1281	1	10	0.00457529	0.000623136	0	0.000177285	0.000218724	5.19206e-06	-27.0569	0.00833215	0.00742024	0.00379008	-11.4591	7.35039	7.20387	1.46029	0.133489	0.0270172	0.136196	11.4417	17128.1	84628.4	86344.3	-78.5583	0.0000000E+000	0.0000000E+000	0.0000000E+000	78.5583	0.0000000E+000	0.0000000E+000	0.0000000E+000	-78.5583	0.0000000E+000	0.0000000E+000	0.0000000E+000	-11.4417	0.0000000E+000	0.0000000E+000	0.0000000E+000	11.4417	4.94091	78.5583	-2.24247e-06	-6.70253e-05	-3.8689e-09	-6.70215e-05	3.78899	214218	12.3653	214206
63.0823	8.36866	0.891679	8.41603	-6.0819	19.892	3.78922	-0.012318	2829.46	31.7619	1	10	0.00457654	0.000543788	0	0.000164804	0.000123337	8.09727e-06	-128.389	0.0148905	-0.00924699	0.0116713	-6.16766	8.40808	8.35942	0.90335	0.118152	0.0125891	0.118821	6.0819	31761.9	298094	299782	-83.9181	0.0000000E+000	0.0000000E+000	0.0000000E+000	83.9181	0.0000000E+000	0.0000000E+000	0.0000000E+000	-83.9181	0.0000000E+000	0.0000000E+000	0.0000000E+000	-6.0819	0.0000000E+000	0.0000000E+000	0.0000000E+000	6.0819	9.38529	83.9181	-1.7191e-06	-4.66755e-05	-1.51927e-09	-4.6674e-05	3.7891	307617	10.0128	307607
[...]
0.0602816	9.97729	1.05735	10.0332	-6.04936	240.525	3.78927	-0.0050547	2.497e+06	27731.7	1	11	0.00502883	0.000501221	0	-0.0024384	-6.74358e-05	3.21647e-07	79.446	0.000641728	0.00011754	-0.000630872	-6.0457	10.0332	9.97741	1.05672	0.0991145	0.0105037	0.0996695	6.04936	2.77317e+07	2.61681e+08	2.63146e+08	-83.9506	0.0000000E+000	0.0000000E+000	0.0000000E+000	83.9506	0.0000000E+000	0.0000000E+000	0.0000000E+000	-83.9506	0.0000000E+000	0.0000000E+000	0.0000000E+000	-6.04936	0.0000000E+000	0.0000000E+000	0.0000000E+000	6.04936	9.43616	83.9506	0.000000000000000E+000	-1.91536e-05	3.40867e-10	-1.91539e-05	3.78933	749653	13.3412	749666
0.00796479	12.6579	1.95765	12.8084	-8.79161	20329.4	3.78926	0.00185438	1.02073e+07	238447	1	11	0.00502191	0.000392079	0	-0.0124051	0.000142415	5.97435e-07	-8.21395	0.00152376	0.00150813	0.0002177	-8.79154	12.8099	12.6594	1.95787	0.0771565	0.0119329	0.0780738	8.79161	2.38447e+08	1.54177e+09	1.5601e+09	-81.2084	0.0000000E+000	0.0000000E+000	0.0000000E+000	81.2084	0.0000000E+000	0.0000000E+000	0.0000000E+000	-81.2084	0.0000000E+000	0.0000000E+000	0.0000000E+000	-8.79161	0.0000000E+000	0.0000000E+000	0.0000000E+000	8.79161	6.46587	81.2084	-0.00996667	7.02673e-06	2.64091e-10	7.02647e-06	3.78912	2.04341e+06	76.799	2.04334e+06
0.0019912	14.0881	3.02072	14.4083	-12.1019	20329.4	3.78926	0.00185438	2.64604e+07	1.16302e+06	1	11	0.00503443	0.000349411	0	-0.0124051	0.000142415	7.86767e-07	-8.59519	0.0022517	0.00222641	0.000336521	-12.1013	14.4106	14.0904	3.02105	0.0678619	0.0145506	0.0694043	12.1019	1.16302e+09	5.42415e+09	5.54743e+09	-77.8981	0.0000000E+000	0.0000000E+000	0.0000000E+000	77.8981	0.0000000E+000	0.0000000E+000	0.0000000E+000	-77.8981	0.0000000E+000	0.0000000E+000	0.0000000E+000	-12.1019	0.0000000E+000	0.0000000E+000	0.0000000E+000	12.1019	4.66384	77.8981	0.000000000000000E+000	7.02673e-06	2.64091e-10	7.02647e-06	3.78912	2.04341e+06	76.799	2.04334e+06
0.000497799	14.6483	7.89593	16.6408	-28.3262	20329.4	3.78926	0.00185438	4.04914e+07	9.11631e+06	1	11	0.00503432	0.000302528	0	-0.0124051	0.000142415	3.68951e-07	24.3928	0.00121956	0.0011107	-0.000503668	-28.3229	16.6416	14.6494	7.89542	0.0528976	0.0285137	0.0600931	28.3262	9.11631e+09	1.69123e+10	1.92128e+10	-61.6738	0.0000000E+000	0.0000000E+000	0.0000000E+000	61.6738	0.0000000E+000	0.0000000E+000	0.0000000E+000	-61.6738	0.0000000E+000	0.0000000E+000	0.0000000E+000	-28.3262	0.0000000E+000	0.0000000E+000	0.0000000E+000	28.3262	1.85517	61.6738	0.000000000000000E+000	7.02673e-06	2.64091e-10	7.02647e-06	3.78912	2.04341e+06	76.799	2.04334e+06
9.95598e-05	16.6182	38.7542	42.1669	-66.7899	20329.4	3.78926	0.00185438	4.12494e+07	3.48426e+07	1	11	0.00503602	0.000119431	0	-0.0124051	0.000142415	1.60002e-06	-27.1909	0.0133971	0.0119166	0.00612188	-66.7783	42.1773	16.6301	38.7603	0.0093463	0.0217959	0.0237153	66.7899	3.48426e+10	1.49409e+10	3.79109e+10	-23.2101	0.0000000E+000	0.0000000E+000	0.0000000E+000	23.2101	0.0000000E+000	0.0000000E+000	0.0000000E+000	-23.2101	0.0000000E+000	0.0000000E+000	0.0000000E+000	-66.7899	0.0000000E+000	0.0000000E+000	0.0000000E+000	66.7899	0.42881	23.2101	0.000000000000000E+000	7.02673e-06	2.64091e-10	7.02647e-06	3.78912	2.04341e+06	76.799	2.04334e+06

File: 17545_R290_UC82_50SOC_C02.mpt
EC-Lab ASCII FILE
Nb header lines : 64

Potentio Electrochemical Impedance Spectroscopy

Run on channel : 2 (SN 66139)
User :
CE vs. WE compliance from -10 V to 10 V
Electrode connection : standard
Potential control : Ewe
Ewe ctrl range : min = -10.00 V, max = 10.00 V
Safety Limits :
	Do not start on E overload
Acquisition started on : 09/16/2025 16:51:35.302
Loaded Setting File :  C:\Users\Celltest\OneDrive - store-dot.com\Documents\EC-Lab\Data\Michael\UC74_NCMA_16706_EIS_50_SOC.mps
Saved on :
	File : 17545_R290_UC82_50SOC_C02.mpr
	Directory : C:\Users\Celltest\OneDrive - store-dot.com\Documents\EC-Lab\Data\Michael\R290\
	Host : 169.254.61.224
Device : VMP-3e (SN .003165)
Address : USB
EC-LAB for windows v11.62 (software)
Internet server v27.00 (firmware)
Command interpretor v12.03 (firmware)
Electrode material :
Initial state :
Electrolyte :
Comments :
Electrode surface area : 0.001 cm²
Characteristic mass : 0.001 g
Equivalent Weight : 0.000 g/eq.
Density : 0.000 g/cm3
Volume (V) : 0.001 cm³
Record Ece
Cycle Definition : Charge/Discharge alternance
Mode                Multi sine
E (V)               0.0000
vs.                 Eoc
tE (h:m:s)          0:00:0.0000
record              0
dI                  0.000
unit dI             mA
dt (s)              0.000
fi                  1.000
unit fi             MHz
ff                  0.100
unit ff             mHz
Nd                  10
Points              per decade
spacing             Logarithmic
Va (mV)             5.0
pw                  0.10
Na                  2
corr                0
E range min (V)     -10.000
E range max (V)     10.000
I Range             Auto
Bandwidth           5
nc cycles           0
goto Ns'            0
nr cycles           0
inc. cycle          0

freq/Hz	Re(Z)/Ohm	-Im(Z)/Ohm	|Z|/Ohm	Phase(Z)/deg	time/s	<Ewe>/V	<I>/mA	Cs/µF	Cp/µF	cycle number	I Range	|Ewe|/V	|I|/A	Ns	(Q-Qo)/mA.h	<Ece>/V	|Ece|/V	Phase(Zce)/deg	|Zce|/Ohm	Re(Zce)/Ohm	-Im(Zce)/Ohm	Phase(Zwe-ce)/deg	|Zwe-ce|/Ohm	Re(Zwe-ce)/Ohm	-Im(Zwe-ce)/Ohm	Re(Y)/Ohm-1	Im(Y)/Ohm-1	|Y|/Ohm-1	Phase(Y)/deg	Re(C)/nF	Im(C)/nF	|C|/nF	Phase(C)/deg	Re(M)	Im(M)	|M|	Phase(M)/deg	Re(Permittivity)	Im(Permittivity)	|Permittivity|	Phase(Permittivity)/deg	Re(Resistivity)/Ohm.cm	Im(Resistivity)/Ohm.cm	|Resistivity|/Ohm.cm	Phase(Resistivity)/deg	Re(Conductivity)/mS/cm	Im(Conductivity)/mS/cm	|Conductivity|/mS/cm	Phase(Conductivity)/deg	Tan(Delta)	Loss Angle(Delta)/deg	dq/mA.h	Pwe/W	Pce/W	Pwe-ce/W	<Ewe-Ece>/V	Rwe/Ohm	Rce/Ohm	Rwe-ce/Ohm		Ewe-Ece/V
1.00002e+06	2.31001	2.30496	3.26328	-44.9373	1.77454	3.78777	-0.102373	0.0690476	0.0344482	1	10	0.000193148	5.91882e-05	0	-4.30708e-05	0.000293435	0.000179089	-66.7626	3.02576	1.19379	2.7803	-55.4328	6.17548	3.5038	5.08527	0.216923	0.216449	0.30644	44.9373	34.4482	34.5237	48.7706	-45.0627	0.0000000E+000	0.0000000E+000	0.0000000E+000	45.0627	0.0000000E+000	0.0000000E+000	0.0000000E+000	-45.0627	0.0000000E+000	0.0000000E+000	0.0000000E+000	-44.9373	0.0000000E+000	0.0000000E+000	0.0000000E+000	44.9373	1.00219	45.0627	-4.30708e-05	-0.000387763	-3.00396e-08	-0.000387733	3.78747	36999.8	2.86634	36997
251206	0.734729	0.29212	0.790671	-21.6822	4.47757	3.78781	-0.0632413	2.16884	0.296046	1	9	0.00176573	0.00223321	0	-0.000100937	0.000159799	3.63869e-05	82.5939	0.0162936	0.00210025	-0.0161576	-20.5323	0.786811	0.736829	0.275962	1.17526	0.467272	1.26475	21.6822	296.046	744.604	801.298	-68.3178	0.0000000E+000	0.0000000E+000	0.0000000E+000	68.3178	0.0000000E+000	0.0000000E+000	0.0000000E+000	-68.3178	0.0000000E+000	0.0000000E+000	0.0000000E+000	-21.6822	0.0000000E+000	0.0000000E+000	0.0000000E+000	21.6822	2.51516	68.3178	-8.71642e-06	-0.000239546	-1.01059e-08	-0.000239536	3.78765	59894.6	2.52681	59892
63093.8	1.22322	0.900591	1.51899	-36.3622	6.77752	3.78771	-0.0720313	2.80095	0.984578	1	9	0.00533124	0.00350973	0	-0.000152029	0.000121617	2.32054e-05	-87.6757	0.00661175	0.000268149	0.00660631	-36.5563	1.52313	1.22349	0.907197	0.530145	0.390317	0.658332	36.3622	984.579	1337.3	1660.65	-53.6378	0.0000000E+000	0.0000000E+000	0.0000000E+000	53.6378	0.0000000E+000	0.0000000E+000	0.0000000E+000	-53.6378	0.0000000E+000	0.0000000E+000	0.0000000E+000	-36.3622	0.0000000E+000	0.0000000E+000	0.0000000E+000	36.3622	1.35824	53.6378	2.62313e-06	-0.000272834	-8.76023e-09	-0.000272825	3.78759	52584.2	1.68839	52582.5
15847.7	2.41566	1.12454	2.66459	-24.963	9.07955	3.78769	-0.0609693	8.93055	1.59064	1	9	0.00518398	0.00194551	0	-0.000201497	0.000236162	1.09761e-05	-72.0768	0.00564174	0.0017362	0.00536794	-25.0518	2.66843	2.4174	1.12991	0.340233	0.158386	0.375293	24.963	1590.64	3416.89	3768.99	-65.037	0.0000000E+000	0.0000000E+000	0.0000000E+000	65.037	0.0000000E+000	0.0000000E+000	0.0000000E+000	-65.037	0.0000000E+000	0.0000000E+000	0.0000000E+000	-24.963	0.0000000E+000	0.0000000E+000	0.0000000E+000	24.963	2.14813	65.037	-6.54198e-06	-0.000230933	-1.43986e-08	-0.000230918	3.78745	62124.5	3.87346	62120.6
3983.6	3.26698	0.953328	3.40323	-16.2676	11.176	3.78765	-0.0450653	41.9085	3.28854	1	9	0.0051313	0.00150777	0	-0.000237175	0.000140708	9.96742e-06	-56.2318	0.00661069	0.00367445	0.00549542	-16.339	3.4083	3.27065	0.958823	0.282074	0.0823112	0.293838	16.2676	3288.54	11269.6	11739.6	-73.7324	0.0000000E+000	0.0000000E+000	0.0000000E+000	73.7324	0.0000000E+000	0.0000000E+000	0.0000000E+000	-73.7324	0.0000000E+000	0.0000000E+000	0.0000000E+000	-16.2676	0.0000000E+000	0.0000000E+000	0.0000000E+000	16.2676	3.42692	73.7324	-3.08813e-06	-0.000170692	-6.34104e-09	-0.000170685	3.78751	84048	3.12231	84044.9
1000.32	4.03611	1.14377	4.19505	-15.8219	14.0498	3.78765	-0.0850465	139.105	10.3406	1	10	0.0051567	0.00122924	0	-0.000299701	0.00017889	1.0559e-05	-115.043	0.00858989	-0.00363612	0.00778235	-15.9377	4.19368	4.03248	1.15155	0.229345	0.0649929	0.238376	15.8219	10340.6	36489.7	37926.6	-74.1781	0.0000000E+000	0.0000000E+000	0.0000000E+000	74.1781	0.0000000E+000	0.0000000E+000	0.0000000E+000	-74.1781	0.0000000E+000	0.0000000E+000	0.0000000E+000	-15.8219	0.0000000E+000	0.0000000E+000	0.0000000E+000	15.8219	3.52877	74.1781	-1.14775e-05	-0.000322126	-1.52139e-08	-0.000322111	3.78747	44536.2	2.10343	44534.1
251.044	5.36774	1.35113	5.53517	-14.1286	16.751	3.78764	-0.0842456	469.217	27.9578	1	10	0.00505712	0.000913633	0	-0.000360738	0.000274344	1.19717e-05	-4.10058	0.0131034	0.0130698	0.00093699	-14.105	5.54808	5.38081	1.35206	0.175198	0.0440995	0.180663	14.1286	27957.8	111070	114535	-75.8714	0.0000000E+000	0.0000000E+000	0.0000000E+000	75.8714	0.0000000E+000	0.0000000E+000	0.0000000E+000	-75.8714	0.0000000E+000	0.0000000E+000	0.0000000E+000	-14.1286	0.0000000E+000	0.0000000E+000	0.0000000E+000	14.1286	3.97279	75.8714	-1.07008e-05	-0.000319092	-2.31122e-08	-0.000319069	3.78737	44959.5	3.25648	44956.3
63.0823	6.5092	0.801644	6.55837	-7.02094	19.472	3.78764	-0.0797082	3147.25	47.0221	1	10	0.00503268	0.000767367	0	-0.000421561	0.000350707	5.43708e-06	47.4381	0.00708537	0.00479245	-0.00521871	-6.97061	6.5625	6.51399	0.796425	0.151333	0.0186376	0.152477	7.02094	47022.1	381810	384695	-82.9791	0.0000000E+000	0.0000000E+000	0.0000000E+000	82.9791	0.0000000E+000	0.0000000E+000	0.0000000E+000	-82.9791	0.0000000E+000	0.0000000E+000	0.0000000E+000	-7.02094	0.0000000E+000	0.0000000E+000	0.0000000E+000	7.02094	8.11981	82.9791	-9.83937e-06	-0.000301907	-2.79543e-08	-0.000301879	3.78729	47518.9	4.39989	47514.5
[...]
0.0602816	7.97339	1.03248	8.03996	-7.37818	240.224	3.78764	-0.0468074	2.55714e+06	42170.3	1	11	0.00500017	0.000621915	0	-0.00648446	0.00017889	4.64238e-07	26.3804	0.000746465	0.000668731	-0.000331676	-7.37523	8.04058	7.97406	1.03214	0.123349	0.0159725	0.124379	7.37818	4.21703e+07	3.25664e+08	3.28383e+08	-82.6218	0.0000000E+000	0.0000000E+000	0.0000000E+000	82.6218	0.0000000E+000	0.0000000E+000	0.0000000E+000	-82.6218	0.0000000E+000	0.0000000E+000	0.0000000E+000	-7.37818	0.0000000E+000	0.0000000E+000	0.0000000E+000	7.37818	7.7226	82.6218	0.000000000000000E+000	-0.00017729	-8.37335e-09	-0.000177281	3.78747	80919.9	3.82183	80916
0.00796479	10.709	2.04351	10.9022	-10.8034	20329.2	3.78762	0.00106627	9.77842e+06	343554	1	11	0.00499468	0.000458135	0	-0.0343867	0.000236162	2.1682e-07	-127.872	0.000473267	-0.000290541	0.000373588	-10.8057	10.902	10.7087	2.04389	0.0900989	0.0171929	0.0917246	10.8034	3.43554e+08	1.80038e+09	1.83287e+09	-79.1965	0.0000000E+000	0.0000000E+000	0.0000000E+000	79.1965	0.0000000E+000	0.0000000E+000	0.0000000E+000	-79.1965	0.0000000E+000	0.0000000E+000	0.0000000E+000	-10.8034	0.0000000E+000	0.0000000E+000	0.0000000E+000	10.8034	5.24047	79.1965	-0.0279022	4.03862e-06	2.51812e-10	4.03837e-06	3.78738	3.55222e+06	221.485	3.552e+06
0.0019912	12.3186	3.10314	12.7035	-14.139	20329.2	3.78762	0.00106627	2.57576e+07	1.53696e+06	1	11	0.00500594	0.000394061	0	-0.0343867	0.000236162	1.23699e-06	-85.5283	0.00313909	0.000244747	0.00312953	-14.1524	12.7045	12.3189	3.10627	0.0763339	0.019229	0.0787186	14.139	1.53696e+09	6.10132e+09	6.29192e+09	-75.861	0.0000000E+000	0.0000000E+000	0.0000000E+000	75.861	0.0000000E+000	0.0000000E+000	0.0000000E+000	-75.861	0.0000000E+000	0.0000000E+000	0.0000000E+000	-14.139	0.0000000E+000	0.0000000E+000	0.0000000E+000	14.139	3.96973	75.861	0.000000000000000E+000	4.03862e-06	2.51812e-10	4.03837e-06	3.78738	3.55222e+06	221.485	3.552e+06
0.000497799	12.9298	7.43215	14.9136	-29.8907	20329.2	3.78762	0.00106627	4.30181e+07	1.06835e+07	1	11	0.00500232	0.00033542	0	-0.0343867	0.000236162	1.41967e-06	-64.6306	0.0042325	0.00181343	0.00382434	-29.8999	14.9171	12.9316	7.43597	0.0581333	0.0334156	0.0670528	29.8907	1.06835e+10	1.85862e+10	2.14379e+10	-60.1093	0.0000000E+000	0.0000000E+000	0.0000000E+000	60.1093	0.0000000E+000	0.0000000E+000	0.0000000E+000	-60.1093	0.0000000E+000	0.0000000E+000	0.0000000E+000	-29.8907	0.0000000E+000	0.0000000E+000	0.0000000E+000	29.8907	1.73971	60.1093	0.000000000000000E+000	4.03862e-06	2.51812e-10	4.03837e-06	3.78738	3.55222e+06	221.485	3.552e+06
9.95598e-05	14.883	38.0976	40.9014	-68.6617	20329.2	3.78762	0.00106627	4.19603e+07	3.64046e+07	1	11	0.00501242	0.000122549	0	-0.0343867	0.000236162	1.60334e-06	10.2532	0.0130833	0.0128744	-0.00232881	-68.6437	40.904	14.8959	38.0952	0.00889638	0.022773	0.024449	68.6617	3.64046e+10	1.42216e+10	3.90839e+10	-21.3383	0.0000000E+000	0.0000000E+000	0.0000000E+000	21.3383	0.0000000E+000	0.0000000E+000	0.0000000E+000	-21.3383	0.0000000E+000	0.0000000E+000	0.0000000E+000	-68.6617	0.0000000E+000	0.0000000E+000	0.0000000E+000	68.6617	0.390655	21.3383	0.000000000000000E+000	4.03862e-06	2.51812e-10	4.03837e-06	3.78738	3.55222e+06	221.485	3.552e+06