Folder: EIS/txt (part 120)

File: 18727_R302_UA699_SOC00_C02.mpt
EC-Lab ASCII FILE
Nb header lines : 65

Potentio Electrochemical Impedance Spectroscopy

Run on channel : 2 (SN 66139)
User :
CE vs. WE compliance from -10 V to 10 V
Electrode connection : standard
Potential control : Ewe
Ewe ctrl range : min = -10.00 V, max = 10.00 V
Safety Limits :
	Do not start on E overload
Acquisition started on : 10/31/2025 11:23:56.500
Technique started on : 10/31/2025 11:23:58.412
Loaded Setting File :  C:\Users\Celltest\OneDrive - store-dot.com\Documents\EC-Lab\Data\@Biologic Test Protocols\anode half cell EIS SOC00.mps
Saved on :
	File : 18727_R302_UA699_SOC00_C02.mpr
	Directory : C:\Users\Celltest\OneDrive - store-dot.com\Documents\EC-Lab\Data\Charmaine\
	Host : 169.254.61.224
Device : VMP-3e (SN .003165)
Address : USB
EC-LAB for windows v11.62 (software)
Internet server v27.00 (firmware)
Command interpretor v12.03 (firmware)
Electrode material :
Initial state :
Electrolyte :
Comments :
Electrode surface area : 0.001 cm²
Characteristic mass : 0.001 g
Equivalent Weight : 0.000 g/eq.
Density : 0.000 g/cm3
Volume (V) : 0.001 cm³
Record Ece
Cycle Definition : Charge/Discharge alternance
Mode                Single sine
E (V)               0.0000
vs.                 Eoc
tE (h:m:s)          0:00:0.0000
record              0
dI                  0.000
unit dI             mA
dt (s)              0.000
fi                  100.000
unit fi             kHz
ff                  10.000
unit ff             mHz
Nd                  6
Points              per decade
spacing             Logarithmic
Va (mV)             5.0
pw                  0.10
Na                  2
corr                0
E range min (V)     -10.000
E range max (V)     10.000
I Range             Auto
Bandwidth           5
nc cycles           0
goto Ns'            0
nr cycles           0
inc. cycle          0

freq/Hz	Re(Z)/Ohm	-Im(Z)/Ohm	|Z|/Ohm	Phase(Z)/deg	time/s	<Ewe>/V	<I>/mA	Cs/µF	Cp/µF	cycle number	I Range	|Ewe|/V	|I|/A	Ns	(Q-Qo)/mA.h	<Ece>/V	|Ece|/V	Phase(Zce)/deg	|Zce|/Ohm	Re(Zce)/Ohm	-Im(Zce)/Ohm	Phase(Zwe-ce)/deg	|Zwe-ce|/Ohm	Re(Zwe-ce)/Ohm	-Im(Zwe-ce)/Ohm	Re(Y)/Ohm-1	Im(Y)/Ohm-1	|Y|/Ohm-1	Phase(Y)/deg	Re(C)/nF	Im(C)/nF	|C|/nF	Phase(C)/deg	Re(M)	Im(M)	|M|	Phase(M)/deg	Re(Permittivity)	Im(Permittivity)	|Permittivity|	Phase(Permittivity)/deg	Re(Resistivity)/Ohm.cm	Im(Resistivity)/Ohm.cm	|Resistivity|/Ohm.cm	Phase(Resistivity)/deg	Re(Conductivity)/mS/cm	Im(Conductivity)/mS/cm	|Conductivity|/mS/cm	Phase(Conductivity)/deg	Tan(Delta)	Loss Angle(Delta)/deg	dq/mA.h	Pwe/W	Pce/W	Pwe-ce/W	<Ewe-Ece>/V	Rwe/Ohm	Rce/Ohm	Rwe-ce/Ohm		Ewe-Ece/V
100004	1.65142	0.863629	1.86361	-27.6079	1.91154	0.274179	-0.011246	1.84279	0.395751	1	9	0.00462677	0.00248269	0	-6.37106e-06	-0.000152384	1.9973e-05	67.1526	0.00804491	0.00312367	-0.00741372	-27.3613	1.86296	1.65454	0.856216	0.475497	0.248667	0.536593	27.6079	395.751	756.749	853.983	-62.3921	0.0000000E+000	0.0000000E+000	0.0000000E+000	62.3921	0.0000000E+000	0.0000000E+000	0.0000000E+000	-62.3921	0.0000000E+000	0.0000000E+000	0.0000000E+000	-27.6079	0.0000000E+000	0.0000000E+000	0.0000000E+000	27.6079	1.91218	62.3921	-6.37106e-06	-3.08341e-06	1.71371e-09	-3.08513e-06	0.274332	24380.2	13.5501	24393.8
31621.1	2.50251	1.21844	2.78337	-25.9608	3.30856	0.274179	-0.0067765	4.13084	0.791597	1	9	0.00535508	0.00192396	0	-1.77274e-05	0.000191251	9.74284e-06	-10.3738	0.00506396	0.00498119	0.000911861	-25.9329	2.78825	2.50749	1.21935	0.323023	0.157276	0.359277	25.9608	791.598	1625.83	1808.3	-64.0392	0.0000000E+000	0.0000000E+000	0.0000000E+000	64.0392	0.0000000E+000	0.0000000E+000	0.0000000E+000	-64.0392	0.0000000E+000	0.0000000E+000	0.0000000E+000	-25.9608	0.0000000E+000	0.0000000E+000	0.0000000E+000	25.9608	2.05387	64.0392	-5.73961e-06	-1.85797e-06	-1.29601e-09	-1.85668e-06	0.273988	40460.3	28.2227	40432.1
10002.2	3.44486	1.39405	3.71624	-22.032	4.21156	0.274169	-0.0145609	11.4142	1.60619	1	9	0.0054141	0.00145688	0	-1.95383e-05	0.000363069	9.00373e-06	-125.278	0.00618016	-0.00356932	0.00504522	-22.1248	3.71483	3.44129	1.3991	0.249439	0.100942	0.269089	22.032	1606.18	3969.06	4281.73	-67.968	0.0000000E+000	0.0000000E+000	0.0000000E+000	67.968	0.0000000E+000	0.0000000E+000	0.0000000E+000	-67.968	0.0000000E+000	0.0000000E+000	0.0000000E+000	-22.032	0.0000000E+000	0.0000000E+000	0.0000000E+000	22.032	2.47111	67.968	-6.89365e-07	-3.99215e-06	-5.2866e-09	-3.98686e-06	0.273806	18829.1	24.9345	18804.2
3163.08	4.38427	1.80462	4.74115	-22.3727	5.26961	0.274102	-0.0219301	27.882	4.03952	1	10	0.00529743	0.00111733	0	-2.39867e-05	-0.000152384	1.11767e-05	-46.5371	0.0100031	0.00688096	0.00726044	-22.4221	4.75027	4.39115	1.81188	0.195043	0.0802823	0.210919	22.3727	4039.52	9813.87	10612.7	-67.6273	0.0000000E+000	0.0000000E+000	0.0000000E+000	67.6273	0.0000000E+000	0.0000000E+000	0.0000000E+000	-67.6273	0.0000000E+000	0.0000000E+000	0.0000000E+000	-22.3727	0.0000000E+000	0.0000000E+000	0.0000000E+000	22.3727	2.42947	67.6273	-1.55791e-06	-6.01109e-06	3.3418e-09	-6.01443e-06	0.274255	12498.9	6.94863	12505.9
1000.32	5.53373	2.95975	6.27553	-28.1404	6.62479	0.27411	-0.0144126	53.7559	11.9573	1	10	0.00513827	0.000818779	0	-2.89143e-05	-0.000209657	7.6175e-06	-51.3751	0.00930349	0.00580741	0.00726835	-28.1738	6.28408	5.53954	2.96702	0.140513	0.0751543	0.159349	28.1404	11957.3	22356.2	25353.1	-61.8596	0.0000000E+000	0.0000000E+000	0.0000000E+000	61.8596	0.0000000E+000	0.0000000E+000	0.0000000E+000	-61.8596	0.0000000E+000	0.0000000E+000	0.0000000E+000	-28.1404	0.0000000E+000	0.0000000E+000	0.0000000E+000	28.1404	1.86966	61.8596	-1.83875e-06	-3.95065e-06	3.02171e-09	-3.95367e-06	0.27432	19018.8	14.5467	19033.3
316.316	7.72649	5.80966	9.66699	-36.9401	7.97505	0.274111	-0.0148448	86.606	31.28	1	10	0.00506642	0.000524095	0	-3.36579e-05	0.000133978	9.81763e-06	38.981	0.0187325	0.0145618	-0.0117839	-36.8324	9.67157	7.74105	5.79788	0.0826797	0.0621682	0.103445	36.9401	31280	41600.5	52048.4	-53.0599	0.0000000E+000	0.0000000E+000	0.0000000E+000	53.0599	0.0000000E+000	0.0000000E+000	0.0000000E+000	-53.0599	0.0000000E+000	0.0000000E+000	0.0000000E+000	-36.9401	0.0000000E+000	0.0000000E+000	0.0000000E+000	36.9401	1.32994	53.0599	-1.42524e-06	-4.06911e-06	-1.98888e-09	-4.06712e-06	0.273977	18465.2	9.0253	18456.1
100.032	13.7527	10.5807	17.3519	-37.573	9.32177	0.274103	-0.0142785	150.372	55.9115	1	10	0.00503315	0.000290063	0	-3.8557e-05	9.57967e-05	1.16773e-05	-76.0187	0.0402578	0.0097265	0.0390652	-37.6555	17.3835	13.7625	10.6198	0.0456767	0.0351415	0.0576306	37.573	55911.5	72673.4	91692.5	-52.427	0.0000000E+000	0.0000000E+000	0.0000000E+000	52.427	0.0000000E+000	0.0000000E+000	0.0000000E+000	-52.427	0.0000000E+000	0.0000000E+000	0.0000000E+000	-37.573	0.0000000E+000	0.0000000E+000	0.0000000E+000	37.573	1.29979	52.427	-2.09046e-06	-3.91379e-06	-1.36784e-09	-3.91243e-06	0.274008	19196.9	6.70914	19190.2
[...]
1.00006	42.3528	6.65654	42.8727	-8.93205	19.0716	0.274159	-0.00587481	23908	576.341	1	12	0.00503476	0.000117435	0	-5.62659e-05	0.000133978	3.23255e-06	-6.09125	0.0275262	0.0273708	0.00292087	-8.93022	42.9002	42.3801	6.65946	0.023042	0.00362149	0.0233249	8.93205	576341	3.66702e+06	3.71203e+06	-81.068	0.0000000E+000	0.0000000E+000	0.0000000E+000	81.068	0.0000000E+000	0.0000000E+000	0.0000000E+000	-81.068	0.0000000E+000	0.0000000E+000	0.0000000E+000	-8.93205	0.0000000E+000	0.0000000E+000	0.0000000E+000	8.93205	6.36258	81.068	-7.42744e-08	-1.61063e-06	-7.87097e-10	-1.60984e-06	0.274025	46666.9	22.8056	46644.1
0.316193	47.1258	6.63173	47.5901	-8.01029	33.4169	0.274156	-0.00429568	75899.8	1473.88	1	12	0.00503575	0.000105815	0	-6.8374e-05	0.000267614	1.79779e-06	-8.49379	0.01699	0.0168036	0.00250946	-8.01046	47.6071	47.1426	6.63424	0.0208077	0.00292815	0.0210128	8.01029	1.47388e+06	1.04735e+07	1.05767e+07	-81.9897	0.0000000E+000	0.0000000E+000	0.0000000E+000	81.9897	0.0000000E+000	0.0000000E+000	0.0000000E+000	-81.9897	0.0000000E+000	0.0000000E+000	0.0000000E+000	-8.01029	0.0000000E+000	0.0000000E+000	0.0000000E+000	8.01029	7.10611	81.9897	-9.7382e-06	-1.17768e-06	-1.14958e-09	-1.17653e-06	0.273888	63821.3	62.2985	63759
0.0999041	51.6541	7.44111	52.1873	-8.19743	78.625	0.274157	-0.00303827	214091	4352.55	1	12	0.00503549	9.64886e-05	0	-0.000162437	0.000363069	2.12175e-06	26.3048	0.0219896	0.0197126	-0.00974464	-8.18376	52.2055	51.6738	7.43136	0.018966	0.00273217	0.0191617	8.19743	4.35255e+06	3.02142e+07	3.05261e+07	-81.8026	0.0000000E+000	0.0000000E+000	0.0000000E+000	81.8026	0.0000000E+000	0.0000000E+000	0.0000000E+000	-81.8026	0.0000000E+000	0.0000000E+000	0.0000000E+000	-8.19743	0.0000000E+000	0.0000000E+000	0.0000000E+000	8.19743	6.94173	81.8026	-4.03459e-05	-8.32963e-07	-1.1031e-09	-8.3186e-07	0.273794	90234.8	119.499	90115.3
0.0315922	56.5319	11.1591	57.6227	-11.1664	221.51	0.274146	-0.00214725	451451	16931	1	12	0.00503545	8.73865e-05	0	-0.000194741	9.57967e-05	2.18274e-06	1.87846	0.0249779	0.0249645	-0.000818763	-11.1607	57.647	56.5568	11.1583	0.0170257	0.0033608	0.0173543	11.1664	1.6931e+07	8.57721e+07	8.74272e+07	-78.8336	0.0000000E+000	0.0000000E+000	0.0000000E+000	78.8336	0.0000000E+000	0.0000000E+000	0.0000000E+000	-78.8336	0.0000000E+000	0.0000000E+000	0.0000000E+000	-11.1664	0.0000000E+000	0.0000000E+000	0.0000000E+000	11.1664	5.06598	78.8336	2.35269e-05	-5.8866e-07	-2.05699e-10	-5.88454e-07	0.274051	127673	44.6137	127629
0.0100092	63.8681	20.7958	67.1685	-18.0355	672.733	0.274131	-2.88322e-06	764621	73293.8	1	12	0.00503206	7.4917e-05	0	-2.21399e-05	5.7615e-05	1.5144e-06	-32.359	0.0202144	0.0170753	0.0108192	-18.0398	67.1881	63.8852	20.8066	0.0141564	0.00460941	0.0148879	18.0355	7.32938e+07	2.251e+08	2.36732e+08	-71.9645	0.0000000E+000	0.0000000E+000	0.0000000E+000	71.9645	0.0000000E+000	0.0000000E+000	0.0000000E+000	-71.9645	0.0000000E+000	0.0000000E+000	0.0000000E+000	-18.0355	0.0000000E+000	0.0000000E+000	0.0000000E+000	18.0355	3.0712	71.9645	1.75963e-05	-7.90379e-10	-1.66116e-13	-7.90213e-10	0.274073	9.50782e+07	19982.9	9.50582e+07

File: 18728_R302_UA699_SOC00_C03.mpt
EC-Lab ASCII FILE
Nb header lines : 65

Potentio Electrochemical Impedance Spectroscopy

Run on channel : 3 (SN 65921)
User :
CE vs. WE compliance from -10 V to 10 V
Electrode connection : standard
Potential control : Ewe
Ewe ctrl range : min = -10.00 V, max = 10.00 V
Safety Limits :
	Do not start on E overload
Acquisition started on : 10/31/2025 11:24:03.402
Technique started on : 10/31/2025 11:24:05.457
Loaded Setting File :  C:\Users\Celltest\OneDrive - store-dot.com\Documents\EC-Lab\Data\@Biologic Test Protocols\anode half cell EIS SOC00.mps
Saved on :
	File : 18728_R302_UA699_SOC00_C03.mpr
	Directory : C:\Users\Celltest\OneDrive - store-dot.com\Documents\EC-Lab\Data\Charmaine\
	Host : 169.254.61.224
Device : VMP-3e (SN .003165)
Address : USB
EC-LAB for windows v11.62 (software)
Internet server v27.00 (firmware)
Command interpretor v12.03 (firmware)
Electrode material :
Initial state :
Electrolyte :
Comments :
Electrode surface area : 0.001 cm²
Characteristic mass : 0.001 g
Equivalent Weight : 0.000 g/eq.
Density : 0.000 g/cm3
Volume (V) : 0.001 cm³
Record Ece
Cycle Definition : Charge/Discharge alternance
Mode                Single sine
E (V)               0.0000
vs.                 Eoc
tE (h:m:s)          0:00:0.0000
record              0
dI                  0.000
unit dI             mA
dt (s)              0.000
fi                  100.000
unit fi             kHz
ff                  10.000
unit ff             mHz
Nd                  6
Points              per decade
spacing             Logarithmic
Va (mV)             5.0
pw                  0.10
Na                  2
corr                0
E range min (V)     -10.000
E range max (V)     10.000
I Range             Auto
Bandwidth           5
nc cycles           0
goto Ns'            0
nr cycles           0
inc. cycle          0

freq/Hz	Re(Z)/Ohm	-Im(Z)/Ohm	|Z|/Ohm	Phase(Z)/deg	time/s	<Ewe>/V	<I>/mA	Cs/µF	Cp/µF	cycle number	I Range	|Ewe|/V	|I|/A	Ns	(Q-Qo)/mA.h	<Ece>/V	|Ece|/V	Phase(Zce)/deg	|Zce|/Ohm	Re(Zce)/Ohm	-Im(Zce)/Ohm	Phase(Zwe-ce)/deg	|Zwe-ce|/Ohm	Re(Zwe-ce)/Ohm	-Im(Zwe-ce)/Ohm	Re(Y)/Ohm-1	Im(Y)/Ohm-1	|Y|/Ohm-1	Phase(Y)/deg	Re(C)/nF	Im(C)/nF	|C|/nF	Phase(C)/deg	Re(M)	Im(M)	|M|	Phase(M)/deg	Re(Permittivity)	Im(Permittivity)	|Permittivity|	Phase(Permittivity)/deg	Re(Resistivity)/Ohm.cm	Im(Resistivity)/Ohm.cm	|Resistivity|/Ohm.cm	Phase(Resistivity)/deg	Re(Conductivity)/mS/cm	Im(Conductivity)/mS/cm	|Conductivity|/mS/cm	Phase(Conductivity)/deg	Tan(Delta)	Loss Angle(Delta)/deg	dq/mA.h	Pwe/W	Pce/W	Pwe-ce/W	<Ewe-Ece>/V	Rwe/Ohm	Rce/Ohm	Rwe-ce/Ohm		Ewe-Ece/V
100004	1.51084	0.737068	1.68104	-26.0056	2.05454	0.270687	0.0338189	2.15922	0.415101	1	9	0.00494952	0.00294431	0	-2.44194e-06	1.49552e-05	2.52937e-05	66.6042	0.00859069	0.0034112	-0.0078844	-25.713	1.68067	1.51425	0.729184	0.534639	0.260825	0.594869	26.0056	415.101	850.873	946.728	-63.9944	0.0000000E+000	0.0000000E+000	0.0000000E+000	63.9944	0.0000000E+000	0.0000000E+000	0.0000000E+000	-63.9944	0.0000000E+000	0.0000000E+000	0.0000000E+000	-26.0056	0.0000000E+000	0.0000000E+000	0.0000000E+000	26.0056	2.0498	63.9944	-2.44194e-06	9.15433e-06	5.0577e-10	9.15382e-06	0.270672	8004.02	0.442216	8003.57
31621.1	2.20236	1.02225	2.42804	-24.899	3.32952	0.270685	0.0310964	4.92361	0.87275	1	9	0.00544751	0.00224358	0	5.05051e-06	0.000301366	7.00642e-06	21.5554	0.00312287	0.00290447	-0.00114734	-24.8456	2.43019	2.20526	1.02111	0.373574	0.173399	0.411855	24.899	872.75	1880.26	2072.94	-65.101	0.0000000E+000	0.0000000E+000	0.0000000E+000	65.101	0.0000000E+000	0.0000000E+000	0.0000000E+000	-65.101	0.0000000E+000	0.0000000E+000	0.0000000E+000	-24.899	0.0000000E+000	0.0000000E+000	0.0000000E+000	24.899	2.15441	65.101	6.57522e-06	8.41733e-06	9.37141e-09	8.40796e-06	0.270383	8704.69	9.69135	8695
10002.2	2.99847	1.26204	3.25324	-22.826	4.48051	0.270687	0.0356089	12.6081	1.89742	1	9	0.00518535	0.0015939	0	2.53978e-05	3.40493e-05	4.88778e-06	-71.057	0.00306655	0.000995489	0.00290047	-22.8662	3.25528	2.99947	1.26494	0.283314	0.119245	0.307386	22.826	1897.42	4508.07	4891.11	-67.174	0.0000000E+000	0.0000000E+000	0.0000000E+000	67.174	0.0000000E+000	0.0000000E+000	0.0000000E+000	-67.174	0.0000000E+000	0.0000000E+000	0.0000000E+000	-22.826	0.0000000E+000	0.0000000E+000	0.0000000E+000	22.826	2.37589	67.174	3.47317e-06	9.63887e-06	1.21246e-09	9.63766e-06	0.270653	7601.66	0.956202	7600.71
3163.08	3.83653	1.72955	4.20836	-24.2664	5.71067	0.270615	-0.0163145	29.0922	4.91379	1	10	0.0050612	0.00120265	0	2.83839e-05	-4.13882e-06	1.38969e-05	20.4378	0.0115552	0.0108278	-0.00403496	-24.1559	4.21658	3.84736	1.72551	0.216627	0.0976578	0.237622	24.2664	4913.79	10899.9	11956.3	-65.7336	0.0000000E+000	0.0000000E+000	0.0000000E+000	65.7336	0.0000000E+000	0.0000000E+000	0.0000000E+000	-65.7336	0.0000000E+000	0.0000000E+000	0.0000000E+000	-24.2664	0.0000000E+000	0.0000000E+000	0.0000000E+000	24.2664	2.21822	65.7336	-2.63258e-06	-4.41495e-06	6.75226e-11	-4.41501e-06	0.270619	16587.4	0.25369	16587.7
1000.32	4.93198	2.94209	5.74285	-30.8175	7.06384	0.27062	-0.00872248	54.0785	14.1933	1	10	0.00486025	0.000846312	0	2.52603e-05	1.49552e-05	5.85269e-06	-22.3997	0.00691552	0.00639373	0.00263527	-30.8074	5.74969	4.93837	2.94473	0.149543	0.0892075	0.174129	30.8175	14193.3	23792.9	27704.7	-59.1825	0.0000000E+000	0.0000000E+000	0.0000000E+000	59.1825	0.0000000E+000	0.0000000E+000	0.0000000E+000	-59.1825	0.0000000E+000	0.0000000E+000	0.0000000E+000	-30.8175	0.0000000E+000	0.0000000E+000	0.0000000E+000	30.8175	1.67635	59.1825	-3.86825e-07	-2.36048e-06	-1.30447e-10	-2.36035e-06	0.270605	31025.6	1.71456	31023.9
316.316	7.10648	5.88668	9.22795	-39.6368	8.41206	0.270615	-0.00857707	85.4729	34.7824	1	10	0.00474635	0.000514345	0	2.2026e-05	0.000167708	6.17628e-06	101.328	0.0120081	-0.00235875	-0.0117741	-39.5898	9.21863	7.10412	5.87491	0.0834534	0.069129	0.108366	39.6368	34782.4	41989.7	54524.8	-50.3632	0.0000000E+000	0.0000000E+000	0.0000000E+000	50.3632	0.0000000E+000	0.0000000E+000	0.0000000E+000	-50.3632	0.0000000E+000	0.0000000E+000	0.0000000E+000	-39.6368	0.0000000E+000	0.0000000E+000	0.0000000E+000	39.6368	1.20721	50.3632	-5.69858e-07	-2.32108e-06	-1.43844e-09	-2.31964e-06	0.270447	31551	19.553	31531.4
100.032	13.3213	10.8382	17.1733	-39.1319	9.75884	0.270624	-0.00894996	146.799	58.4696	1	10	0.00470834	0.000274166	0	1.90694e-05	-2.32329e-05	3.19372e-05	-89.3931	0.116489	0.00123383	0.116482	-39.4294	17.248	13.3225	10.9547	0.0451686	0.0367493	0.0582299	39.1319	58469.6	71865.1	92646	-50.8681	0.0000000E+000	0.0000000E+000	0.0000000E+000	50.8681	0.0000000E+000	0.0000000E+000	0.0000000E+000	-50.8681	0.0000000E+000	0.0000000E+000	0.0000000E+000	-39.1319	0.0000000E+000	0.0000000E+000	0.0000000E+000	39.1319	1.2291	50.8681	-1.27368e-06	-2.42207e-06	2.07933e-10	-2.42228e-06	0.270647	30237.4	2.59586	30240
[...]
1.00006	42.6282	7.09343	43.2144	-9.44758	19.5058	0.270652	-0.00563322	22435.5	604.494	1	12	0.00471164	0.00010903	0	4.35373e-06	-4.23269e-05	1.63207e-06	73.085	0.0149691	0.0043553	-0.0143215	-9.4279	43.2163	42.6326	7.07911	0.0228266	0.00379839	0.0231404	9.44758	604494	3.63273e+06	3.68268e+06	-80.5524	0.0000000E+000	0.0000000E+000	0.0000000E+000	80.5524	0.0000000E+000	0.0000000E+000	0.0000000E+000	-80.5524	0.0000000E+000	0.0000000E+000	0.0000000E+000	-9.44758	0.0000000E+000	0.0000000E+000	0.0000000E+000	9.44758	6.00954	80.5524	1.63148e-07	-1.52464e-06	2.38437e-10	-1.52488e-06	0.270694	48045.6	7.51381	48053.2
0.316193	47.8315	6.99236	48.3399	-8.31699	33.848	0.270656	-0.00408849	71985.3	1506.19	1	12	0.00471496	9.75375e-05	0	-1.15581e-05	-4.23269e-05	4.36312e-06	23.6009	0.0447328	0.0409912	-0.0179094	-8.28899	48.3779	47.8725	6.97445	0.0204693	0.00299234	0.0206868	8.31699	1.50619e+06	1.03031e+07	1.04127e+07	-81.683	0.0000000E+000	0.0000000E+000	0.0000000E+000	81.683	0.0000000E+000	0.0000000E+000	0.0000000E+000	-81.683	0.0000000E+000	0.0000000E+000	0.0000000E+000	-8.31699	0.0000000E+000	0.0000000E+000	0.0000000E+000	8.31699	6.84055	81.683	-1.15066e-05	-1.10658e-06	1.73053e-10	-1.10675e-06	0.270699	66199.6	10.3527	66210
0.0999041	52.489	7.62498	53.0399	-8.26543	79.0559	0.270655	-0.00314621	208929	4317.87	1	12	0.00471077	8.88156e-05	0	-9.89133e-05	-0.000233268	1.19323e-06	-19.2889	0.0134349	0.0126807	0.00443796	-8.2682	53.0531	52.5017	7.62941	0.0186579	0.00271039	0.0188537	8.26543	4.31787e+06	2.97234e+07	3.00354e+07	-81.7346	0.0000000E+000	0.0000000E+000	0.0000000E+000	81.7346	0.0000000E+000	0.0000000E+000	0.0000000E+000	-81.7346	0.0000000E+000	0.0000000E+000	0.0000000E+000	-8.26543	0.0000000E+000	0.0000000E+000	0.0000000E+000	8.26543	6.88382	81.7346	-3.47058e-05	-8.51535e-07	7.33908e-10	-8.52269e-07	0.270888	86025.7	74.1425	86099.8
0.0315922	57.2829	11.0675	58.3423	-10.9353	221.939	0.270652	-0.00193972	455186	16380.4	1	12	0.00471025	8.07348e-05	0	-0.000103401	0.000396837	2.16108e-06	12.0425	0.0267676	0.0261785	-0.00558471	-10.925	58.367	57.3091	11.062	0.016829	0.0032515	0.0171402	10.9353	1.63804e+07	8.47809e+07	8.63489e+07	-79.0647	0.0000000E+000	0.0000000E+000	0.0000000E+000	79.0647	0.0000000E+000	0.0000000E+000	0.0000000E+000	-79.0647	0.0000000E+000	0.0000000E+000	0.0000000E+000	-10.9353	0.0000000E+000	0.0000000E+000	0.0000000E+000	10.9353	5.17576	79.0647	3.03588e-05	-5.24989e-07	-7.69752e-10	-5.2422e-07	0.270255	139532	204.584	139327
0.0100092	64.6939	20.5961	67.8933	-17.6595	673.159	0.270655	6.34858e-05	772037	71048	1	12	0.00471187	6.94011e-05	0	-2.08478e-05	-0.000309644	2.21976e-06	-4.216	0.0319844	0.0318979	0.00235139	-17.6532	67.9244	64.7258	20.5984	0.0140349	0.00446817	0.014729	17.6595	7.1048e+07	2.23168e+08	2.34204e+08	-72.3405	0.0000000E+000	0.0000000E+000	0.0000000E+000	72.3405	0.0000000E+000	0.0000000E+000	0.0000000E+000	-72.3405	0.0000000E+000	0.0000000E+000	0.0000000E+000	-17.6595	0.0000000E+000	0.0000000E+000	0.0000000E+000	17.6595	3.14108	72.3405	-3.11106e-05	1.71827e-08	-1.9658e-11	1.72024e-08	0.270964	4.26323e+06	4877.37	4.26811e+06