Folder: EIS/txt (part 40)

File: 17499_R280_UC81_SOC50_C07.mpt
EC-Lab ASCII FILE
Nb header lines : 64

Potentio Electrochemical Impedance Spectroscopy

Run on channel : 7 (SN 66126)
User :
CE vs. WE compliance from -10 V to 10 V
Electrode connection : standard
Potential control : Ewe
Ewe ctrl range : min = -10.00 V, max = 10.00 V
Safety Limits :
	Do not start on E overload
Acquisition started on : 09/15/2025 12:23:28.095
Loaded Setting File :  C:\Users\Celltest\OneDrive - store-dot.com\Documents\EC-Lab\Data\John\17498_R280-G002, UC81 half-cell.mps
Saved on :
	File : 17499_R280-G002, UC81 half-cell_C06_C07.mpr
	Directory : C:\Users\Celltest\OneDrive - store-dot.com\Documents\EC-Lab\Data\John\
	Host : 169.254.61.224
Device : VMP-3e (SN .003165)
Address : USB
EC-LAB for windows v11.62 (software)
Internet server v27.00 (firmware)
Command interpretor v12.03 (firmware)
Electrode material :
Initial state :
Electrolyte :
Comments :
Electrode surface area : 0.001 cm²
Characteristic mass : 0.001 g
Equivalent Weight : 0.000 g/eq.
Density : 0.000 g/cm3
Volume (V) : 0.001 cm³
Record Ece
Cycle Definition : Charge/Discharge alternance
Mode                Multi sine
E (V)               0.0000
vs.                 Eoc
tE (h:m:s)          0:00:0.0000
record              0
dI                  0.000
unit dI             mA
dt (s)              0.000
fi                  1.000
unit fi             MHz
ff                  0.100
unit ff             mHz
Nd                  10
Points              per decade
spacing             Logarithmic
Va (mV)             5.0
pw                  0.10
Na                  2
corr                0
E range min (V)     -10.000
E range max (V)     10.000
I Range             Auto
Bandwidth           5
nc cycles           0
goto Ns'            0
nr cycles           0
inc. cycle          0

freq/Hz	Re(Z)/Ohm	-Im(Z)/Ohm	|Z|/Ohm	Phase(Z)/deg	time/s	<Ewe>/V	<I>/mA	Cs/µF	Cp/µF	cycle number	I Range	|Ewe|/V	|I|/A	Ns	(Q-Qo)/mA.h	<Ece>/V	|Ece|/V	Phase(Zce)/deg	|Zce|/Ohm	Re(Zce)/Ohm	-Im(Zce)/Ohm	Phase(Zwe-ce)/deg	|Zwe-ce|/Ohm	Re(Zwe-ce)/Ohm	-Im(Zwe-ce)/Ohm	Re(Y)/Ohm-1	Im(Y)/Ohm-1	|Y|/Ohm-1	Phase(Y)/deg	Re(C)/nF	Im(C)/nF	|C|/nF	Phase(C)/deg	Re(M)	Im(M)	|M|	Phase(M)/deg	Re(Permittivity)	Im(Permittivity)	|Permittivity|	Phase(Permittivity)/deg	Re(Resistivity)/Ohm.cm	Im(Resistivity)/Ohm.cm	|Resistivity|/Ohm.cm	Phase(Resistivity)/deg	Re(Conductivity)/mS/cm	Im(Conductivity)/mS/cm	|Conductivity|/mS/cm	Phase(Conductivity)/deg	Tan(Delta)	Loss Angle(Delta)/deg	dq/mA.h	Pwe/W	Pce/W	Pwe-ce/W	<Ewe-Ece>/V	Rwe/Ohm	Rce/Ohm	Rwe-ce/Ohm		Ewe-Ece/V
1.00002e+06	2.51029	2.75091	3.72412	-47.6186	2.23456	3.78083	-0.0796812	0.0578542	0.0315675	1	10	0.000223045	5.9892e-05	0	-4.11954e-05	-0.00026937	0.000197758	-62.0186	3.30192	1.54921	2.91592	-54.3836	6.97084	4.0595	5.66684	0.180999	0.198348	0.268519	47.6186	31.5675	28.8064	42.7354	-42.3814	0.0000000E+000	0.0000000E+000	0.0000000E+000	42.3814	0.0000000E+000	0.0000000E+000	0.0000000E+000	-42.3814	0.0000000E+000	0.0000000E+000	0.0000000E+000	-47.6186	0.0000000E+000	0.0000000E+000	0.0000000E+000	47.6186	0.912531	42.3814	-4.11954e-05	-0.000301261	2.14637e-08	-0.000301282	3.7811	47449.4	3.3806	47452.8
251206	1.12724	0.144069	1.13641	-7.28329	4.93656	3.78099	0.00559273	4.39763	0.0706786	1	9	0.00275533	0.00242459	0	-4.47598e-05	-0.000536426	4.11991e-05	102.965	0.0169922	-0.00381226	-0.016559	-6.47539	1.13064	1.12343	0.12751	0.872861	0.111557	0.879961	7.28329	70.6786	553.013	557.511	-82.7167	0.0000000E+000	0.0000000E+000	0.0000000E+000	82.7167	0.0000000E+000	0.0000000E+000	0.0000000E+000	-82.7167	0.0000000E+000	0.0000000E+000	0.0000000E+000	-7.28329	0.0000000E+000	0.0000000E+000	0.0000000E+000	7.28329	7.82433	82.7167	-1.70391e-06	2.11461e-05	-3.00008e-09	2.11491e-05	3.78153	676055	95.9149	676151
63093.8	1.35552	0.278928	1.38392	-11.6276	7.11052	3.78104	0.0218649	9.04361	0.36737	1	9	0.0053376	0.00385687	0	-3.46934e-05	-0.000460124	2.10926e-05	78.7647	0.00546883	0.00106554	-0.00536402	-11.4011	1.38389	1.35658	0.273563	0.707757	0.145636	0.722586	11.6276	367.37	1785.33	1822.73	-78.3724	0.0000000E+000	0.0000000E+000	0.0000000E+000	78.3724	0.0000000E+000	0.0000000E+000	0.0000000E+000	-78.3724	0.0000000E+000	0.0000000E+000	0.0000000E+000	-11.6276	0.0000000E+000	0.0000000E+000	0.0000000E+000	11.6276	4.85975	78.3724	2.83428e-06	8.2672e-05	-1.00606e-08	8.26821e-05	3.7815	172927	21.044	172948
15847.7	1.63353	0.486207	1.70435	-16.5752	9.28452	3.78105	0.0185881	20.6554	1.68096	1	9	0.00456519	0.00267855	0	-1.95987e-05	1.67614e-05	1.02522e-05	-88.1014	0.00382751	0.000126811	0.00382541	-16.6972	1.70557	1.63366	0.490033	0.562352	0.16738	0.586733	16.5752	1680.96	5647.58	5892.44	-73.4248	0.0000000E+000	0.0000000E+000	0.0000000E+000	73.4248	0.0000000E+000	0.0000000E+000	0.0000000E+000	-73.4248	0.0000000E+000	0.0000000E+000	0.0000000E+000	-16.5752	0.0000000E+000	0.0000000E+000	0.0000000E+000	16.5752	3.35974	73.4248	-7.43065e-07	7.02826e-05	3.11562e-10	7.02823e-05	3.78103	203412	0.901724	203411
3983.6	2.13577	0.816249	2.28643	-20.9159	11.1331	3.78089	-0.065342	48.9465	6.23809	1	9	0.00463724	0.00202816	0	-1.56125e-05	-0.000307521	7.07554e-06	-41.7851	0.00348865	0.00260131	0.00232463	-20.947	2.28969	2.13837	0.818574	0.408543	0.156137	0.437363	20.9159	6238.09	16322.3	17473.8	-69.0841	0.0000000E+000	0.0000000E+000	0.0000000E+000	69.0841	0.0000000E+000	0.0000000E+000	0.0000000E+000	-69.0841	0.0000000E+000	0.0000000E+000	0.0000000E+000	-20.9159	0.0000000E+000	0.0000000E+000	0.0000000E+000	20.9159	2.61656	69.0841	-5.42617e-06	-0.000247051	2.0094e-08	-0.000247071	3.7812	57863.1	4.70633	57867.8
1000.32	2.96816	1.36539	3.26715	-24.703	14.0068	3.78098	-0.0574526	116.527	20.3516	1	10	0.00459931	0.00140774	0	-2.05729e-05	-0.000307521	1.0392e-05	76.9608	0.00738203	0.00166551	-0.00719169	-24.5761	3.26567	2.96983	1.3582	0.278067	0.127914	0.306077	24.703	20351.6	44241.6	48698.1	-65.297	0.0000000E+000	0.0000000E+000	0.0000000E+000	65.297	0.0000000E+000	0.0000000E+000	0.0000000E+000	-65.297	0.0000000E+000	0.0000000E+000	0.0000000E+000	-24.703	0.0000000E+000	0.0000000E+000	0.0000000E+000	24.703	2.17386	65.297	-4.39438e-06	-0.000217227	1.76679e-08	-0.000217245	3.78129	65810.5	5.3526	65815.8
251.044	4.64148	2.22024	5.14518	-25.564	16.707	3.78097	-0.0570207	285.542	53.1703	1	10	0.00451006	0.000876562	0	-6.32081e-05	-0.000307521	2.79057e-06	70.5494	0.00318354	0.0010601	-0.00300185	-25.5287	5.14484	4.64254	2.21724	0.17533	0.0838686	0.194357	25.564	53170.3	111154	123217	-64.436	0.0000000E+000	0.0000000E+000	0.0000000E+000	64.436	0.0000000E+000	0.0000000E+000	0.0000000E+000	-64.436	0.0000000E+000	0.0000000E+000	0.0000000E+000	-25.564	0.0000000E+000	0.0000000E+000	0.0000000E+000	25.564	2.09053	64.436	-6.23223e-06	-0.000215594	1.75351e-08	-0.000215611	3.78128	66308.7	5.39314	66314.1
63.0823	7.10774	1.96266	7.37374	-15.4364	19.645	3.78099	-0.0537373	1285.49	91.0714	1	10	0.00485684	0.000658667	0	-0.000105085	-0.000364747	7.57799e-06	-75.2951	0.011505	0.00292045	0.0111282	-15.5137	7.37952	7.11066	1.97379	0.130724	0.0360969	0.135616	15.4364	91071.4	329814	342157	-74.5636	0.0000000E+000	0.0000000E+000	0.0000000E+000	74.5636	0.0000000E+000	0.0000000E+000	0.0000000E+000	-74.5636	0.0000000E+000	0.0000000E+000	0.0000000E+000	-15.4364	0.0000000E+000	0.0000000E+000	0.0000000E+000	15.4364	3.62149	74.5636	-6.73219e-06	-0.00020318	1.96005e-08	-0.000203199	3.78135	70360.6	6.7876	70367.4
[...]
0.0602816	9.88211	1.46157	9.9896	-8.41308	240.329	3.78097	-0.0322826	1.80641e+06	38668.5	1	11	0.00507779	0.000508307	0	-0.00445438	0.000150289	7.41751e-07	1.60287	0.00145926	0.00145868	-4.08179e-05	-8.41162	9.99104	9.88357	1.46153	0.0990268	0.0146461	0.100104	8.41308	3.86685e+07	2.6145e+08	2.64294e+08	-81.5869	0.0000000E+000	0.0000000E+000	0.0000000E+000	81.5869	0.0000000E+000	0.0000000E+000	0.0000000E+000	-81.5869	0.0000000E+000	0.0000000E+000	0.0000000E+000	-8.41308	0.0000000E+000	0.0000000E+000	0.0000000E+000	8.41308	6.76131	81.5869	0.000000000000000E+000	-0.000122059	-4.85173e-09	-0.000122055	3.78081	117121	4.65543	117116
0.00796479	13.7607	3.95616	14.3181	-16.0397	20329.3	3.78095	0.0011862	5.05094e+06	385608	1	11	0.00507205	0.000354239	0	-0.016117	-0.000154917	3.81243e-07	-53.1662	0.00107623	0.000645196	0.000861391	-16.0423	14.319	13.7614	3.95702	0.0671226	0.0192975	0.0698415	16.0397	3.85608e+08	1.34127e+09	1.3956e+09	-73.9603	0.0000000E+000	0.0000000E+000	0.0000000E+000	73.9603	0.0000000E+000	0.0000000E+000	0.0000000E+000	-73.9603	0.0000000E+000	0.0000000E+000	0.0000000E+000	-16.0397	0.0000000E+000	0.0000000E+000	0.0000000E+000	16.0397	3.47831	73.9603	-0.0116626	4.48496e-06	-1.83763e-10	4.48515e-06	3.78111	3.18746e+06	130.6	3.18759e+06
0.0019912	17.7241	5.599	18.5874	-17.5312	20329.3	3.78095	0.0011862	1.42756e+07	1.29532e+06	1	11	0.00508179	0.000273399	0	-0.016117	-0.000154917	8.16564e-07	13.173	0.00298671	0.00290812	-0.000680647	-17.5265	18.59	17.727	5.59832	0.0513009	0.0162058	0.0537998	17.5312	1.29532e+09	4.10045e+09	4.30018e+09	-72.4688	0.0000000E+000	0.0000000E+000	0.0000000E+000	72.4688	0.0000000E+000	0.0000000E+000	0.0000000E+000	-72.4688	0.0000000E+000	0.0000000E+000	0.0000000E+000	-17.5312	0.0000000E+000	0.0000000E+000	0.0000000E+000	17.5312	3.16559	72.4688	0.000000000000000E+000	4.48496e-06	-1.83763e-10	4.48515e-06	3.78111	3.18746e+06	130.6	3.18759e+06
0.000497799	20.5726	8.85517	22.3975	-23.2887	20329.3	3.78095	0.0011862	3.61051e+07	5.64371e+06	1	11	0.00508065	0.00022684	0	-0.016117	-0.000154917	2.04049e-06	-49.8453	0.00899528	0.00580064	0.00687514	-23.299	22.4055	20.5784	8.86205	0.0410102	0.0176522	0.0446479	23.2887	5.64371e+09	1.31117e+10	1.42747e+10	-66.7113	0.0000000E+000	0.0000000E+000	0.0000000E+000	66.7113	0.0000000E+000	0.0000000E+000	0.0000000E+000	-66.7113	0.0000000E+000	0.0000000E+000	0.0000000E+000	-23.2887	0.0000000E+000	0.0000000E+000	0.0000000E+000	23.2887	2.32323	66.7113	0.000000000000000E+000	4.48496e-06	-1.83763e-10	4.48515e-06	3.78111	3.18746e+06	130.6	3.18759e+06
9.95598e-05	24.8242	36.1223	43.8299	-55.5021	20329.3	3.78095	0.0011862	4.42549e+07	3.00587e+07	1	11	0.00507965	0.000115895	0	-0.016117	-0.000154917	4.97416e-06	-80.2572	0.0429197	0.00726312	0.0423007	-55.5256	43.8689	24.8315	36.1646	0.0129221	0.0188033	0.0228155	55.5021	3.00587e+10	2.06571e+10	3.64725e+10	-34.4979	0.0000000E+000	0.0000000E+000	0.0000000E+000	34.4979	0.0000000E+000	0.0000000E+000	0.0000000E+000	-34.4979	0.0000000E+000	0.0000000E+000	0.0000000E+000	-55.5021	0.0000000E+000	0.0000000E+000	0.0000000E+000	55.5021	0.687227	34.4979	0.000000000000000E+000	4.48496e-06	-1.83763e-10	4.48515e-06	3.78111	3.18746e+06	130.6	3.18759e+06

File: 17500_R280_UC81_SOC50_C08.mpt
EC-Lab ASCII FILE
Nb header lines : 64

Potentio Electrochemical Impedance Spectroscopy

Run on channel : 8 (SN 65398)
User :
CE vs. WE compliance from -10 V to 10 V
Electrode connection : standard
Potential control : Ewe
Ewe ctrl range : min = -10.00 V, max = 10.00 V
Safety Limits :
	Do not start on E overload
Acquisition started on : 09/15/2025 12:23:49.298
Loaded Setting File :  C:\Users\Celltest\OneDrive - store-dot.com\Documents\EC-Lab\Data\John\17499_R280-G002, UC81 half-cell_C06.mps
Saved on :
	File : 17500_R280-G002, UC81 half-cell_C06_C07_C08.mpr
	Directory : C:\Users\Celltest\OneDrive - store-dot.com\Documents\EC-Lab\Data\John\
	Host : 169.254.61.224
Device : VMP-3e (SN .003165)
Address : USB
EC-LAB for windows v11.62 (software)
Internet server v27.00 (firmware)
Command interpretor v12.03 (firmware)
Electrode material :
Initial state :
Electrolyte :
Comments :
Electrode surface area : 0.001 cm²
Characteristic mass : 0.001 g
Equivalent Weight : 0.000 g/eq.
Density : 0.000 g/cm3
Volume (V) : 0.001 cm³
Record Ece
Cycle Definition : Charge/Discharge alternance
Mode                Multi sine
E (V)               0.0000
vs.                 Eoc
tE (h:m:s)          0:00:0.0000
record              0
dI                  0.000
unit dI             mA
dt (s)              0.000
fi                  1.000
unit fi             MHz
ff                  0.100
unit ff             mHz
Nd                  10
Points              per decade
spacing             Logarithmic
Va (mV)             5.0
pw                  0.10
Na                  2
corr                0
E range min (V)     -10.000
E range max (V)     10.000
I Range             Auto
Bandwidth           5
nc cycles           0
goto Ns'            0
nr cycles           0
inc. cycle          0

freq/Hz	Re(Z)/Ohm	-Im(Z)/Ohm	|Z|/Ohm	Phase(Z)/deg	time/s	<Ewe>/V	<I>/mA	Cs/µF	Cp/µF	cycle number	I Range	|Ewe|/V	|I|/A	Ns	(Q-Qo)/mA.h	<Ece>/V	|Ece|/V	Phase(Zce)/deg	|Zce|/Ohm	Re(Zce)/Ohm	-Im(Zce)/Ohm	Phase(Zwe-ce)/deg	|Zwe-ce|/Ohm	Re(Zwe-ce)/Ohm	-Im(Zwe-ce)/Ohm	Re(Y)/Ohm-1	Im(Y)/Ohm-1	|Y|/Ohm-1	Phase(Y)/deg	Re(C)/nF	Im(C)/nF	|C|/nF	Phase(C)/deg	Re(M)	Im(M)	|M|	Phase(M)/deg	Re(Permittivity)	Im(Permittivity)	|Permittivity|	Phase(Permittivity)/deg	Re(Resistivity)/Ohm.cm	Im(Resistivity)/Ohm.cm	|Resistivity|/Ohm.cm	Phase(Resistivity)/deg	Re(Conductivity)/mS/cm	Im(Conductivity)/mS/cm	|Conductivity|/mS/cm	Phase(Conductivity)/deg	Tan(Delta)	Loss Angle(Delta)/deg	dq/mA.h	Pwe/W	Pce/W	Pwe-ce/W	<Ewe-Ece>/V	Rwe/Ohm	Rce/Ohm	Rwe-ce/Ohm		Ewe-Ece/V
1.00002e+06	3.78649	2.36126	4.46241	-31.9477	2.23356	3.77894	-0.030444	0.0674012	0.018872	1	10	0.00019897	4.45881e-05	0	-3.05639e-05	-8.91312e-05	0.000201105	-69.904	4.51029	1.54971	4.2357	-51.031	8.48498	5.3362	6.59696	0.190151	0.118579	0.224094	31.9477	18.872	30.2629	35.6651	-58.0523	0.0000000E+000	0.0000000E+000	0.0000000E+000	58.0523	0.0000000E+000	0.0000000E+000	0.0000000E+000	-58.0523	0.0000000E+000	0.0000000E+000	0.0000000E+000	-31.9477	0.0000000E+000	0.0000000E+000	0.0000000E+000	31.9477	1.60359	58.0523	-3.05639e-05	-0.000115046	2.71351e-09	-0.000115049	3.77903	124128	2.92771	124131
251206	1.35364	-0.112335	1.35829	4.74397	4.93452	3.77852	-0.0222074	-5.63992	-0.0385762	1	9	0.00179534	0.00132176	0	-4.99253e-05	6.3091e-06	7.47952e-05	90.5882	0.0565876	-0.000580924	-0.0565846	7.11616	1.36356	1.35306	-0.16892	0.733696	-0.0608878	0.736218	-4.74397	-38.5762	464.843	466.441	-94.744	0.0000000E+000	0.0000000E+000	0.0000000E+000	94.744	0.0000000E+000	0.0000000E+000	0.0000000E+000	-94.744	0.0000000E+000	0.0000000E+000	0.0000000E+000	4.74397	0.0000000E+000	0.0000000E+000	0.0000000E+000	-4.74397	12.05	85.256	-2.07219e-06	-8.3911e-05	-1.40108e-10	-8.39108e-05	3.77852	170147	0.2841	170147
63093.8	1.35738	0.233177	1.37727	-9.74738	7.35655	3.77848	-0.0182639	10.818	0.310087	1	9	0.00537057	0.00389944	0	-5.42448e-05	6.3091e-06	2.51869e-05	50.3242	0.0064591	0.00412376	-0.00497137	-9.51505	1.3805	1.36151	0.228206	0.715594	0.122928	0.726076	9.74738	310.087	1805.09	1831.54	-80.2526	0.0000000E+000	0.0000000E+000	0.0000000E+000	80.2526	0.0000000E+000	0.0000000E+000	0.0000000E+000	-80.2526	0.0000000E+000	0.0000000E+000	0.0000000E+000	-9.74738	0.0000000E+000	0.0000000E+000	0.0000000E+000	9.74738	5.82125	80.2526	4.32701e-06	-6.90096e-05	-1.15229e-10	-6.90095e-05	3.77847	206883	0.345442	206882
15847.7	1.60449	0.447669	1.66577	-15.5897	9.65653	3.77847	-0.0159573	22.4335	1.62025	1	9	0.00476124	0.00285828	0	-7.26679e-05	-8.91312e-05	8.76713e-06	-74.0104	0.00306727	0.000844922	0.00294861	-15.6795	1.66738	1.60533	0.450618	0.578238	0.161335	0.600324	15.5897	1620.25	5807.12	6028.92	-74.4103	0.0000000E+000	0.0000000E+000	0.0000000E+000	74.4103	0.0000000E+000	0.0000000E+000	0.0000000E+000	-74.4103	0.0000000E+000	0.0000000E+000	0.0000000E+000	-15.5897	0.0000000E+000	0.0000000E+000	0.0000000E+000	15.5897	3.58409	74.4103	-1.69929e-06	-6.02943e-05	1.4223e-09	-6.02958e-05	3.77856	236786	5.58559	236791
3983.6	2.06819	0.804224	2.21905	-21.2488	12.0011	3.77847	-0.0125719	49.6784	6.5251	1	9	0.00548113	0.00247003	0	-8.17254e-05	0.000349894	7.48122e-06	-29.5183	0.00302879	0.00263565	0.00149229	-21.26	2.22205	2.07083	0.805716	0.420007	0.163321	0.450643	21.2488	6525.1	16780.3	18004.3	-68.7512	0.0000000E+000	0.0000000E+000	0.0000000E+000	68.7512	0.0000000E+000	0.0000000E+000	0.0000000E+000	-68.7512	0.0000000E+000	0.0000000E+000	0.0000000E+000	-21.2488	0.0000000E+000	0.0000000E+000	0.0000000E+000	21.2488	2.57166	68.7512	8.06423e-07	-4.75028e-05	-4.39885e-09	-4.74984e-05	3.77813	300548	27.8313	300520
1000.32	2.90038	1.39964	3.22044	-25.7607	14.8068	3.77847	-0.0186731	113.675	21.4719	1	9	0.00491742	0.00152694	0	-0.000103387	-5.09551e-05	1.36515e-05	-63.5639	0.00894041	0.00398026	0.00800553	-25.858	3.2275	2.90436	1.40765	0.279657	0.134955	0.310517	25.7607	21471.9	44494.5	49404.5	-64.2393	0.0000000E+000	0.0000000E+000	0.0000000E+000	64.2393	0.0000000E+000	0.0000000E+000	0.0000000E+000	-64.2393	0.0000000E+000	0.0000000E+000	0.0000000E+000	-25.7607	0.0000000E+000	0.0000000E+000	0.0000000E+000	25.7607	2.07223	64.2393	-2.82371e-06	-7.0556e-05	9.51491e-10	-7.05569e-05	3.77853	202348	2.72879	202351
251.044	4.61525	2.27618	5.14603	-26.2519	17.753	3.77848	-0.0533701	278.524	54.492	1	10	0.00479147	0.0009311	0	-0.000144993	2.53972e-05	7.79468e-06	-114.715	0.00837147	-0.0035001	0.00760466	-26.3451	5.14626	4.61175	2.28379	0.174282	0.0859535	0.194325	26.2519	54492.1	110490	123196	-63.7481	0.0000000E+000	0.0000000E+000	0.0000000E+000	63.7481	0.0000000E+000	0.0000000E+000	0.0000000E+000	-63.7481	0.0000000E+000	0.0000000E+000	0.0000000E+000	-26.2519	0.0000000E+000	0.0000000E+000	0.0000000E+000	26.2519	2.02763	63.7481	-6.76112e-06	-0.000201658	-1.35545e-09	-0.000201657	3.77846	70797.8	0.475869	70797.3
63.0823	7.19649	1.94423	7.4545	-15.1183	20.474	3.77848	-0.0502193	1297.67	88.2721	1	10	0.00475202	0.00063747	0	-0.000186264	2.53972e-05	2.63755e-06	-121.163	0.00413753	-0.00214105	0.00354048	-15.1489	7.45335	7.19435	1.94777	0.129504	0.0349873	0.134147	15.1183	88272.1	326736	338450	-74.8817	0.0000000E+000	0.0000000E+000	0.0000000E+000	74.8817	0.0000000E+000	0.0000000E+000	0.0000000E+000	-74.8817	0.0000000E+000	0.0000000E+000	0.0000000E+000	-15.1183	0.0000000E+000	0.0000000E+000	0.0000000E+000	15.1183	3.70146	74.8817	-6.20438e-06	-0.000189753	-1.27543e-09	-0.000189751	3.77846	75239.7	0.505725	75239.2
[...]
0.0602816	9.76303	1.43778	9.86833	-8.37759	241.162	3.77848	-0.0393311	1.8363e+06	38979.8	1	11	0.00521818	0.00052878	0	-0.00510649	-7.00431e-05	8.3533e-07	-18.3218	0.00157973	0.00149965	0.000496594	-8.37918	9.86989	9.76453	1.43827	0.100253	0.014764	0.101334	8.37759	3.89798e+07	2.64687e+08	2.67542e+08	-81.6224	0.0000000E+000	0.0000000E+000	0.0000000E+000	81.6224	0.0000000E+000	0.0000000E+000	0.0000000E+000	-81.6224	0.0000000E+000	0.0000000E+000	0.0000000E+000	-8.37759	0.0000000E+000	0.0000000E+000	0.0000000E+000	8.37759	6.79036	81.6224	0.000000000000000E+000	-0.000148612	2.75487e-09	-0.000148614	3.77855	96068.7	1.78086	96070.5
0.00796479	13.3687	4.05051	13.9688	-16.856	20330.1	3.7785	0.00526568	4.93329e+06	414796	1	11	0.00521288	0.000373179	0	-0.003237	-0.000260924	4.63219e-07	-52.3882	0.00124128	0.000757563	0.000983296	-16.859	13.9698	13.3694	4.05149	0.0685123	0.0207582	0.0715879	16.856	4.14796e+08	1.36903e+09	1.43049e+09	-73.144	0.0000000E+000	0.0000000E+000	0.0000000E+000	73.144	0.0000000E+000	0.0000000E+000	0.0000000E+000	-73.144	0.0000000E+000	0.0000000E+000	0.0000000E+000	-16.856	0.0000000E+000	0.0000000E+000	0.0000000E+000	16.856	3.3005	73.144	0.00186949	1.98964e-05	-1.37394e-09	1.98977e-05	3.77876	717572	49.5518	717622
0.0019912	17.5466	5.77594	18.4728	-18.2204	20330.1	3.7785	0.00526568	1.38383e+07	1.35289e+06	1	11	0.00522675	0.000282943	0	-0.003237	-0.000260924	8.63105e-07	-56.4066	0.00305046	0.0016878	0.00254099	-18.2262	18.4752	17.5483	5.77849	0.0514194	0.0169261	0.0541336	18.2204	1.35289e+09	4.10991e+09	4.32686e+09	-71.7796	0.0000000E+000	0.0000000E+000	0.0000000E+000	71.7796	0.0000000E+000	0.0000000E+000	0.0000000E+000	-71.7796	0.0000000E+000	0.0000000E+000	0.0000000E+000	-18.2204	0.0000000E+000	0.0000000E+000	0.0000000E+000	18.2204	3.03788	71.7796	0.000000000000000E+000	1.98964e-05	-1.37394e-09	1.98977e-05	3.77876	717572	49.5518	717622
0.000497799	20.5894	8.49126	22.2716	-22.4117	20330.1	3.7785	0.00526568	3.76525e+07	5.47313e+06	1	11	0.00522777	0.000234728	0	-0.003237	-0.000260924	1.84891e-06	94.969	0.00787679	-0.000682257	-0.00784719	-22.3938	22.268	20.5887	8.48342	0.0415088	0.0171187	0.0449003	22.4117	5.47313e+09	1.32711e+10	1.43554e+10	-67.5882	0.0000000E+000	0.0000000E+000	0.0000000E+000	67.5882	0.0000000E+000	0.0000000E+000	0.0000000E+000	-67.5882	0.0000000E+000	0.0000000E+000	0.0000000E+000	-22.4117	0.0000000E+000	0.0000000E+000	0.0000000E+000	22.4117	2.42477	67.5882	0.000000000000000E+000	1.98964e-05	-1.37394e-09	1.98977e-05	3.77876	717572	49.5518	717622
9.95598e-05	24.9975	34.7676	42.8213	-54.2843	20330.1	3.7785	0.00526568	4.59792e+07	3.03104e+07	1	11	0.00523362	0.00012222	0	-0.003237	-0.000260924	2.53509e-06	74.577	0.020742	0.00551622	-0.0199951	-54.2627	42.8083	25.003	34.7476	0.0136326	0.0189608	0.0233529	54.2843	3.03104e+10	2.17928e+10	3.73316e+10	-35.7157	0.0000000E+000	0.0000000E+000	0.0000000E+000	35.7157	0.0000000E+000	0.0000000E+000	0.0000000E+000	-35.7157	0.0000000E+000	0.0000000E+000	0.0000000E+000	-54.2843	0.0000000E+000	0.0000000E+000	0.0000000E+000	54.2843	0.718989	35.7157	0.000000000000000E+000	1.98964e-05	-1.37394e-09	1.98977e-05	3.77876	717572	49.5518	717622