Folder: EIS/txt (part 181)

File: 19322_R313_UC98_SOC50_C06.mpt
EC-Lab ASCII FILE
Nb header lines : 65

Potentio Electrochemical Impedance Spectroscopy

Run on channel : 6 (SN 65795)
User :
CE vs. WE compliance from -10 V to 10 V
Electrode connection : standard
Potential control : Ewe
Ewe ctrl range : min = -10.00 V, max = 10.00 V
Safety Limits :
	Do not start on E overload
Acquisition started on : 11/18/2025 16:33:31.777
Technique started on : 11/18/2025 16:33:34.012
Loaded Setting File :  C:\Users\Celltest\OneDrive - store-dot.com\Documents\EC-Lab\Data\txt_done\19191_R297_UC94_SOC50_C08.mpr
Saved on :
	File : 19322_R313_UC98_SOC50_C06.mpr
	Directory : C:\Users\Celltest\OneDrive - store-dot.com\Documents\EC-Lab\Data\Michael\
	Host : 169.254.61.224
Device : VMP-3e (SN .003165)
Address : USB
EC-LAB for windows v11.62 (software)
Internet server v27.00 (firmware)
Command interpretor v12.03 (firmware)
Electrode material :
Initial state :
Electrolyte :
Comments :
Electrode surface area : 0.001 cm²
Characteristic mass : 0.001 g
Equivalent Weight : 0.000 g/eq.
Density : 0.000 g/cm3
Volume (V) : 0.001 cm³
Record Ece
Cycle Definition : Charge/Discharge alternance
Mode                Multi sine
E (V)               0.0000
vs.                 Eoc
tE (h:m:s)          0:00:0.0000
record              0
dI                  0.000
unit dI             mA
dt (s)              0.000
fi                  1.000
unit fi             MHz
ff                  0.100
unit ff             mHz
Nd                  10
Points              per decade
spacing             Logarithmic
Va (mV)             5.0
pw                  0.10
Na                  2
corr                0
E range min (V)     -10.000
E range max (V)     10.000
I Range             Auto
Bandwidth           5
nc cycles           0
goto Ns'            0
nr cycles           0
inc. cycle          0

freq/Hz	Re(Z)/Ohm	-Im(Z)/Ohm	|Z|/Ohm	Phase(Z)/deg	time/s	<Ewe>/V	<I>/mA	Cs/µF	Cp/µF	cycle number	I Range	|Ewe|/V	|I|/A	Ns	(Q-Qo)/mA.h	<Ece>/V	|Ece|/V	Phase(Zce)/deg	|Zce|/Ohm	Re(Zce)/Ohm	-Im(Zce)/Ohm	Phase(Zwe-ce)/deg	|Zwe-ce|/Ohm	Re(Zwe-ce)/Ohm	-Im(Zwe-ce)/Ohm	Re(Y)/Ohm-1	Im(Y)/Ohm-1	|Y|/Ohm-1	Phase(Y)/deg	Re(C)/nF	Im(C)/nF	|C|/nF	Phase(C)/deg	Re(M)	Im(M)	|M|	Phase(M)/deg	Re(Permittivity)	Im(Permittivity)	|Permittivity|	Phase(Permittivity)/deg	Re(Resistivity)/Ohm.cm	Im(Resistivity)/Ohm.cm	|Resistivity|/Ohm.cm	Phase(Resistivity)/deg	Re(Conductivity)/mS/cm	Im(Conductivity)/mS/cm	|Conductivity|/mS/cm	Phase(Conductivity)/deg	Tan(Delta)	Loss Angle(Delta)/deg	dq/mA.h	Pwe/W	Pce/W	Pwe-ce/W	<Ewe-Ece>/V	Rwe/Ohm	Rce/Ohm	Rwe-ce/Ohm		Ewe-Ece/V
1.00002e+06	2.44222	2.47222	3.47509	-45.3498	2.23454	3.87588	0.0421504	0.0643762	0.0325811	1	10	0.000205745	5.92056e-05	0	2.46212e-06	-0.000179642	0.000197099	-62.5455	3.32906	1.53484	2.95413	-53.7617	6.72772	3.97706	5.42635	0.202233	0.204717	0.287762	45.3498	32.5811	32.1857	45.7979	-44.6502	0.0000000E+000	0.0000000E+000	0.0000000E+000	44.6502	0.0000000E+000	0.0000000E+000	0.0000000E+000	-44.6502	0.0000000E+000	0.0000000E+000	0.0000000E+000	-45.3498	0.0000000E+000	0.0000000E+000	0.0000000E+000	45.3498	0.987865	44.6502	2.46212e-06	0.00016337	-7.57197e-09	0.000163378	3.87606	91953.6	4.26192	91957.9
251206	0.717647	0.227946	0.752978	-17.6214	4.93556	3.87574	0.101686	2.77944	0.254717	1	9	0.00178131	0.00236568	0	6.79365e-05	0.0003933	7.27475e-05	62.8258	0.0307511	0.0140439	-0.0273569	-15.3307	0.758688	0.731691	0.200589	1.26574	0.402038	1.32806	17.6214	254.717	801.928	841.409	-72.3786	0.0000000E+000	0.0000000E+000	0.0000000E+000	72.3786	0.0000000E+000	0.0000000E+000	0.0000000E+000	-72.3786	0.0000000E+000	0.0000000E+000	0.0000000E+000	-17.6214	0.0000000E+000	0.0000000E+000	0.0000000E+000	17.6214	3.14831	72.3786	8.11428e-06	0.000394106	3.99929e-08	0.000394066	3.87534	38114.9	3.8678	38111.1
63093.8	1.11377	0.375512	1.17537	-18.6316	7.23553	3.87558	0.0711034	6.71754	0.685654	1	9	0.00530501	0.00451347	0	0.0001029	3.04368e-05	5.58817e-05	95.2127	0.0123811	-0.00112486	-0.0123299	-18.0773	1.17042	1.11265	0.363182	0.806205	0.271814	0.850794	18.6316	685.654	2033.66	2146.14	-71.3684	0.0000000E+000	0.0000000E+000	0.0000000E+000	71.3684	0.0000000E+000	0.0000000E+000	0.0000000E+000	-71.3684	0.0000000E+000	0.0000000E+000	0.0000000E+000	-18.6316	0.0000000E+000	0.0000000E+000	0.0000000E+000	18.6316	2.96602	71.3684	6.16361e-06	0.000275567	2.16416e-09	0.000275565	3.87555	54506.3	0.428064	54505.8
15847.7	1.428	0.393904	1.48134	-15.4211	9.41756	3.87558	0.0797081	25.4955	1.80276	1	9	0.00527123	0.00355843	0	0.000163255	-2.68573e-05	8.37169e-06	-115.393	0.00235264	-0.00100887	0.00212534	-15.5108	1.48093	1.42699	0.396029	0.650762	0.179508	0.675067	15.4211	1802.76	6535.47	6779.55	-74.5789	0.0000000E+000	0.0000000E+000	0.0000000E+000	74.5789	0.0000000E+000	0.0000000E+000	0.0000000E+000	-74.5789	0.0000000E+000	0.0000000E+000	0.0000000E+000	-15.4211	0.0000000E+000	0.0000000E+000	0.0000000E+000	15.4211	3.62526	74.5789	8.09188e-06	0.000308915	-2.14074e-09	0.000308917	3.87561	48622.2	0.336946	48622.5
3983.6	1.76587	0.537793	1.84595	-16.938	11.0161	3.87541	-0.0208668	74.2898	6.3055	1	9	0.00462055	0.00250307	0	0.000190223	0.000145025	7.28913e-06	-109.506	0.00291207	-0.000972347	0.00274494	-17.0283	1.84582	1.7649	0.540538	0.518227	0.157825	0.541727	16.938	6305.5	20704.5	21643.3	-73.062	0.0000000E+000	0.0000000E+000	0.0000000E+000	73.062	0.0000000E+000	0.0000000E+000	0.0000000E+000	-73.062	0.0000000E+000	0.0000000E+000	0.0000000E+000	-16.938	0.0000000E+000	0.0000000E+000	0.0000000E+000	16.938	3.28356	73.062	-1.05764e-06	-8.08674e-05	-3.02621e-09	-8.08644e-05	3.87527	185721	6.95004	185714
1000.32	2.29427	0.897141	2.46344	-21.3573	13.8588	3.87542	0.0424208	177.346	23.5212	1	9	0.00497727	0.00202046	0	0.000213163	8.77309e-05	6.71507e-06	-5.41717	0.00332354	0.00330869	0.000313764	-21.3361	2.46663	2.29758	0.897455	0.37806	0.147835	0.405937	21.3573	23521.2	60150.9	64586.2	-68.6427	0.0000000E+000	0.0000000E+000	0.0000000E+000	68.6427	0.0000000E+000	0.0000000E+000	0.0000000E+000	-68.6427	0.0000000E+000	0.0000000E+000	0.0000000E+000	-21.3573	0.0000000E+000	0.0000000E+000	0.0000000E+000	21.3573	2.55731	68.6427	4.67229e-06	0.000164399	3.72162e-09	0.000164395	3.87533	91356.6	2.06811	91354.5
251.044	3.45979	1.43835	3.74686	-22.5743	16.8061	3.87548	-0.0212309	440.764	64.9528	1	10	0.00496582	0.00132533	0	0.000216563	-4.59553e-05	6.19705e-06	-5.92567	0.00467586	0.00465088	0.000482728	-22.5538	3.75134	3.46444	1.43883	0.246442	0.102454	0.26689	22.5743	64952.8	156237	169201	-67.4257	0.0000000E+000	0.0000000E+000	0.0000000E+000	67.4257	0.0000000E+000	0.0000000E+000	0.0000000E+000	-67.4257	0.0000000E+000	0.0000000E+000	0.0000000E+000	-22.5743	0.0000000E+000	0.0000000E+000	0.0000000E+000	22.5743	2.40539	67.4257	-1.49859e-06	-8.22797e-05	9.75671e-10	-8.22807e-05	3.87553	182540	2.16455	182542
[...]
0.0602816	6.52465	1.15575	6.62622	-10.0449	240.464	3.87548	-0.0169629	2.2844e+06	69497	1	11	0.00502415	0.000758223	0	-0.00395736	0.000202319	8.35292e-07	-15.6065	0.00110164	0.00106103	0.000296374	-10.0459	6.62732	6.52571	1.15605	0.148602	0.0263227	0.150915	10.0449	6.9497e+07	3.92338e+08	3.98446e+08	-79.9551	0.0000000E+000	0.0000000E+000	0.0000000E+000	79.9551	0.0000000E+000	0.0000000E+000	0.0000000E+000	-79.9551	0.0000000E+000	0.0000000E+000	0.0000000E+000	-10.0449	0.0000000E+000	0.0000000E+000	0.0000000E+000	10.0449	5.64539	79.9551	0.000000000000000E+000	-6.57395e-05	-3.43193e-09	-6.57361e-05	3.87528	228468	11.9271	228456
0.00796479	8.35701	2.41459	8.69884	-16.1156	20329.4	3.87552	-0.000166526	8.27565e+06	637627	1	11	0.00501721	0.000576767	0	-0.0626179	1.13388e-05	2.82489e-07	-159.315	0.00048978	-0.000458206	0.000173008	-16.1175	8.69845	8.35655	2.41477	0.11044	0.0319095	0.114958	16.1156	6.37627e+08	2.20686e+09	2.29712e+09	-73.8844	0.0000000E+000	0.0000000E+000	0.0000000E+000	73.8844	0.0000000E+000	0.0000000E+000	0.0000000E+000	-73.8844	0.0000000E+000	0.0000000E+000	0.0000000E+000	-16.1156	0.0000000E+000	0.0000000E+000	0.0000000E+000	16.1156	3.46104	73.8844	-0.0586605	-6.45374e-07	-1.8882e-12	-6.45372e-07	3.87551	2.32728e+07	68.0904	2.32728e+07
0.0019912	10.0445	3.9154	10.7806	-21.2962	20329.4	3.87552	-0.000166526	2.04141e+07	2.69275e+06	1	11	0.00502808	0.000466401	0	-0.0626179	1.13388e-05	7.09483e-07	-33.0293	0.00152119	0.00127535	0.00082915	-21.2979	10.7821	10.0457	3.91623	0.0864251	0.0336892	0.0927592	21.2962	2.69275e+09	6.9079e+09	7.41418e+09	-68.7038	0.0000000E+000	0.0000000E+000	0.0000000E+000	68.7038	0.0000000E+000	0.0000000E+000	0.0000000E+000	-68.7038	0.0000000E+000	0.0000000E+000	0.0000000E+000	-21.2962	0.0000000E+000	0.0000000E+000	0.0000000E+000	21.2962	2.56537	68.7038	0.000000000000000E+000	-6.45374e-07	-1.8882e-12	-6.45372e-07	3.87551	2.32728e+07	68.0904	2.32728e+07
0.000497799	10.4661	10.3841	14.7434	-44.7747	20329.4	3.87552	-0.000166526	3.07892e+07	1.52735e+07	1	11	0.00503317	0.000341385	0	-0.0626179	1.13388e-05	1.96366e-06	96.0166	0.00575205	-0.000602909	-0.00572036	-44.7606	14.7389	10.4655	10.3784	0.0481492	0.047772	0.067827	44.7747	1.52735e+10	1.53941e+10	2.16855e+10	-45.2253	0.0000000E+000	0.0000000E+000	0.0000000E+000	45.2253	0.0000000E+000	0.0000000E+000	0.0000000E+000	-45.2253	0.0000000E+000	0.0000000E+000	0.0000000E+000	-44.7747	0.0000000E+000	0.0000000E+000	0.0000000E+000	44.7747	1.0079	45.2253	0.000000000000000E+000	-6.45374e-07	-1.8882e-12	-6.45372e-07	3.87551	2.32728e+07	68.0904	2.32728e+07
9.95598e-05	8.46986	71.9859	72.4825	-83.2894	20329.4	3.87552	-0.000166526	2.22069e+07	2.19037e+07	1	11	0.00502876	6.93789e-05	0	-0.0626179	1.13388e-05	7.10164e-06	-72.7758	0.10236	0.0303101	0.0977696	-83.2747	72.5832	8.50017	72.0837	0.00161217	0.0137019	0.0137964	83.2894	2.19037e+10	2.57719e+09	2.20548e+10	-6.71056	0.0000000E+000	0.0000000E+000	0.0000000E+000	6.71056	0.0000000E+000	0.0000000E+000	0.0000000E+000	-6.71056	0.0000000E+000	0.0000000E+000	0.0000000E+000	-83.2894	0.0000000E+000	0.0000000E+000	0.0000000E+000	83.2894	0.11766	6.71057	0.000000000000000E+000	-6.45374e-07	-1.8882e-12	-6.45372e-07	3.87551	2.32728e+07	68.0904	2.32728e+07

File: 19342_R279_UA714_SOC00_C01.mpt
EC-Lab ASCII FILE
Nb header lines : 65

Potentio Electrochemical Impedance Spectroscopy

Run on channel : 1 (SN 66354)
User :
CE vs. WE compliance from -10 V to 10 V
Electrode connection : standard
Potential control : Ewe
Ewe ctrl range : min = -10.00 V, max = 10.00 V
Safety Limits :
	Do not start on E overload
Acquisition started on : 11/20/2025 15:02:17.279
Technique started on : 11/20/2025 15:02:19.190
Loaded Setting File :  C:\Users\Celltest\OneDrive - store-dot.com\Documents\EC-Lab\Data\@Biologic Test Protocols\anode half cell EIS SOC00.mps
Saved on :
	File : 19342_R279_UA714_SOC00_C01.mpr
	Directory : C:\Users\Celltest\OneDrive - store-dot.com\Documents\EC-Lab\Data\Charmaine\
	Host : 169.254.61.224
Device : VMP-3e (SN .003165)
Address : USB
EC-LAB for windows v11.62 (software)
Internet server v27.00 (firmware)
Command interpretor v12.03 (firmware)
Electrode material :
Initial state :
Electrolyte :
Comments :
Electrode surface area : 0.001 cm²
Characteristic mass : 0.001 g
Equivalent Weight : 0.000 g/eq.
Density : 0.000 g/cm3
Volume (V) : 0.001 cm³
Record Ece
Cycle Definition : Charge/Discharge alternance
Mode                Single sine
E (V)               0.0000
vs.                 Eoc
tE (h:m:s)          0:00:0.0000
record              0
dI                  0.000
unit dI             mA
dt (s)              0.000
fi                  100.000
unit fi             kHz
ff                  10.000
unit ff             mHz
Nd                  6
Points              per decade
spacing             Logarithmic
Va (mV)             5.0
pw                  0.10
Na                  2
corr                0
E range min (V)     -10.000
E range max (V)     10.000
I Range             Auto
Bandwidth           5
nc cycles           0
goto Ns'            0
nr cycles           0
inc. cycle          0

freq/Hz	Re(Z)/Ohm	-Im(Z)/Ohm	|Z|/Ohm	Phase(Z)/deg	time/s	<Ewe>/V	<I>/mA	Cs/µF	Cp/µF	cycle number	I Range	|Ewe|/V	|I|/A	Ns	(Q-Qo)/mA.h	<Ece>/V	|Ece|/V	Phase(Zce)/deg	|Zce|/Ohm	Re(Zce)/Ohm	-Im(Zce)/Ohm	Phase(Zwe-ce)/deg	|Zwe-ce|/Ohm	Re(Zwe-ce)/Ohm	-Im(Zwe-ce)/Ohm	Re(Y)/Ohm-1	Im(Y)/Ohm-1	|Y|/Ohm-1	Phase(Y)/deg	Re(C)/nF	Im(C)/nF	|C|/nF	Phase(C)/deg	Re(M)	Im(M)	|M|	Phase(M)/deg	Re(Permittivity)	Im(Permittivity)	|Permittivity|	Phase(Permittivity)/deg	Re(Resistivity)/Ohm.cm	Im(Resistivity)/Ohm.cm	|Resistivity|/Ohm.cm	Phase(Resistivity)/deg	Re(Conductivity)/mS/cm	Im(Conductivity)/mS/cm	|Conductivity|/mS/cm	Phase(Conductivity)/deg	Tan(Delta)	Loss Angle(Delta)/deg	dq/mA.h	Pwe/W	Pce/W	Pwe-ce/W	<Ewe-Ece>/V	Rwe/Ohm	Rce/Ohm	Rwe-ce/Ohm		Ewe-Ece/V
100004	1.43088	0.63298	1.56463	-23.8633	1.91056	0.263662	0.0674258	2.51428	0.4115	1	9	0.00477629	0.00305266	0	8.44854e-06	0.00012515	3.76783e-05	89.577	0.0123428	9.11281e-05	-0.0123424	-23.4473	1.55976	1.43097	0.620637	0.584491	0.258562	0.639128	23.8633	411.5	930.212	1017.17	-66.1367	0.0000000E+000	0.0000000E+000	0.0000000E+000	66.1367	0.0000000E+000	0.0000000E+000	0.0000000E+000	-66.1367	0.0000000E+000	0.0000000E+000	0.0000000E+000	-23.8633	0.0000000E+000	0.0000000E+000	0.0000000E+000	23.8633	2.26054	66.1367	8.44854e-06	1.77776e-05	8.43831e-09	1.77692e-05	0.263537	3910.4	1.85611	3908.55
31621.1	2.00593	0.855865	2.18088	-23.1064	3.43156	0.263668	0.0607573	5.88081	0.905698	1	9	0.00509867	0.00233789	0	2.61774e-05	0.000239613	1.45655e-05	3.20825	0.00623018	0.00622042	-0.000348674	-23.034	2.18647	2.01215	0.855517	0.421746	0.179945	0.45853	23.1064	905.698	2122.72	2307.86	-66.8936	0.0000000E+000	0.0000000E+000	0.0000000E+000	66.8936	0.0000000E+000	0.0000000E+000	0.0000000E+000	-66.8936	0.0000000E+000	0.0000000E+000	0.0000000E+000	-23.1064	0.0000000E+000	0.0000000E+000	0.0000000E+000	23.1064	2.34374	66.8936	1.25068e-05	1.60198e-05	1.45583e-08	1.60052e-05	0.263429	4339.7	3.94378	4335.76
10002.2	2.65671	1.0555	2.85871	-21.6678	4.58052	0.26367	0.065563	15.0752	2.05515	1	9	0.00497647	0.00174081	0	4.73799e-05	4.88404e-05	1.45504e-05	16.2169	0.00835839	0.00802583	-0.00233428	-21.5651	2.86531	2.66474	1.05317	0.325091	0.129158	0.349808	21.6678	2055.15	5172.83	5566.13	-68.3322	0.0000000E+000	0.0000000E+000	0.0000000E+000	68.3322	0.0000000E+000	0.0000000E+000	0.0000000E+000	-68.3322	0.0000000E+000	0.0000000E+000	0.0000000E+000	-21.6678	0.0000000E+000	0.0000000E+000	0.0000000E+000	21.6678	2.51701	68.3322	7.68158e-06	1.7287e-05	3.20213e-09	1.72838e-05	0.263621	4021.62	0.744938	4020.88
3163.08	3.35352	1.52479	3.68389	-24.4505	5.48063	0.263483	0.0474574	32.9989	5.65335	1	9	0.00462465	0.00125537	0	5.93674e-05	2.97631e-05	7.55566e-06	-77.1704	0.00601867	0.00133646	0.00586841	-24.5249	3.68754	3.35485	1.53066	0.247108	0.112356	0.271452	24.4505	5653.35	12433.6	13658.5	-65.5495	0.0000000E+000	0.0000000E+000	0.0000000E+000	65.5495	0.0000000E+000	0.0000000E+000	0.0000000E+000	-65.5495	0.0000000E+000	0.0000000E+000	0.0000000E+000	-24.4505	0.0000000E+000	0.0000000E+000	0.0000000E+000	24.4505	2.19933	65.5495	6.19285e-06	1.25042e-05	1.41248e-09	1.25028e-05	0.263453	5551.99	0.627154	5551.36
1000.32	4.3066	2.70989	5.08825	-32.1798	7.0788	0.263588	-0.0116583	58.7123	16.6531	1	10	0.00465841	0.000915523	0	6.36496e-05	-0.000122855	8.83126e-06	-106.816	0.00964614	-0.00279061	0.00923366	-32.2845	5.09082	4.30381	2.71913	0.16634	0.104668	0.196531	32.1798	16653.1	26465.4	31268.9	-57.8202	0.0000000E+000	0.0000000E+000	0.0000000E+000	57.8202	0.0000000E+000	0.0000000E+000	0.0000000E+000	-57.8202	0.0000000E+000	0.0000000E+000	0.0000000E+000	-32.1798	0.0000000E+000	0.0000000E+000	0.0000000E+000	32.1798	1.58922	57.8202	-2.10529e-06	-3.07299e-06	1.43228e-09	-3.07442e-06	0.263711	22609.5	10.538	22620
316.316	6.16355	5.75186	8.43049	-43.0212	8.428	0.263589	-0.0125341	87.4764	40.7194	1	10	0.00458178	0.000543477	0	5.93415e-05	0.000163304	4.13721e-06	56.9262	0.00761248	0.00415427	-0.00637902	-42.9702	8.42918	6.1677	5.74548	0.0867211	0.0809287	0.118617	43.0212	40719.4	43633.9	59682.4	-46.9788	0.0000000E+000	0.0000000E+000	0.0000000E+000	46.9788	0.0000000E+000	0.0000000E+000	0.0000000E+000	-46.9788	0.0000000E+000	0.0000000E+000	0.0000000E+000	-43.0212	0.0000000E+000	0.0000000E+000	0.0000000E+000	43.0212	1.07157	46.9788	-1.85855e-06	-3.30386e-06	-2.04688e-09	-3.30182e-06	0.263426	21029.7	13.0288	21016.6
100.032	12.0124	11.5083	16.6355	-43.7723	9.77581	0.263579	-0.0131267	138.251	66.1643	1	10	0.00457541	0.00027504	0	5.51029e-05	2.97631e-05	3.52003e-05	6.77381	0.127983	0.127089	-0.0150956	-43.4336	16.7171	12.1395	11.4932	0.043407	0.0415856	0.0601126	43.7723	66164.3	69062.2	95641.5	-46.2277	0.0000000E+000	0.0000000E+000	0.0000000E+000	46.2277	0.0000000E+000	0.0000000E+000	0.0000000E+000	-46.2277	0.0000000E+000	0.0000000E+000	0.0000000E+000	-43.7723	0.0000000E+000	0.0000000E+000	0.0000000E+000	43.7723	1.0438	46.2277	-1.7924e-06	-3.45993e-06	-3.90693e-10	-3.45954e-06	0.263549	20079.5	2.26737	20077.3
[...]
1.00006	42.5693	3.73467	42.7328	-5.01381	19.5238	0.263659	-0.00330554	42612.8	325.478	1	12	0.00456013	0.000106713	0	4.07339e-05	-4.65461e-05	2.19877e-06	-23.9793	0.0206046	0.0188263	0.00837384	-5.02278	42.7523	42.5881	3.74304	0.0233117	0.00204517	0.0234012	5.01381	325478	3.70993e+06	3.72418e+06	-84.9862	0.0000000E+000	0.0000000E+000	0.0000000E+000	84.9862	0.0000000E+000	0.0000000E+000	0.0000000E+000	-84.9862	0.0000000E+000	0.0000000E+000	0.0000000E+000	-5.01381	0.0000000E+000	0.0000000E+000	0.0000000E+000	5.01381	11.3984	84.9862	-2.32691e-06	-8.71535e-07	1.5386e-10	-8.71688e-07	0.263705	79762.6	14.0812	79776.7
0.316193	45.2271	3.70572	45.3787	-4.68411	33.8669	0.263649	-0.00289415	135830	905.809	1	12	0.00456159	0.000100523	0	4.52758e-05	0.000163304	2.69871e-06	15.6792	0.0268468	0.0258478	-0.00725537	-4.67232	45.4038	45.2529	3.69846	0.0219632	0.00179957	0.0220368	4.68411	905808	1.10551e+07	1.10922e+07	-85.3159	0.0000000E+000	0.0000000E+000	0.0000000E+000	85.3159	0.0000000E+000	0.0000000E+000	0.0000000E+000	-85.3159	0.0000000E+000	0.0000000E+000	0.0000000E+000	-4.68411	0.0000000E+000	0.0000000E+000	0.0000000E+000	4.68411	12.2047	85.3159	2.43814e-06	-7.63042e-07	-4.72627e-10	-7.62569e-07	0.263486	91097.3	56.4256	91040.9
0.0999041	48.4683	4.60591	48.6867	-5.42848	79.0749	0.263643	-0.00124177	345877	3095.51	1	12	0.00456113	9.36832e-05	0	-1.86796e-06	-4.65461e-05	1.71925e-06	-24.5258	0.0183517	0.016696	0.00761786	-5.43554	48.704	48.485	4.61353	0.0204474	0.0019431	0.0205395	5.42848	3.09551e+06	3.25742e+07	3.2721e+07	-84.5715	0.0000000E+000	0.0000000E+000	0.0000000E+000	84.5715	0.0000000E+000	0.0000000E+000	0.0000000E+000	-84.5715	0.0000000E+000	0.0000000E+000	0.0000000E+000	-5.42848	0.0000000E+000	0.0000000E+000	0.0000000E+000	5.42848	10.5231	84.5715	-3.06803e-05	-3.27384e-07	5.77995e-11	-3.27442e-07	0.26369	212313	37.4837	212350
0.0315922	53.0326	8.38959	53.6921	-8.98951	221.959	0.263639	-0.00144198	600482	14660.9	1	12	0.00456587	8.50381e-05	0	-0.000139023	0.000354077	1.92954e-06	-3.5536	0.0226903	0.0226467	0.0014064	-8.98722	53.7147	53.0553	8.39099	0.0183959	0.00291018	0.0186247	8.98951	1.46609e+07	9.26749e+07	9.38274e+07	-81.0105	0.0000000E+000	0.0000000E+000	0.0000000E+000	81.0105	0.0000000E+000	0.0000000E+000	0.0000000E+000	-81.0105	0.0000000E+000	0.0000000E+000	0.0000000E+000	-8.98951	0.0000000E+000	0.0000000E+000	0.0000000E+000	8.98951	6.32124	81.0105	-3.77072e-05	-3.80162e-07	-5.10572e-10	-3.79651e-07	0.263285	182832	245.55	182586
0.0100092	59.4906	18.0229	62.1607	-16.8543	673.179	0.263648	-0.000234363	882264	74167.5	1	12	0.00456335	7.34121e-05	0	0.000163499	0.000182382	4.55788e-06	22.8085	0.0620863	0.0572315	-0.0240678	-16.8178	62.2085	59.5478	17.9988	0.0153963	0.00466435	0.0160873	16.8543	7.41675e+07	2.44815e+08	2.55803e+08	-73.1457	0.0000000E+000	0.0000000E+000	0.0000000E+000	73.1457	0.0000000E+000	0.0000000E+000	0.0000000E+000	-73.1457	0.0000000E+000	0.0000000E+000	0.0000000E+000	-16.8543	0.0000000E+000	0.0000000E+000	0.0000000E+000	16.8543	3.30084	73.1457	0.000179763	-6.17892e-08	-4.27435e-11	-6.17465e-08	0.263465	1.12496e+06	778.202	1.12418e+06