Folder: EIS/txt (part 125)

File: 18801_R307_UC93_26p5_SOC50_C03.mpt
EC-Lab ASCII FILE
Nb header lines : 65

Potentio Electrochemical Impedance Spectroscopy

Run on channel : 3 (SN 65921)
Grouped channel(s) : 1, 2, 3, 4, 5
User :
CE vs. WE compliance from -10 V to 10 V
Electrode connection : standard
Potential control : Ewe
Ewe ctrl range : min = -10.00 V, max = 10.00 V
Safety Limits :
	Do not start on E overload
Acquisition started on : 11/04/2025 16:29:50.795
Loaded Setting File :  C:\Users\Celltest\OneDrive - store-dot.com\Documents\EC-Lab\Data\@Biologic Test Protocols\cathode half cell EIS SOC50.mps
Saved on :
	File : 18799_R307_UC93_26p5_SOC00_C03.mpr
	Directory : C:\Users\Celltest\OneDrive - store-dot.com\Documents\EC-Lab\Data\Anna\
	Host : 169.254.61.224
Device : VMP-3e (SN .003165)
Address : USB
EC-LAB for windows v11.62 (software)
Internet server v27.00 (firmware)
Command interpretor v12.03 (firmware)
Electrode material :
Initial state :
Electrolyte :
Comments :
Electrode surface area : 0.001 cm²
Characteristic mass : 0.001 g
Equivalent Weight : 0.000 g/eq.
Density : 0.000 g/cm3
Volume (V) : 0.001 cm³
Record Ece
Cycle Definition : Charge/Discharge alternance
Mode                Multi sine
E (V)               0.0000
vs.                 Eoc
tE (h:m:s)          0:00:0.0000
record              0
dI                  0.000
unit dI             mA
dt (s)              0.000
fi                  1.000
unit fi             MHz
ff                  0.100
unit ff             mHz
Nd                  10
Points              per decade
spacing             Logarithmic
Va (mV)             5.0
pw                  0.10
Na                  2
corr                0
E range min (V)     -10.000
E range max (V)     10.000
I Range             Auto
Bandwidth           5
nc cycles           0
goto Ns'            0
nr cycles           0
inc. cycle          0

freq/Hz	Re(Z)/Ohm	-Im(Z)/Ohm	|Z|/Ohm	Phase(Z)/deg	time/s	<Ewe>/V	<I>/mA	Cs/µF	Cp/µF	cycle number	I Range	|Ewe|/V	|I|/A	Ns	(Q-Qo)/mA.h	<Ece>/V	|Ece|/V	Phase(Zce)/deg	|Zce|/Ohm	Re(Zce)/Ohm	-Im(Zce)/Ohm	Phase(Zwe-ce)/deg	|Zwe-ce|/Ohm	Re(Zwe-ce)/Ohm	-Im(Zwe-ce)/Ohm	Re(Y)/Ohm-1	Im(Y)/Ohm-1	|Y|/Ohm-1	Phase(Y)/deg	Re(C)/nF	Im(C)/nF	|C|/nF	Phase(C)/deg	Re(M)	Im(M)	|M|	Phase(M)/deg	Re(Permittivity)	Im(Permittivity)	|Permittivity|	Phase(Permittivity)/deg	Re(Resistivity)/Ohm.cm	Im(Resistivity)/Ohm.cm	|Resistivity|/Ohm.cm	Phase(Resistivity)/deg	Re(Conductivity)/mS/cm	Im(Conductivity)/mS/cm	|Conductivity|/mS/cm	Phase(Conductivity)/deg	Tan(Delta)	Loss Angle(Delta)/deg	dq/mA.h	Pwe/W	Pce/W	Pwe-ce/W	<Ewe-Ece>/V	Rwe/Ohm	Rce/Ohm	Rwe-ce/Ohm		Ewe-Ece/V
1.00002e+06	5.93193	5.6994	8.22624	-43.8547	2.23353	3.96861	-0.000548792	0.0279243	0.0134041	1	10	0.000196572	2.38958e-05	0	-7.97508e-06	0.000199977	0.000191783	-59.5259	8.02581	4.07028	6.91711	-51.5931	16.1003	10.0022	12.6165	0.0876584	0.0842223	0.121562	43.8547	13.4041	13.951	19.3469	-46.1453	0.0000000E+000	0.0000000E+000	0.0000000E+000	46.1453	0.0000000E+000	0.0000000E+000	0.0000000E+000	-46.1453	0.0000000E+000	0.0000000E+000	0.0000000E+000	-43.8547	0.0000000E+000	0.0000000E+000	0.0000000E+000	43.8547	1.0408	46.1453	-7.97508e-06	-2.17794e-06	-1.09746e-10	-2.17783e-06	3.96841	7.23153e+06	364.395	7.23117e+06
251206	1.4961	0.276741	1.52148	-10.4798	4.93456	3.96824	0.0350868	2.28937	0.0757405	1	9	0.00285484	0.00187635	0	1.11328e-05	-0.000220093	5.70713e-05	89.403	0.0304161	0.000316917	-0.0304145	-9.34764	1.51656	1.49642	0.246326	0.646289	0.119547	0.657253	10.4798	75.7405	409.465	416.411	-79.5202	0.0000000E+000	0.0000000E+000	0.0000000E+000	79.5202	0.0000000E+000	0.0000000E+000	0.0000000E+000	-79.5202	0.0000000E+000	0.0000000E+000	0.0000000E+000	-10.4798	0.0000000E+000	0.0000000E+000	0.0000000E+000	10.4798	5.40616	79.5202	9.00372e-07	0.000139233	-7.72235e-09	0.00013924	3.96846	113098	6.2728	113104
63093.8	1.92422	0.955278	2.1483	-26.4021	7.48053	3.96816	0.0371007	2.64061	0.522124	1	9	0.00523976	0.00243903	0	3.69863e-05	-0.000124622	2.53105e-05	39.107	0.0103773	0.00805244	-0.00654568	-26.1507	2.15262	1.93227	0.948732	0.416933	0.206986	0.465485	26.4021	522.124	1051.72	1174.19	-63.5979	0.0000000E+000	0.0000000E+000	0.0000000E+000	63.5979	0.0000000E+000	0.0000000E+000	0.0000000E+000	-63.5979	0.0000000E+000	0.0000000E+000	0.0000000E+000	-26.4021	0.0000000E+000	0.0000000E+000	0.0000000E+000	26.4021	2.01431	63.5979	1.27801e-05	0.000147222	-4.62357e-09	0.000147226	3.96829	106956	3.35903	106960
15847.7	3.08691	1.72235	3.53489	-29.1594	10.5276	3.96813	0.0259126	5.83088	1.38427	1	9	0.00488419	0.00138171	0	5.37296e-05	-6.734e-05	1.18472e-05	-16.7494	0.00857436	0.00821059	0.00247101	-29.1296	3.54327	3.09512	1.72482	0.247042	0.137838	0.282894	29.1594	1384.27	2480.99	2841.04	-60.8406	0.0000000E+000	0.0000000E+000	0.0000000E+000	60.8406	0.0000000E+000	0.0000000E+000	0.0000000E+000	-60.8406	0.0000000E+000	0.0000000E+000	0.0000000E+000	-29.1594	0.0000000E+000	0.0000000E+000	0.0000000E+000	29.1594	1.79227	60.8406	4.31881e-06	0.000102824	-1.74495e-09	0.000102826	3.96819	153135	2.59874	153138
3983.6	4.80723	3.06141	5.69927	-32.4904	13.049	3.96815	-0.0091774	13.0504	3.76554	1	10	0.00501927	0.000880686	0	5.82875e-05	-6.734e-05	6.54351e-06	-80.7213	0.00743001	0.00119799	0.0073328	-32.5461	5.70422	4.80842	3.06875	0.147998	0.0942505	0.175461	32.4904	3765.54	5912.9	7010.11	-57.5096	0.0000000E+000	0.0000000E+000	0.0000000E+000	57.5096	0.0000000E+000	0.0000000E+000	0.0000000E+000	-57.5096	0.0000000E+000	0.0000000E+000	0.0000000E+000	-32.4904	0.0000000E+000	0.0000000E+000	0.0000000E+000	32.4904	1.57026	57.5096	-3.97507e-06	-3.64173e-05	6.18006e-10	-3.64179e-05	3.96822	432383	7.3376	432390
1000.32	8.08066	5.53021	9.79185	-34.3868	16.2828	3.96814	-0.0119778	28.7699	9.17684	1	10	0.00538352	0.000549796	0	4.9135e-05	-0.000124622	9.43015e-06	-15.2786	0.0171521	0.0165459	0.0045198	-34.354	9.80806	8.09721	5.53473	0.0842786	0.0576783	0.102126	34.3868	9176.84	13409.1	16248.6	-55.6132	0.0000000E+000	0.0000000E+000	0.0000000E+000	55.6132	0.0000000E+000	0.0000000E+000	0.0000000E+000	-55.6132	0.0000000E+000	0.0000000E+000	0.0000000E+000	-34.3868	0.0000000E+000	0.0000000E+000	0.0000000E+000	34.3868	1.46118	55.6132	-1.34056e-06	-4.75296e-05	1.4927e-09	-4.75311e-05	3.96827	331291	10.4044	331302
251.044	15.0482	8.06335	17.0724	-28.184	18.985	3.96814	-0.0109337	78.6238	17.5387	1	10	0.00482678	0.000282725	0	4.09497e-05	8.54125e-05	1.89676e-05	13.9032	0.0670885	0.065123	-0.0161201	-28.0335	17.1222	15.1133	8.04723	0.0516294	0.0276648	0.0585742	28.184	17538.7	32731.6	37134.4	-61.816	0.0000000E+000	0.0000000E+000	0.0000000E+000	61.816	0.0000000E+000	0.0000000E+000	0.0000000E+000	-61.816	0.0000000E+000	0.0000000E+000	0.0000000E+000	-28.184	0.0000000E+000	0.0000000E+000	0.0000000E+000	28.184	1.86625	61.816	-1.35672e-06	-4.33865e-05	-9.33876e-10	-4.33856e-05	3.96805	362927	7.81184	362919
[...]
0.0602816	31.3352	4.07708	31.5993	-7.41322	243.255	3.96811	-0.0132843	647568	10780.3	1	11	0.00505457	0.000159958	0	-0.0015167	-4.8246e-05	6.08406e-07	28.6018	0.00380353	0.00333937	-0.00182082	-7.40917	31.6024	31.3385	4.07526	0.0313818	0.00408314	0.0316463	7.41322	1.07803e+07	8.28538e+07	8.35522e+07	-82.5868	0.0000000E+000	0.0000000E+000	0.0000000E+000	82.5868	0.0000000E+000	0.0000000E+000	0.0000000E+000	-82.5868	0.0000000E+000	0.0000000E+000	0.0000000E+000	-7.41322	0.0000000E+000	0.0000000E+000	0.0000000E+000	7.41322	7.68569	82.5868	0.000000000000000E+000	-5.27134e-05	6.40912e-10	-5.27141e-05	3.96816	298708	3.63181	298711
0.00796479	39.8463	8.78051	40.8022	-12.4271	20332.1	3.96812	-0.000156911	2.27576e+06	105390	1	11	0.00505321	0.000123846	0	-0.0117425	9.03623e-06	4.10573e-07	-163.989	0.00331518	-0.00318658	0.000914384	-12.4293	40.7993	39.8431	8.78143	0.0239342	0.00527414	0.0245085	12.4271	1.0539e+08	4.78262e+08	4.89736e+08	-77.5729	0.0000000E+000	0.0000000E+000	0.0000000E+000	77.5729	0.0000000E+000	0.0000000E+000	0.0000000E+000	-77.5729	0.0000000E+000	0.0000000E+000	0.0000000E+000	-12.4271	0.0000000E+000	0.0000000E+000	0.0000000E+000	12.4271	4.53804	77.5729	-0.0102258	-6.2264e-07	-1.41788e-12	-6.22639e-07	3.96811	2.52891e+07	57.5884	2.5289e+07
0.0019912	48.5815	12.2647	50.1057	-14.1687	20332.1	3.96812	-0.000156911	6.517e+06	390472	1	11	0.00506748	0.000101136	0	-0.0117425	9.03623e-06	3.63261e-07	-76.2076	0.00359181	0.000856303	0.00348824	-14.1723	50.1074	48.5823	12.2682	0.0193507	0.00488522	0.0199578	14.1687	3.90472e+08	1.54669e+09	1.59521e+09	-75.8313	0.0000000E+000	0.0000000E+000	0.0000000E+000	75.8313	0.0000000E+000	0.0000000E+000	0.0000000E+000	-75.8313	0.0000000E+000	0.0000000E+000	0.0000000E+000	-14.1687	0.0000000E+000	0.0000000E+000	0.0000000E+000	14.1687	3.96107	75.8313	0.000000000000000E+000	-6.2264e-07	-1.41788e-12	-6.22639e-07	3.96811	2.52891e+07	57.5884	2.5289e+07
0.000497799	54.5599	18.9161	57.746	-19.1216	20332.1	3.96812	-0.000156911	1.69019e+07	1.81365e+06	1	11	0.00506754	8.77556e-05	0	-0.0117425	9.03623e-06	1.02126e-06	-129.62	0.0116376	-0.00742113	0.00896434	-19.1324	57.742	54.5525	18.925	0.0163617	0.00567266	0.0173172	19.1216	1.81365e+09	5.23113e+09	5.53661e+09	-70.8784	0.0000000E+000	0.0000000E+000	0.0000000E+000	70.8784	0.0000000E+000	0.0000000E+000	0.0000000E+000	-70.8784	0.0000000E+000	0.0000000E+000	0.0000000E+000	-19.1216	0.0000000E+000	0.0000000E+000	0.0000000E+000	19.1216	2.88432	70.8784	0.000000000000000E+000	-6.2264e-07	-1.41788e-12	-6.22639e-07	3.96811	2.52891e+07	57.5884	2.5289e+07
9.95598e-05	65.3043	84.9768	107.171	-52.4579	20332.1	3.96812	-0.000156911	1.8812e+07	1.18271e+07	1	11	0.00506797	4.72885e-05	0	-0.0117425	9.03623e-06	1.87894e-06	74.089	0.0397334	0.0108927	-0.0382112	-52.4408	107.148	65.3151	84.9386	0.0056857	0.00739849	0.00933085	52.4579	1.18271e+10	9.08908e+09	1.49162e+10	-37.5421	0.0000000E+000	0.0000000E+000	0.0000000E+000	37.5421	0.0000000E+000	0.0000000E+000	0.0000000E+000	-37.5421	0.0000000E+000	0.0000000E+000	0.0000000E+000	-52.4579	0.0000000E+000	0.0000000E+000	0.0000000E+000	52.4579	0.768495	37.5421	0.000000000000000E+000	-6.2264e-07	-1.41788e-12	-6.22639e-07	3.96811	2.52891e+07	57.5884	2.5289e+07

File: 18802_R307_UC93_26p5_SOC50_C04.mpt
EC-Lab ASCII FILE
Nb header lines : 65

Potentio Electrochemical Impedance Spectroscopy

Run on channel : 4 (SN 66756)
Grouped channel(s) : 1, 2, 3, 4, 5
User :
CE vs. WE compliance from -10 V to 10 V
Electrode connection : standard
Potential control : Ewe
Ewe ctrl range : min = -10.00 V, max = 10.00 V
Safety Limits :
	Do not start on E overload
Acquisition started on : 11/04/2025 16:29:50.795
Loaded Setting File :  C:\Users\Celltest\OneDrive - store-dot.com\Documents\EC-Lab\Data\@Biologic Test Protocols\cathode half cell EIS SOC50.mps
Saved on :
	File : 18799_R307_UC93_26p5_SOC00_C04.mpr
	Directory : C:\Users\Celltest\OneDrive - store-dot.com\Documents\EC-Lab\Data\Anna\
	Host : 169.254.61.224
Device : VMP-3e (SN .003165)
Address : USB
EC-LAB for windows v11.62 (software)
Internet server v27.00 (firmware)
Command interpretor v12.03 (firmware)
Electrode material :
Initial state :
Electrolyte :
Comments :
Electrode surface area : 0.001 cm²
Characteristic mass : 0.001 g
Equivalent Weight : 0.000 g/eq.
Density : 0.000 g/cm3
Volume (V) : 0.001 cm³
Record Ece
Cycle Definition : Charge/Discharge alternance
Mode                Multi sine
E (V)               0.0000
vs.                 Eoc
tE (h:m:s)          0:00:0.0000
record              0
dI                  0.000
unit dI             mA
dt (s)              0.000
fi                  1.000
unit fi             MHz
ff                  0.100
unit ff             mHz
Nd                  10
Points              per decade
spacing             Logarithmic
Va (mV)             5.0
pw                  0.10
Na                  2
corr                0
E range min (V)     -10.000
E range max (V)     10.000
I Range             Auto
Bandwidth           5
nc cycles           0
goto Ns'            0
nr cycles           0
inc. cycle          0

freq/Hz	Re(Z)/Ohm	-Im(Z)/Ohm	|Z|/Ohm	Phase(Z)/deg	time/s	<Ewe>/V	<I>/mA	Cs/µF	Cp/µF	cycle number	I Range	|Ewe|/V	|I|/A	Ns	(Q-Qo)/mA.h	<Ece>/V	|Ece|/V	Phase(Zce)/deg	|Zce|/Ohm	Re(Zce)/Ohm	-Im(Zce)/Ohm	Phase(Zwe-ce)/deg	|Zwe-ce|/Ohm	Re(Zwe-ce)/Ohm	-Im(Zwe-ce)/Ohm	Re(Y)/Ohm-1	Im(Y)/Ohm-1	|Y|/Ohm-1	Phase(Y)/deg	Re(C)/nF	Im(C)/nF	|C|/nF	Phase(C)/deg	Re(M)	Im(M)	|M|	Phase(M)/deg	Re(Permittivity)	Im(Permittivity)	|Permittivity|	Phase(Permittivity)/deg	Re(Resistivity)/Ohm.cm	Im(Resistivity)/Ohm.cm	|Resistivity|/Ohm.cm	Phase(Resistivity)/deg	Re(Conductivity)/mS/cm	Im(Conductivity)/mS/cm	|Conductivity|/mS/cm	Phase(Conductivity)/deg	Tan(Delta)	Loss Angle(Delta)/deg	dq/mA.h	Pwe/W	Pce/W	Pwe-ce/W	<Ewe-Ece>/V	Rwe/Ohm	Rce/Ohm	Rwe-ce/Ohm		Ewe-Ece/V
1.00002e+06	3.50212	1.75527	3.91737	-26.6201	2.23453	3.96664	0.0119865	0.090671	0.0182039	1	10	0.000251731	6.42602e-05	0	-2.14967e-06	-0.000568162	0.000178425	-68.1126	2.77661	1.03508	2.57647	-43.6729	6.27297	4.5372	4.33174	0.228213	0.114381	0.255273	26.6201	18.2039	36.3206	40.6272	-63.3799	0.0000000E+000	0.0000000E+000	0.0000000E+000	63.3799	0.0000000E+000	0.0000000E+000	0.0000000E+000	-63.3799	0.0000000E+000	0.0000000E+000	0.0000000E+000	-26.6201	0.0000000E+000	0.0000000E+000	0.0000000E+000	26.6201	1.9952	63.3799	-2.14967e-06	4.75462e-05	-6.81028e-09	4.75531e-05	3.96721	330925	47.4	330973
199544	1.49599	0.435298	1.55804	-16.2237	5.32254	3.96518	-0.0795777	1.8323	0.143026	1	9	0.00510671	0.00327766	0	-5.23868e-05	-0.000147743	4.91475e-05	75.9753	0.0149947	0.00363383	-0.0145477	-15.6725	1.55753	1.49963	0.42075	0.616275	0.179321	0.641834	16.2237	143.026	491.538	511.923	-73.7763	0.0000000E+000	0.0000000E+000	0.0000000E+000	73.7763	0.0000000E+000	0.0000000E+000	0.0000000E+000	-73.7763	0.0000000E+000	0.0000000E+000	0.0000000E+000	-16.2237	0.0000000E+000	0.0000000E+000	0.0000000E+000	16.2237	3.43671	73.7763	-9.43525e-06	-0.00031554	1.1757e-08	-0.000315552	3.96533	49827.8	1.85658	49829.6
39814.1	2.22837	1.12906	2.49808	-26.8702	8.25554	3.96513	-0.0550734	3.54052	0.723247	1	9	0.0050032	0.00200282	0	-9.77371e-05	-0.000166852	1.35305e-05	14.3196	0.00675572	0.00654583	-0.0016709	-26.7683	2.50317	2.23492	1.12739	0.357087	0.180927	0.400307	26.8702	723.247	1427.44	1600.21	-63.1298	0.0000000E+000	0.0000000E+000	0.0000000E+000	63.1298	0.0000000E+000	0.0000000E+000	0.0000000E+000	-63.1298	0.0000000E+000	0.0000000E+000	0.0000000E+000	-26.8702	0.0000000E+000	0.0000000E+000	0.0000000E+000	26.8702	1.97365	63.1298	-1.57124e-05	-0.000218373	9.18914e-09	-0.000218383	3.9653	71997.2	3.02964	72000.2
0.0000000E+000	0.0000000E+000	0.0000000E+000	0.0000000E+000	0.0000000E+000	0.000000000000000E+000	0.0000000E+000	0.0000000E+000	0.0000000E+000	0.0000000E+000	0.000000000000000E+000	0	0.0000000E+000	0.0000000E+000	0	0.000000000000000E+000	0.0000000E+000	0.0000000E+000	0.0000000E+000	0.0000000E+000	0.0000000E+000	0.0000000E+000	0.0000000E+000	0.0000000E+000	0.0000000E+000	0.0000000E+000	0.0000000E+000	0.0000000E+000	0.0000000E+000	0.0000000E+000	0.0000000E+000	0.0000000E+000	0.0000000E+000	-90	0.0000000E+000	0.0000000E+000	0.0000000E+000	90	0.0000000E+000	0.0000000E+000	0.0000000E+000	-90	0.0000000E+000	0.0000000E+000	0.0000000E+000	0.0000000E+000	0.0000000E+000	0.0000000E+000	0.0000000E+000	0.0000000E+000	0.0000000E+000	90	0.000000000000000E+000	0.0000000E+000	0.0000000E+000	0.0000000E+000	0.0000000E+000	0.0000000E+000	0.0000000E+000	0.0000000E+000
1585.51	6.13972	4.06834	7.36529	-33.5295	13.3948	3.96505	-0.0246214	24.6737	7.52817	1	10	0.00473001	0.000642203	0	-0.0001608	-0.000396172	8.0918e-06	-4.26771	0.0126001	0.0125651	0.000937656	-33.4817	7.37629	6.15228	4.06928	0.11318	0.0749959	0.135772	33.5295	7528.17	11361.1	13628.9	-56.4705	0.0000000E+000	0.0000000E+000	0.0000000E+000	56.4705	0.0000000E+000	0.0000000E+000	0.0000000E+000	-56.4705	0.0000000E+000	0.0000000E+000	0.0000000E+000	-33.5295	0.0000000E+000	0.0000000E+000	0.0000000E+000	33.5295	1.50914	56.4705	-2.79374e-06	-9.76252e-05	9.75431e-09	-9.7635e-05	3.96545	161041	16.0905	161057
1000.32	7.38428	5.0081	8.92237	-34.1456	14.2968	3.96505	-0.0239388	31.7693	10.0091	1	10	0.00468589	0.000525184	0	-0.00016668	-0.000109523	4.9911e-06	94.837	0.00950352	-0.000801351	-0.00946967	-34.0981	8.91639	7.38348	4.99863	0.0927572	0.062909	0.112078	34.1456	10009.1	14758	17832	-55.8544	0.0000000E+000	0.0000000E+000	0.0000000E+000	55.8544	0.0000000E+000	0.0000000E+000	0.0000000E+000	-55.8544	0.0000000E+000	0.0000000E+000	0.0000000E+000	-34.1456	0.0000000E+000	0.0000000E+000	0.0000000E+000	34.1456	1.47447	55.8544	-2.68339e-06	-9.49186e-05	2.62184e-09	-9.49212e-05	3.96516	165633	4.57511	165637
199.553	15.1634	7.61792	16.9694	-26.6744	17.4483	3.96504	-0.0236217	104.695	21.0991	1	10	0.00462091	0.000272308	0	-0.000187268	-0.000396172	5.89859e-06	-35.1728	0.0216615	0.0177065	0.012478	-26.6852	16.9908	15.1811	7.6304	0.0526578	0.0264547	0.0589295	26.6744	21099.1	41997.6	46999.7	-63.3256	0.0000000E+000	0.0000000E+000	0.0000000E+000	63.3256	0.0000000E+000	0.0000000E+000	0.0000000E+000	-63.3256	0.0000000E+000	0.0000000E+000	0.0000000E+000	-26.6744	0.0000000E+000	0.0000000E+000	0.0000000E+000	26.6744	1.99049	63.3256	-3.17857e-06	-9.36612e-05	9.35827e-09	-9.36706e-05	3.96544	167856	16.7715	167872
[...]
0.0602816	29.4618	3.8028	29.7062	-7.35483	241.266	3.96508	-0.013448	694275	11377.4	1	11	0.00508241	0.000171089	0	-0.00180538	-0.000243292	9.38888e-07	58.4413	0.00548771	0.00287211	-0.0046761	-7.34517	29.7085	29.4647	3.79813	0.033386	0.00430933	0.033663	7.35483	1.13774e+07	8.81455e+07	8.88767e+07	-82.6452	0.0000000E+000	0.0000000E+000	0.0000000E+000	82.6452	0.0000000E+000	0.0000000E+000	0.0000000E+000	-82.6452	0.0000000E+000	0.0000000E+000	0.0000000E+000	-7.35483	0.0000000E+000	0.0000000E+000	0.0000000E+000	7.35483	7.74739	82.6452	0.000000000000000E+000	-5.33224e-05	3.2718e-09	-5.33257e-05	3.96532	294845	18.0913	294863
0.00627227	38.1582	8.9514	39.1941	-13.2021	20330.2	3.96509	-0.000721878	2.83468e+06	147858	1	11	0.00507947	0.000129598	0	-0.0144063	-1.39728e-05	2.80807e-07	-16.4187	0.00216676	0.0020784	0.000612442	-13.2023	39.1963	38.1603	8.95201	0.0248397	0.00582706	0.025514	13.2021	1.47858e+08	6.30293e+08	6.47403e+08	-76.7979	0.0000000E+000	0.0000000E+000	0.0000000E+000	76.7979	0.0000000E+000	0.0000000E+000	0.0000000E+000	-76.7979	0.0000000E+000	0.0000000E+000	0.0000000E+000	-13.2021	0.0000000E+000	0.0000000E+000	0.0000000E+000	13.2021	4.26282	76.7979	0.000000000000000E+000	-2.86231e-06	1.00867e-11	-2.86232e-06	3.9651	5.49274e+06	19.3562	5.49276e+06
0.00129428	45.9814	12.7307	47.7112	-15.4756	20330.2	3.96509	-0.000721878	9.65919e+06	687709	1	11	0.00508974	0.000106678	0	-0.0144063	-1.39728e-05	1.58158e-06	0.783399	0.0148257	0.0148243	-0.000202704	-15.4706	47.7254	45.9962	12.7305	0.0201995	0.00559257	0.0209595	15.4756	6.87708e+08	2.4839e+09	2.57734e+09	-74.5244	0.0000000E+000	0.0000000E+000	0.0000000E+000	74.5244	0.0000000E+000	0.0000000E+000	0.0000000E+000	-74.5244	0.0000000E+000	0.0000000E+000	0.0000000E+000	-15.4756	0.0000000E+000	0.0000000E+000	0.0000000E+000	15.4756	3.61185	74.5244	0.000000000000000E+000	-2.86231e-06	1.00867e-11	-2.86232e-06	3.9651	5.49274e+06	19.3562	5.49276e+06
0.00019912	51.5366	41.4782	66.1548	-38.8282	20330.2	3.96509	-0.000721878	1.92702e+07	7.57536e+06	1	11	0.00509285	7.69838e-05	0	-0.0144063	-1.39728e-05	2.81108e-06	-0.623038	0.0365151	0.036513	0.00039706	-38.8086	66.1835	51.5731	41.4786	0.0117759	0.00947757	0.0151161	38.8282	7.57536e+09	9.41236e+09	1.20822e+10	-51.1718	0.0000000E+000	0.0000000E+000	0.0000000E+000	51.1718	0.0000000E+000	0.0000000E+000	0.0000000E+000	-51.1718	0.0000000E+000	0.0000000E+000	0.0000000E+000	-38.8282	0.0000000E+000	0.0000000E+000	0.0000000E+000	38.8282	1.2425	51.1718	0.000000000000000E+000	-2.86231e-06	1.00867e-11	-2.86232e-06	3.9651	5.49274e+06	19.3562	5.49276e+06
9.95598e-05	60.8273	85.2282	104.708	-54.4846	20330.2	3.96509	-0.000721878	1.87565e+07	1.24268e+07	1	11	0.00508642	4.85772e-05	0	-0.0144063	-1.39728e-05	3.46623e-06	-15.4439	0.0713551	0.0687786	0.0190015	-54.46	104.764	60.896	85.2472	0.00554801	0.0077736	0.00955036	54.4846	1.24268e+10	8.86897e+09	1.52671e+10	-35.5154	0.0000000E+000	0.0000000E+000	0.0000000E+000	35.5154	0.0000000E+000	0.0000000E+000	0.0000000E+000	-35.5154	0.0000000E+000	0.0000000E+000	0.0000000E+000	-54.4846	0.0000000E+000	0.0000000E+000	0.0000000E+000	54.4846	0.713699	35.5154	0.000000000000000E+000	-2.86231e-06	1.00867e-11	-2.86232e-06	3.9651	5.49274e+06	19.3562	5.49276e+06