Folder: EIS/txt (part 88)

File: 18405_R288_UA691_SOC00_C05.mpt
EC-Lab ASCII FILE
Nb header lines : 65

Potentio Electrochemical Impedance Spectroscopy

Run on channel : 5 (SN 65912)
User :
CE vs. WE compliance from -10 V to 10 V
Electrode connection : standard
Potential control : Ewe
Ewe ctrl range : min = -10.00 V, max = 10.00 V
Safety Limits :
	Do not start on E overload
Acquisition started on : 10/14/2025 16:30:49.005
Technique started on : 10/14/2025 16:30:50.731
Loaded Setting File :  NONE
Saved on :
	File : 18405_R288_UA691_SOC00_C05.mpr
	Directory : C:\Users\Celltest\OneDrive - store-dot.com\Documents\EC-Lab\Data\Charmaine\
	Host : 169.254.61.224
Device : VMP-3e (SN .003165)
Address : USB
EC-LAB for windows v11.62 (software)
Internet server v27.00 (firmware)
Command interpretor v12.03 (firmware)
Electrode material :
Initial state :
Electrolyte :
Comments :
Electrode surface area : 0.001 cm²
Characteristic mass : 0.001 g
Equivalent Weight : 0.000 g/eq.
Density : 0.000 g/cm3
Volume (V) : 0.001 cm³
Record Ece
Cycle Definition : Charge/Discharge alternance
Mode                Single sine
E (V)               0.0000
vs.                 Eoc
tE (h:m:s)          0:00:0.0000
record              0
dI                  0.000
unit dI             mA
dt (s)              0.000
fi                  100.000
unit fi             kHz
ff                  10.000
unit ff             mHz
Nd                  6
Points              per decade
spacing             Logarithmic
Va (mV)             5.0
pw                  0.10
Na                  2
corr                0
E range min (V)     -10.000
E range max (V)     10.000
I Range             Auto
Bandwidth           5
nc cycles           0
goto Ns'            0
nr cycles           0
inc. cycle          0

freq/Hz	Re(Z)/Ohm	-Im(Z)/Ohm	|Z|/Ohm	Phase(Z)/deg	time/s	<Ewe>/V	<I>/mA	Cs/µF	Cp/µF	cycle number	I Range	|Ewe|/V	|I|/A	Ns	(Q-Qo)/mA.h	<Ece>/V	|Ece|/V	Phase(Zce)/deg	|Zce|/Ohm	Re(Zce)/Ohm	-Im(Zce)/Ohm	Phase(Zwe-ce)/deg	|Zwe-ce|/Ohm	Re(Zwe-ce)/Ohm	-Im(Zwe-ce)/Ohm	Re(Y)/Ohm-1	Im(Y)/Ohm-1	|Y|/Ohm-1	Phase(Y)/deg	Re(C)/nF	Im(C)/nF	|C|/nF	Phase(C)/deg	Re(M)	Im(M)	|M|	Phase(M)/deg	Re(Permittivity)	Im(Permittivity)	|Permittivity|	Phase(Permittivity)/deg	Re(Resistivity)/Ohm.cm	Im(Resistivity)/Ohm.cm	|Resistivity|/Ohm.cm	Phase(Resistivity)/deg	Re(Conductivity)/mS/cm	Im(Conductivity)/mS/cm	|Conductivity|/mS/cm	Phase(Conductivity)/deg	Tan(Delta)	Loss Angle(Delta)/deg	dq/mA.h	Pwe/W	Pce/W	Pwe-ce/W	<Ewe-Ece>/V	Rwe/Ohm	Rce/Ohm	Rwe-ce/Ohm		Ewe-Ece/V
100004	1.26371	0.376993	1.31875	-16.611	1.72552	0.262161	-0.0195352	4.22154	0.344997	1	9	0.00457506	0.00346925	0	-8.73816e-06	-0.000117823	3.9092e-05	87.8643	0.0112681	0.000419926	-0.0112603	-16.136	1.31598	1.26413	0.365733	0.726651	0.216776	0.758296	16.611	344.997	1156.46	1206.82	-73.389	0.0000000E+000	0.0000000E+000	0.0000000E+000	73.389	0.0000000E+000	0.0000000E+000	0.0000000E+000	-73.389	0.0000000E+000	0.0000000E+000	0.0000000E+000	-16.611	0.0000000E+000	0.0000000E+000	0.0000000E+000	16.611	3.35208	73.389	-8.73816e-06	-5.12136e-06	2.30169e-09	-5.12366e-06	0.262279	13419.9	6.03131	13426
31621.1	1.59688	0.533158	1.68353	-18.4629	3.24752	0.262126	-0.0264245	9.44033	0.946794	1	9	0.00502477	0.00298466	0	-1.5048e-05	-0.00023237	9.03543e-06	40.1771	0.00302729	0.00231301	-0.00195306	-18.375	1.68511	1.59919	0.531205	0.563416	0.188111	0.593989	18.4629	946.794	2835.78	2989.66	-71.5371	0.0000000E+000	0.0000000E+000	0.0000000E+000	71.5371	0.0000000E+000	0.0000000E+000	0.0000000E+000	-71.5371	0.0000000E+000	0.0000000E+000	0.0000000E+000	-18.4629	0.0000000E+000	0.0000000E+000	0.0000000E+000	18.4629	2.99513	71.5371	4.88936e-06	-6.92656e-06	6.14027e-09	-6.9327e-06	0.262358	9919.8	8.79372	9928.59
10002.2	2.02174	0.731606	2.15004	-19.8936	4.27454	0.262127	-0.0215834	21.7494	2.51829	1	9	0.00496418	0.00230887	0	-1.76581e-05	-6.05491e-05	7.068e-06	-97.5613	0.00306123	-0.000402817	0.00303462	-19.9733	2.1507	2.02134	0.73464	0.437352	0.158264	0.465107	19.8936	2518.29	6959.13	7400.76	-70.1064	0.0000000E+000	0.0000000E+000	0.0000000E+000	70.1064	0.0000000E+000	0.0000000E+000	0.0000000E+000	-70.1064	0.0000000E+000	0.0000000E+000	0.0000000E+000	-19.8936	0.0000000E+000	0.0000000E+000	0.0000000E+000	19.8936	2.76343	70.1064	4.80147e-07	-5.65759e-06	1.30685e-09	-5.65889e-06	0.262187	12144.9	2.80536	12147.7
3163.08	2.57563	1.07572	2.79125	-22.668	5.17567	0.261944	-0.088764	46.7746	6.94725	1	9	0.00465301	0.001667	0	-3.04588e-05	5.39982e-05	3.89831e-06	-35.908	0.00233852	0.00189411	0.00137151	-22.679	2.79352	2.57753	1.07709	0.330588	0.138071	0.358263	22.668	6947.25	16634	18026.5	-67.332	0.0000000E+000	0.0000000E+000	0.0000000E+000	67.332	0.0000000E+000	0.0000000E+000	0.0000000E+000	-67.332	0.0000000E+000	0.0000000E+000	0.0000000E+000	-22.668	0.0000000E+000	0.0000000E+000	0.0000000E+000	22.668	2.39433	67.332	-7.96105e-06	-2.32512e-05	-4.7931e-09	-2.32464e-05	0.26189	2951.01	0.608334	2950.4
1000.32	3.3142	1.7358	3.74125	-27.6431	6.77386	0.262054	-0.0227633	91.6604	19.7309	1	10	0.00463957	0.00124011	0	-3.79255e-05	0.000111272	8.39901e-06	-68.1027	0.00677277	0.00252586	0.00628414	-27.7103	3.7464	3.31673	1.74208	0.23678	0.124013	0.26729	27.6431	19730.9	37672.7	42527	-62.3569	0.0000000E+000	0.0000000E+000	0.0000000E+000	62.3569	0.0000000E+000	0.0000000E+000	0.0000000E+000	-62.3569	0.0000000E+000	0.0000000E+000	0.0000000E+000	-27.6431	0.0000000E+000	0.0000000E+000	0.0000000E+000	27.6431	1.90932	62.3569	-5.81187e-06	-5.96521e-06	-2.53292e-09	-5.96268e-06	0.261942	11512.1	4.88821	11507.2
316.316	4.67011	3.25426	5.69212	-34.8698	8.12308	0.262054	-0.0222197	154.613	50.5364	1	10	0.0045423	0.000797999	0	-4.60382e-05	-9.87315e-05	5.22749e-06	58.2885	0.00655075	0.00344335	-0.00557275	-34.804	5.69176	4.67356	3.24869	0.144139	0.10044	0.175682	34.8698	50536.4	72523.6	88394.5	-55.1302	0.0000000E+000	0.0000000E+000	0.0000000E+000	55.1302	0.0000000E+000	0.0000000E+000	0.0000000E+000	-55.1302	0.0000000E+000	0.0000000E+000	0.0000000E+000	-34.8698	0.0000000E+000	0.0000000E+000	0.0000000E+000	34.8698	1.43508	55.1302	-3.12434e-06	-5.82277e-06	2.19379e-09	-5.82497e-06	0.262153	11793.8	4.44342	11798.2
100.032	8.02909	5.42418	9.68959	-34.0416	9.47081	0.262056	-0.0219628	293.323	91.9189	1	10	0.00450588	0.000465023	0	-5.35631e-05	-0.000213279	7.64395e-06	-142.776	0.0164378	-0.0130891	0.00994364	-34.1337	9.68432	8.016	5.43413	0.0855177	0.0577729	0.103204	34.0416	91918.9	136062	164201	-55.9584	0.0000000E+000	0.0000000E+000	0.0000000E+000	55.9584	0.0000000E+000	0.0000000E+000	0.0000000E+000	-55.9584	0.0000000E+000	0.0000000E+000	0.0000000E+000	-34.0416	0.0000000E+000	0.0000000E+000	0.0000000E+000	34.0416	1.48024	55.9584	-3.2121e-06	-5.7555e-06	4.68421e-09	-5.76018e-06	0.26227	11931.8	9.7109	11941.5
31.6296	13.3481	5.98439	14.6282	-24.1483	11.0075	0.262053	-0.0251799	840.827	140.724	1	10	0.00500418	0.000342092	0	-6.44131e-05	0.000168545	5.20624e-06	92.2302	0.0152189	-0.000592233	-0.0152073	-24.0949	14.6214	13.3475	5.96919	0.0623789	0.0279666	0.0683612	24.1483	140723	313881	343983	-65.8517	0.0000000E+000	0.0000000E+000	0.0000000E+000	65.8517	0.0000000E+000	0.0000000E+000	0.0000000E+000	-65.8517	0.0000000E+000	0.0000000E+000	0.0000000E+000	-24.1483	0.0000000E+000	0.0000000E+000	0.0000000E+000	24.1483	2.23048	65.8517	-3.2985e-06	-6.59845e-06	-4.24395e-09	-6.59421e-06	0.261884	10407.2	6.69366	10400.5
[...]
1.00006	22.478	2.57203	22.6247	-6.52764	19.7258	0.262082	-0.00763932	61875.2	799.656	1	12	0.00500469	0.000221205	0	-8.0107e-05	0.000187637	3.59141e-06	31.883	0.0162357	0.0137862	-0.00857547	-6.50211	22.6374	22.4918	2.56345	0.043913	0.00502471	0.0441995	6.52764	799656	6.98852e+06	7.03412e+06	-83.4724	0.0000000E+000	0.0000000E+000	0.0000000E+000	83.4724	0.0000000E+000	0.0000000E+000	0.0000000E+000	-83.4724	0.0000000E+000	0.0000000E+000	0.0000000E+000	-6.52764	0.0000000E+000	0.0000000E+000	0.0000000E+000	6.52764	8.73941	83.4724	-7.80214e-06	-2.00213e-06	-1.43342e-09	-2.0007e-06	0.261895	34307	24.562	34282.4
0.316193	23.9842	2.60539	24.1253	-6.19968	34.069	0.262085	-0.00703683	193195	2253.17	1	12	0.00500387	0.000207411	0	-0.00013985	-0.000136914	1.17697e-06	-15.9892	0.00567458	0.00545505	0.0015631	-6.20197	24.1309	23.9897	2.60695	0.0412078	0.00447637	0.0414502	6.19968	2.25317e+06	2.07418e+07	2.08639e+07	-83.8003	0.0000000E+000	0.0000000E+000	0.0000000E+000	83.8003	0.0000000E+000	0.0000000E+000	0.0000000E+000	-83.8003	0.0000000E+000	0.0000000E+000	0.0000000E+000	-6.19968	0.0000000E+000	0.0000000E+000	0.0000000E+000	6.19968	9.20563	83.8003	-2.34209e-05	-1.84424e-06	9.6344e-10	-1.84521e-06	0.262221	37244.7	19.4568	37264.2
0.0999041	25.8559	4.07833	26.1756	-8.96357	79.277	0.262095	-0.00565123	390620	9482.57	1	12	0.005001	0.000191056	0	-0.000138101	0.000168545	1.9332e-06	-20.1688	0.0101185	0.00949806	0.00348873	-8.96787	26.1855	25.8654	4.08182	0.037737	0.00595236	0.0382035	8.96357	9.48257e+06	6.01179e+07	6.08612e+07	-81.0364	0.0000000E+000	0.0000000E+000	0.0000000E+000	81.0364	0.0000000E+000	0.0000000E+000	0.0000000E+000	-81.0364	0.0000000E+000	0.0000000E+000	0.0000000E+000	-8.96357	0.0000000E+000	0.0000000E+000	0.0000000E+000	8.96357	6.33984	81.0364	1.91019e-05	-1.48116e-06	-9.5249e-10	-1.48021e-06	0.261927	46378.4	29.8245	46348.6
0.0315922	29.3607	7.71893	30.3584	-14.7297	222.16	0.262086	-0.00228897	652654	42192.8	1	12	0.00500327	0.000164807	0	-0.000217736	-0.000194188	1.65473e-06	-20.2987	0.0100405	0.00941692	0.00348317	-14.7316	30.3684	29.3702	7.72241	0.0318572	0.00837526	0.0329398	14.7297	4.21928e+07	1.6049e+08	1.65944e+08	-75.2703	0.0000000E+000	0.0000000E+000	0.0000000E+000	75.2703	0.0000000E+000	0.0000000E+000	0.0000000E+000	-75.2703	0.0000000E+000	0.0000000E+000	0.0000000E+000	-14.7297	0.0000000E+000	0.0000000E+000	0.0000000E+000	14.7297	3.80373	75.2703	-9.63293e-05	-5.99907e-07	4.4449e-10	-6.00351e-07	0.26228	114499	84.8362	114584
0.0100092	35.0917	15.2506	38.2623	-23.4894	673.382	0.262086	-0.00382834	1.04264e+06	165640	1	12	0.00500284	0.000130751	0	-0.00133012	-3.27544e-06	1.40263e-06	18.2713	0.0107275	0.0101867	-0.00336326	-23.4787	38.2703	35.1019	15.2472	0.0239696	0.010417	0.0261354	23.4894	1.6564e+08	3.81139e+08	4.15576e+08	-66.5106	0.0000000E+000	0.0000000E+000	0.0000000E+000	66.5106	0.0000000E+000	0.0000000E+000	0.0000000E+000	-66.5106	0.0000000E+000	0.0000000E+000	0.0000000E+000	-23.4894	0.0000000E+000	0.0000000E+000	0.0000000E+000	23.4894	2.30101	66.5106	-0.000467273	-1.00335e-06	1.25395e-11	-1.00337e-06	0.262089	68459.5	0.855578	68460.4

File: 18441_R297_UC61_11mm_SOC50_C01.mpt
EC-Lab ASCII FILE
Nb header lines : 65

Potentio Electrochemical Impedance Spectroscopy

Run on channel : 1 (SN 66354)
User :
CE vs. WE compliance from -10 V to 10 V
Electrode connection : standard
Potential control : Ewe
Ewe ctrl range : min = -10.00 V, max = 10.00 V
Safety Limits :
	Do not start on E overload
Acquisition started on : 10/16/2025 15:31:40.435
Technique started on : 10/16/2025 15:31:43.130
Loaded Setting File :  C:\Users\Celltest\OneDrive - store-dot.com\Documents\EC-Lab\Data\txt_done\UC80_17231_EIS_50SOC.mps
Saved on :
	File : 18441_R297_UC61_11mm_SOC50_C01.mpr
	Directory : C:\Users\Celltest\OneDrive - store-dot.com\Documents\EC-Lab\Data\Michael\
	Host : 169.254.61.224
Device : VMP-3e (SN .003165)
Address : USB
EC-LAB for windows v11.62 (software)
Internet server v27.00 (firmware)
Command interpretor v12.03 (firmware)
Electrode material :
Initial state :
Electrolyte :
Comments :
Electrode surface area : 0.001 cm²
Characteristic mass : 0.001 g
Equivalent Weight : 0.000 g/eq.
Density : 0.000 g/cm3
Volume (V) : 0.001 cm³
Record Ece
Cycle Definition : Charge/Discharge alternance
Mode                Multi sine
E (V)               0.0000
vs.                 Eoc
tE (h:m:s)          0:00:0.0000
record              0
dI                  0.000
unit dI             mA
dt (s)              0.000
fi                  1.000
unit fi             MHz
ff                  0.100
unit ff             mHz
Nd                  10
Points              per decade
spacing             Logarithmic
Va (mV)             5.0
pw                  0.10
Na                  2
corr                0
E range min (V)     -10.000
E range max (V)     10.000
I Range             Auto
Bandwidth           5
nc cycles           0
goto Ns'            0
nr cycles           0
inc. cycle          0

freq/Hz	Re(Z)/Ohm	-Im(Z)/Ohm	|Z|/Ohm	Phase(Z)/deg	time/s	<Ewe>/V	<I>/mA	Cs/µF	Cp/µF	cycle number	I Range	|Ewe|/V	|I|/A	Ns	(Q-Qo)/mA.h	<Ece>/V	|Ece|/V	Phase(Zce)/deg	|Zce|/Ohm	Re(Zce)/Ohm	-Im(Zce)/Ohm	Phase(Zwe-ce)/deg	|Zwe-ce|/Ohm	Re(Zwe-ce)/Ohm	-Im(Zwe-ce)/Ohm	Re(Y)/Ohm-1	Im(Y)/Ohm-1	|Y|/Ohm-1	Phase(Y)/deg	Re(C)/nF	Im(C)/nF	|C|/nF	Phase(C)/deg	Re(M)	Im(M)	|M|	Phase(M)/deg	Re(Permittivity)	Im(Permittivity)	|Permittivity|	Phase(Permittivity)/deg	Re(Resistivity)/Ohm.cm	Im(Resistivity)/Ohm.cm	|Resistivity|/Ohm.cm	Phase(Resistivity)/deg	Re(Conductivity)/mS/cm	Im(Conductivity)/mS/cm	|Conductivity|/mS/cm	Phase(Conductivity)/deg	Tan(Delta)	Loss Angle(Delta)/deg	dq/mA.h	Pwe/W	Pce/W	Pwe-ce/W	<Ewe-Ece>/V	Rwe/Ohm	Rce/Ohm	Rwe-ce/Ohm		Ewe-Ece/V
1.00002e+06	1.0913	-0.00180885	1.0913	0.0949687	2.69455	3.82395	-0.00183009	-87.9853	-0.000241727	1	9	0.000222505	0.000203889	0	-4.44595e-07	7.86489e-05	0.000197506	-6.67335	0.968692	0.962129	0.112571	-3.08754	2.05641	2.05343	0.110762	0.916336	-0.00151884	0.916338	-0.0949687	-0.241732	145.837	145.837	-90.095	0.0000000E+000	0.0000000E+000	0.0000000E+000	90.095	0.0000000E+000	0.0000000E+000	0.0000000E+000	-90.095	0.0000000E+000	0.0000000E+000	0.0000000E+000	0.0949687	0.0000000E+000	0.0000000E+000	0.0000000E+000	-0.0949687	603.312	89.905	-4.44595e-07	-6.99817e-06	-1.43935e-10	-6.99803e-06	3.82387	2.08948e+06	42.9754	2.08944e+06
251206	0.722098	0.226546	0.756801	-17.4184	5.00052	3.82363	-0.00916914	2.79662	0.250601	1	9	0.00196594	0.0025977	0	3.70746e-06	0.000269422	6.71096e-05	117.728	0.0258342	-0.0120199	-0.0228677	-16.005	0.738712	0.710078	0.203678	1.26076	0.395542	1.32135	17.4184	250.601	798.77	837.159	-72.5816	0.0000000E+000	0.0000000E+000	0.0000000E+000	72.5816	0.0000000E+000	0.0000000E+000	0.0000000E+000	-72.5816	0.0000000E+000	0.0000000E+000	0.0000000E+000	-17.4184	0.0000000E+000	0.0000000E+000	0.0000000E+000	17.4184	3.18742	72.5816	2.83439e-06	-3.50594e-05	-2.47037e-09	-3.50569e-05	3.82336	417011	29.3836	416981
63093.8	1.04967	0.572301	1.19555	-28.6001	7.30053	3.8236	0.0287931	4.40767	1.01	1	9	0.00533849	0.0044653	0	6.47113e-06	-7.39696e-05	2.60938e-05	77.1801	0.00584368	0.00129664	-0.00569801	-28.3302	1.19397	1.05097	0.566603	0.734375	0.400395	0.836435	28.6001	1010	1852.47	2109.92	-61.3999	0.0000000E+000	0.0000000E+000	0.0000000E+000	61.3999	0.0000000E+000	0.0000000E+000	0.0000000E+000	-61.3999	0.0000000E+000	0.0000000E+000	0.0000000E+000	-28.6001	0.0000000E+000	0.0000000E+000	0.0000000E+000	28.6001	1.83413	61.3999	-1.17088e-05	0.000110093	-2.12981e-09	0.000110095	3.82367	132796	2.56901	132798
15847.7	1.66943	1.09951	1.99898	-33.3695	9.84855	3.82361	0.0205598	9.13389	2.76336	1	9	0.00475807	0.00238025	0	6.10414e-06	0.000231267	4.03212e-06	-129.082	0.00169399	-0.00106794	0.00131495	-33.4178	1.99881	1.66836	1.10082	0.417784	0.275159	0.500256	33.3695	2763.36	4195.72	5023.97	-56.6305	0.0000000E+000	0.0000000E+000	0.0000000E+000	56.6305	0.0000000E+000	0.0000000E+000	0.0000000E+000	-56.6305	0.0000000E+000	0.0000000E+000	0.0000000E+000	-33.3695	0.0000000E+000	0.0000000E+000	0.0000000E+000	33.3695	1.51834	56.6305	2.54489e-06	7.86127e-05	4.75482e-09	7.8608e-05	3.82338	185975	11.2485	185963
3983.6	2.8373	1.87314	3.39984	-33.4321	11.7011	3.82346	-0.0569292	21.3292	6.47435	1	9	0.00471443	0.00138666	0	1.11863e-05	2.1417e-05	3.97811e-06	-139.151	0.00286884	-0.00217011	0.0018764	-33.4787	3.39907	2.83513	1.87502	0.245464	0.162051	0.294131	33.4321	6474.35	9806.91	11751.3	-56.5679	0.0000000E+000	0.0000000E+000	0.0000000E+000	56.5679	0.0000000E+000	0.0000000E+000	0.0000000E+000	-56.5679	0.0000000E+000	0.0000000E+000	0.0000000E+000	-33.4321	0.0000000E+000	0.0000000E+000	0.0000000E+000	33.4321	1.51473	56.5679	-4.01116e-06	-0.000217666	-1.21925e-09	-0.000217665	3.82343	67161.5	0.376203	67161.2
1000.32	4.94369	3.09602	5.83313	-32.0572	14.5388	3.8235	-0.0321229	51.3898	14.4771	1	10	0.00466104	0.000799063	0	-1.25241e-05	-0.000150279	3.73549e-06	8.32269	0.00467484	0.00462561	-0.000676674	-32.0275	5.83669	4.94831	3.09535	0.145294	0.0909916	0.171435	32.0572	14477.1	23116.9	27275.9	-57.9428	0.0000000E+000	0.0000000E+000	0.0000000E+000	57.9428	0.0000000E+000	0.0000000E+000	0.0000000E+000	-57.9428	0.0000000E+000	0.0000000E+000	0.0000000E+000	-32.0572	0.0000000E+000	0.0000000E+000	0.0000000E+000	32.0572	1.59679	57.9428	-3.53285e-06	-0.000122822	4.8274e-09	-0.000122827	3.82365	119027	4.67824	119032
251.044	8.66428	4.01338	9.54866	-24.854	17.2401	3.8235	-0.0308707	157.964	27.9058	1	10	0.00457397	0.000479016	0	-3.62849e-05	0.000307577	3.87526e-06	-60.4799	0.00809004	0.0039862	0.00703981	-24.8823	9.55524	8.66827	4.02042	0.0950271	0.0440175	0.104727	24.854	27905.8	60244.4	66393.7	-65.146	0.0000000E+000	0.0000000E+000	0.0000000E+000	65.146	0.0000000E+000	0.0000000E+000	0.0000000E+000	-65.146	0.0000000E+000	0.0000000E+000	0.0000000E+000	-24.854	0.0000000E+000	0.0000000E+000	0.0000000E+000	24.854	2.15885	65.146	-3.72611e-06	-0.000118034	-9.4951e-09	-0.000118025	3.82319	123855	9.96338	123845
[...]
0.0602816	16.7049	2.9482	16.9631	-10.0089	240.633	3.82354	-0.0127444	895525	27050.9	1	11	0.00502756	0.000296382	0	-0.00209738	5.95716e-05	6.01729e-07	-8.33484	0.00203025	0.0020088	0.0002943	-10.0087	16.9651	16.7069	2.9485	0.0580543	0.0102458	0.0589515	10.0089	2.70509e+07	1.53274e+08	1.55643e+08	-79.9911	0.0000000E+000	0.0000000E+000	0.0000000E+000	79.9911	0.0000000E+000	0.0000000E+000	0.0000000E+000	-79.9911	0.0000000E+000	0.0000000E+000	0.0000000E+000	-10.0089	0.0000000E+000	0.0000000E+000	0.0000000E+000	10.0089	5.66614	79.9911	0.000000000000000E+000	-4.87288e-05	-7.59205e-10	-4.87281e-05	3.82348	300017	4.67432	300012
0.00796479	23.0893	5.16608	23.6602	-12.6118	20329.5	3.82355	-0.000289683	3.86799e+06	184404	1	11	0.00502053	0.000212193	0	-0.0200995	-3.5815e-05	6.00028e-07	-23.6148	0.00282774	0.00259095	0.00113276	-12.6131	23.663	23.0919	5.16721	0.0412453	0.00922834	0.042265	12.6118	1.84404e+08	8.24176e+08	8.44554e+08	-77.3882	0.0000000E+000	0.0000000E+000	0.0000000E+000	77.3882	0.0000000E+000	0.0000000E+000	0.0000000E+000	-77.3882	0.0000000E+000	0.0000000E+000	0.0000000E+000	-12.6118	0.0000000E+000	0.0000000E+000	0.0000000E+000	12.6118	4.46941	77.3882	-0.0180021	-1.10762e-06	1.0375e-11	-1.10763e-06	3.82358	1.31991e+07	123.635	1.31992e+07
0.0019912	26.878	7.58169	27.9269	-15.7526	20329.5	3.82355	-0.000289683	1.05424e+07	777012	1	11	0.00503389	0.000180252	0	-0.0200995	-3.5815e-05	5.72749e-07	-41.2639	0.00317748	0.00238845	0.00209564	-15.7554	27.9297	26.8804	7.58379	0.034463	0.00972124	0.0358078	15.7526	7.77012e+08	2.7546e+09	2.86209e+09	-74.2474	0.0000000E+000	0.0000000E+000	0.0000000E+000	74.2474	0.0000000E+000	0.0000000E+000	0.0000000E+000	-74.2474	0.0000000E+000	0.0000000E+000	0.0000000E+000	-15.7526	0.0000000E+000	0.0000000E+000	0.0000000E+000	15.7526	3.54512	74.2474	0.000000000000000E+000	-1.10762e-06	1.0375e-11	-1.10763e-06	3.82358	1.31991e+07	123.635	1.31992e+07
0.000497799	29.0227	18.5264	34.4317	-32.5517	20329.5	3.82355	-0.000289683	1.72574e+07	4.99618e+06	1	11	0.00503538	0.000146242	0	-0.0200995	-3.5815e-05	5.72542e-07	5.64146	0.00391502	0.00389606	-0.000384859	-32.5477	34.4348	29.0266	18.526	0.0244805	0.0156269	0.029043	32.5517	4.99618e+09	7.82684e+09	9.28554e+09	-57.4483	0.0000000E+000	0.0000000E+000	0.0000000E+000	57.4483	0.0000000E+000	0.0000000E+000	0.0000000E+000	-57.4483	0.0000000E+000	0.0000000E+000	0.0000000E+000	-32.5517	0.0000000E+000	0.0000000E+000	0.0000000E+000	32.5517	1.56656	57.4483	0.000000000000000E+000	-1.10762e-06	1.0375e-11	-1.10763e-06	3.82358	1.31991e+07	123.635	1.31992e+07
9.95598e-05	38.039	92.7929	100.287	-67.7096	20329.5	3.82355	-0.000289683	1.72275e+07	1.4749e+07	1	11	0.00503364	5.01924e-05	0	-0.0200995	-3.5815e-05	1.86772e-06	-35.0813	0.0372113	0.0304515	0.0213868	-67.6982	100.318	38.0694	92.8143	0.00378215	0.00922625	0.00997138	67.7096	1.4749e+10	6.0461e+09	1.59401e+10	-22.2904	0.0000000E+000	0.0000000E+000	0.0000000E+000	22.2904	0.0000000E+000	0.0000000E+000	0.0000000E+000	-22.2904	0.0000000E+000	0.0000000E+000	0.0000000E+000	-67.7096	0.0000000E+000	0.0000000E+000	0.0000000E+000	67.7096	0.409934	22.2904	0.000000000000000E+000	-1.10762e-06	1.0375e-11	-1.10763e-06	3.82358	1.31991e+07	123.635	1.31992e+07