Folder: EIS/txt (part 163)

File: 19137_R306_UA703_SOC00_C01.mpt
EC-Lab ASCII FILE
Nb header lines : 66

Potentio Electrochemical Impedance Spectroscopy

Run on channel : 1 (SN 66354)
Grouped channel(s) : 1, 2, 3, 4, 5
User :
CE vs. WE compliance from -10 V to 10 V
Electrode connection : standard
Potential control : Ewe
Ewe ctrl range : min = -10.00 V, max = 10.00 V
Safety Limits :
	Do not start on E overload
Acquisition started on : 11/12/2025 11:20:24.450
Loaded Setting File :  C:\Users\Celltest\OneDrive - store-dot.com\Documents\EC-Lab\Data\@Biologic Test Protocols\anode half cell EIS SOC00.mps
Saved on :
	File : 19137_R306_UA703_SOC00_C01.mpr
	Directory : C:\Users\Celltest\OneDrive - store-dot.com\Documents\EC-Lab\Data\Charmaine\
	Host : 169.254.61.224
Device : VMP-3e (SN .003165)
Address : USB
EC-LAB for windows v11.62 (software)
Internet server v27.00 (firmware)
Command interpretor v12.03 (firmware)
Electrode material :
Initial state :
Electrolyte :
Comments :
Electrode surface area : 0.001 cm²
Characteristic mass : 0.001 g
Equivalent Weight : 0.000 g/eq.
Density : 0.000 g/cm3
Volume (V) : 0.001 cm³
Record Ece
Cycle Definition : Charge/Discharge alternance
Mode                Single sine
E (V)               0.0000
vs.                 Eoc
tE (h:m:s)          0:00:0.0000
record              0
dI                  0.000
unit dI             mA
dt (s)              0.000
fi                  100.000
unit fi             kHz
ff                  10.000
unit ff             mHz
Nd                  6
Points              per decade
spacing             Logarithmic
Va (mV)             5.0
pw                  0.10
Na                  2
corr                0
E range min (V)     -10.000
E range max (V)     10.000
I Range             Auto
Bandwidth           5
nc cycles           0
goto Ns'            0
nr cycles           0
inc. cycle          0

freq/Hz	Re(Z)/Ohm	-Im(Z)/Ohm	|Z|/Ohm	Phase(Z)/deg	time/s	<Ewe>/V	<I>/mA	Cs/µF	Cp/µF	cycle number	I Range	|Ewe|/V	|I|/A	Ns	(Q-Qo)/mA.h	<Ece>/V	|Ece|/V	Phase(Zce)/deg	|Zce|/Ohm	Re(Zce)/Ohm	-Im(Zce)/Ohm	Phase(Zwe-ce)/deg	|Zwe-ce|/Ohm	Re(Zwe-ce)/Ohm	-Im(Zwe-ce)/Ohm	Re(Y)/Ohm-1	Im(Y)/Ohm-1	|Y|/Ohm-1	Phase(Y)/deg	Re(C)/nF	Im(C)/nF	|C|/nF	Phase(C)/deg	Re(M)	Im(M)	|M|	Phase(M)/deg	Re(Permittivity)	Im(Permittivity)	|Permittivity|	Phase(Permittivity)/deg	Re(Resistivity)/Ohm.cm	Im(Resistivity)/Ohm.cm	|Resistivity|/Ohm.cm	Phase(Resistivity)/deg	Re(Conductivity)/mS/cm	Im(Conductivity)/mS/cm	|Conductivity|/mS/cm	Phase(Conductivity)/deg	Tan(Delta)	Loss Angle(Delta)/deg	dq/mA.h	Pwe/W	Pce/W	Pwe-ce/W	<Ewe-Ece>/V	Rwe/Ohm	Rce/Ohm	Rwe-ce/Ohm		Ewe-Ece/V
100004	1.30737	0.551154	1.4188	-22.859	1.91056	0.268015	0.0692885	2.88756	0.435746	1	9	0.00455995	0.00321394	0	8.04822e-06	0.000152383	4.32582e-05	97.2772	0.0134595	-0.00170491	-0.0133511	-22.3866	1.41209	1.30567	0.537802	0.649466	0.273797	0.70482	22.859	435.746	1033.62	1121.71	-67.141	0.0000000E+000	0.0000000E+000	0.0000000E+000	67.141	0.0000000E+000	0.0000000E+000	0.0000000E+000	-67.141	0.0000000E+000	0.0000000E+000	0.0000000E+000	-22.859	0.0000000E+000	0.0000000E+000	0.0000000E+000	22.859	2.37207	67.141	8.04822e-06	1.85704e-05	1.05584e-08	1.85598e-05	0.267863	3868.1	2.19925	3865.9
31621.1	1.80563	0.754116	1.95678	-22.6678	3.43156	0.268038	0.0764413	6.67428	0.991283	1	9	0.00513113	0.00262224	0	3.81207e-05	-3.83903e-05	1.4454e-05	35.2238	0.00551208	0.00450284	-0.00317921	-22.5312	1.95971	1.81013	0.750937	0.471569	0.19695	0.511044	22.6678	991.283	2373.49	2572.18	-67.3322	0.0000000E+000	0.0000000E+000	0.0000000E+000	67.3322	0.0000000E+000	0.0000000E+000	0.0000000E+000	-67.3322	0.0000000E+000	0.0000000E+000	0.0000000E+000	-22.6678	0.0000000E+000	0.0000000E+000	0.0000000E+000	22.6678	2.39436	67.3322	8.27518e-06	2.04892e-05	-2.93461e-09	2.04921e-05	0.268076	3506.45	0.502219	3506.96
10002.2	2.40174	0.954433	2.58444	-21.6725	4.58254	0.268037	0.0705551	16.6716	2.27372	1	9	0.00502375	0.00194385	0	5.59608e-05	0.000114228	6.81086e-06	-84.9694	0.00350381	0.000307244	0.00349031	-21.7418	2.58601	2.40205	0.957923	0.359579	0.142894	0.386931	21.6725	2273.72	5721.61	6156.83	-68.3275	0.0000000E+000	0.0000000E+000	0.0000000E+000	68.3275	0.0000000E+000	0.0000000E+000	0.0000000E+000	-68.3275	0.0000000E+000	0.0000000E+000	0.0000000E+000	-21.6725	0.0000000E+000	0.0000000E+000	0.0000000E+000	21.6725	2.51641	68.3275	6.20175e-06	1.89114e-05	8.05938e-09	1.89033e-05	0.267923	3798.98	1.61899	3797.36
3163.08	3.11649	1.33128	3.38893	-23.1309	5.47969	0.267807	0.0448496	37.7954	5.83251	1	9	0.00462664	0.00136522	0	6.90438e-05	0.000247769	4.80679e-06	-74.4821	0.00352089	0.000941973	0.00339254	-23.1774	3.39113	3.11743	1.33468	0.271357	0.115917	0.295078	23.1309	5832.51	13653.7	14847.3	-66.8691	0.0000000E+000	0.0000000E+000	0.0000000E+000	66.8691	0.0000000E+000	0.0000000E+000	0.0000000E+000	-66.8691	0.0000000E+000	0.0000000E+000	0.0000000E+000	-23.1309	0.0000000E+000	0.0000000E+000	0.0000000E+000	23.1309	2.34097	66.8691	4.72439e-06	1.2011e-05	1.11124e-08	1.19999e-05	0.267559	5971.22	5.52445	5965.69
1000.32	4.07765	2.02096	4.55099	-26.3639	7.0778	0.267939	-0.0103911	78.7268	15.5249	1	10	0.00465389	0.00102261	0	7.65594e-05	0.000305001	5.26362e-06	-56.8196	0.00514724	0.00281696	0.00430799	-26.3967	4.55543	4.08047	2.02527	0.196878	0.0975768	0.219732	26.3639	15524.9	31324.1	34960.3	-63.6361	0.0000000E+000	0.0000000E+000	0.0000000E+000	63.6361	0.0000000E+000	0.0000000E+000	0.0000000E+000	-63.6361	0.0000000E+000	0.0000000E+000	0.0000000E+000	-26.3639	0.0000000E+000	0.0000000E+000	0.0000000E+000	26.3639	2.01768	63.6361	-8.13545e-07	-2.7842e-06	-3.16931e-09	-2.78103e-06	0.267634	25785.3	29.352	25756
316.316	5.55714	3.56102	6.60021	-32.6518	8.42709	0.267932	-0.0117142	141.294	41.13	1	10	0.00458236	0.000694276	0	7.32607e-05	0.000114228	6.95471e-06	57.616	0.0100172	0.00536512	-0.00845932	-32.5648	6.60017	5.56251	3.55256	0.127566	0.0817447	0.15151	32.6518	41130	64185.3	76232.8	-57.3482	0.0000000E+000	0.0000000E+000	0.0000000E+000	57.3482	0.0000000E+000	0.0000000E+000	0.0000000E+000	-57.3482	0.0000000E+000	0.0000000E+000	0.0000000E+000	-32.6518	0.0000000E+000	0.0000000E+000	0.0000000E+000	32.6518	1.56055	57.3482	-1.27221e-06	-3.13862e-06	-1.33809e-09	-3.13728e-06	0.267818	22872.4	9.75124	22862.7
100.032	9.1017	6.05075	10.9294	-33.6157	9.77277	0.267932	-0.01098	262.949	80.5926	1	10	0.00456012	0.000417233	0	6.84595e-05	0.000133305	8.46483e-06	-64.4073	0.020288	0.00876382	0.0182975	-33.67	10.9469	9.11046	6.06905	0.0761951	0.050654	0.091496	33.6157	80592.5	121230	145574	-56.3843	0.0000000E+000	0.0000000E+000	0.0000000E+000	56.3843	0.0000000E+000	0.0000000E+000	0.0000000E+000	-56.3843	0.0000000E+000	0.0000000E+000	0.0000000E+000	-33.6157	0.0000000E+000	0.0000000E+000	0.0000000E+000	33.6157	1.50423	56.3843	-7.76069e-07	-2.9419e-06	-1.4637e-09	-2.94043e-06	0.267798	24401.8	12.1407	24389.6
[...]
0.316193	27.6309	2.57124	27.7503	-5.31645	34.1628	0.267998	0.00101034	195760	1680.64	1	12	0.00456592	0.000164536	0	5.99925e-05	-0.000191009	2.46712e-06	-49.0628	0.0149944	0.00982481	0.0113272	-5.33785	27.7611	27.6407	2.58257	0.0358806	0.00333893	0.0360357	5.31645	1.68064e+06	1.80604e+07	1.81385e+07	-84.6836	0.0000000E+000	0.0000000E+000	0.0000000E+000	84.6836	0.0000000E+000	0.0000000E+000	0.0000000E+000	-84.6836	0.0000000E+000	0.0000000E+000	0.0000000E+000	-5.31645	0.0000000E+000	0.0000000E+000	0.0000000E+000	5.31645	10.7461	84.6836	-1.16846e-05	2.7077e-07	-1.92985e-10	2.70963e-07	0.268189	265254	189.053	265443
0.0999041	29.0761	3.87629	29.3333	-7.59364	79.3704	0.267998	-0.00126859	410980	7176.8	1	12	0.00456657	0.000155679	0	1.65592e-05	5.69962e-05	1.42038e-06	-23.3367	0.00912379	0.0083774	0.00361424	-7.59847	29.3421	29.0845	3.87991	0.0337919	0.00450499	0.0340909	7.59364	7.1768e+06	5.38332e+07	5.43095e+07	-82.4064	0.0000000E+000	0.0000000E+000	0.0000000E+000	82.4064	0.0000000E+000	0.0000000E+000	0.0000000E+000	-82.4064	0.0000000E+000	0.0000000E+000	0.0000000E+000	-7.59364	0.0000000E+000	0.0000000E+000	0.0000000E+000	7.59364	7.501	82.4064	-5.25774e-06	-3.3998e-07	-7.23051e-11	-3.39908e-07	0.267941	211256	44.9287	211211
0.0315922	31.4817	7.61042	32.3886	-13.59	222.253	0.267999	7.13689e-05	661960	36548.2	1	12	0.00456541	0.000140958	0	0.000227336	-7.65449e-05	2.57815e-06	-8.726	0.0182903	0.0180785	0.0027748	-13.5873	32.4068	31.4998	7.61319	0.0300107	0.0072548	0.0308751	13.59	3.65482e+07	1.51187e+08	1.55542e+08	-76.41	0.0000000E+000	0.0000000E+000	0.0000000E+000	76.41	0.0000000E+000	0.0000000E+000	0.0000000E+000	-76.41	0.0000000E+000	0.0000000E+000	0.0000000E+000	-13.59	0.0000000E+000	0.0000000E+000	0.0000000E+000	13.59	4.13666	76.41	0.00011421	1.91268e-08	-5.46292e-12	1.91323e-08	0.268076	3.75513e+06	1072.53	3.7562e+06
0.0146812	34.3104	13.1991	36.7616	-21.0416	463.293	0.267996	0.000812007	821326	105880	1	12	0.00456374	0.000124144	0	0.000277624	0.000114228	2.69718e-06	46.4748	0.0217262	0.0149622	-0.015753	-21.0103	36.7699	34.3253	13.1833	0.0253884	0.00976685	0.0272023	21.0416	1.0588e+08	2.7523e+08	2.94893e+08	-68.9584	0.0000000E+000	0.0000000E+000	0.0000000E+000	68.9584	0.0000000E+000	0.0000000E+000	0.0000000E+000	-68.9584	0.0000000E+000	0.0000000E+000	0.0000000E+000	-21.0416	0.0000000E+000	0.0000000E+000	0.0000000E+000	21.0416	2.59945	68.9584	-3.8675e-05	2.17615e-07	9.27541e-11	2.17522e-07	0.267882	330041	140.674	329900

0.0100092	36.0848	17.0953	39.9295	-25.3494	673.475	0.267992	0.000472533	930134	170495	1	12	0.0045661	0.000114354	0	2.2495e-05	0.000190537	3.07892e-06	14.0834	0.0269245	0.0261152	-0.00655163	-25.3249	39.9503	36.1109	17.0887	0.0226327	0.0107223	0.0250442	25.3494	1.70495e+08	3.59881e+08	3.98225e+08	-64.6506	0.0000000E+000	0.0000000E+000	0.0000000E+000	64.6506	0.0000000E+000	0.0000000E+000	0.0000000E+000	-64.6506	0.0000000E+000	0.0000000E+000	0.0000000E+000	-25.3494	0.0000000E+000	0.0000000E+000	0.0000000E+000	25.3494	2.1108	64.6506	-0.000255129	1.26635e-07	9.00352e-11	1.26545e-07	0.267801	567139	403.226	566736

File: 19138_R306_UA703_SOC00_C02.mpt
EC-Lab ASCII FILE
Nb header lines : 65

Potentio Electrochemical Impedance Spectroscopy

Run on channel : 2 (SN 66139)
Grouped channel(s) : 1, 2, 3, 4, 5
User :
CE vs. WE compliance from -10 V to 10 V
Electrode connection : standard
Potential control : Ewe
Ewe ctrl range : min = -10.00 V, max = 10.00 V
Safety Limits :
	Do not start on E overload
Acquisition started on : 11/12/2025 11:20:24.450
Loaded Setting File :  C:\Users\Celltest\OneDrive - store-dot.com\Documents\EC-Lab\Data\@Biologic Test Protocols\anode half cell EIS SOC00.mps
Saved on :
	File : 19137_R306_UA703_SOC00_C02.mpr
	Directory : C:\Users\Celltest\OneDrive - store-dot.com\Documents\EC-Lab\Data\Charmaine\
	Host : 169.254.61.224
Device : VMP-3e (SN .003165)
Address : USB
EC-LAB for windows v11.62 (software)
Internet server v27.00 (firmware)
Command interpretor v12.03 (firmware)
Electrode material :
Initial state :
Electrolyte :
Comments :
Electrode surface area : 0.001 cm²
Characteristic mass : 0.001 g
Equivalent Weight : 0.000 g/eq.
Density : 0.000 g/cm3
Volume (V) : 0.001 cm³
Record Ece
Cycle Definition : Charge/Discharge alternance
Mode                Single sine
E (V)               0.0000
vs.                 Eoc
tE (h:m:s)          0:00:0.0000
record              0
dI                  0.000
unit dI             mA
dt (s)              0.000
fi                  100.000
unit fi             kHz
ff                  10.000
unit ff             mHz
Nd                  6
Points              per decade
spacing             Logarithmic
Va (mV)             5.0
pw                  0.10
Na                  2
corr                0
E range min (V)     -10.000
E range max (V)     10.000
I Range             Auto
Bandwidth           5
nc cycles           0
goto Ns'            0
nr cycles           0
inc. cycle          0

freq/Hz	Re(Z)/Ohm	-Im(Z)/Ohm	|Z|/Ohm	Phase(Z)/deg	time/s	<Ewe>/V	<I>/mA	Cs/µF	Cp/µF	cycle number	I Range	|Ewe|/V	|I|/A	Ns	(Q-Qo)/mA.h	<Ece>/V	|Ece|/V	Phase(Zce)/deg	|Zce|/Ohm	Re(Zce)/Ohm	-Im(Zce)/Ohm	Phase(Zwe-ce)/deg	|Zwe-ce|/Ohm	Re(Zwe-ce)/Ohm	-Im(Zwe-ce)/Ohm	Re(Y)/Ohm-1	Im(Y)/Ohm-1	|Y|/Ohm-1	Phase(Y)/deg	Re(C)/nF	Im(C)/nF	|C|/nF	Phase(C)/deg	Re(M)	Im(M)	|M|	Phase(M)/deg	Re(Permittivity)	Im(Permittivity)	|Permittivity|	Phase(Permittivity)/deg	Re(Resistivity)/Ohm.cm	Im(Resistivity)/Ohm.cm	|Resistivity|/Ohm.cm	Phase(Resistivity)/deg	Re(Conductivity)/mS/cm	Im(Conductivity)/mS/cm	|Conductivity|/mS/cm	Phase(Conductivity)/deg	Tan(Delta)	Loss Angle(Delta)/deg	dq/mA.h	Pwe/W	Pce/W	Pwe-ce/W	<Ewe-Ece>/V	Rwe/Ohm	Rce/Ohm	Rwe-ce/Ohm		Ewe-Ece/V
100004	1.10476	0.480021	1.20454	-23.485	1.72656	0.269558	-0.0203712	3.31546	0.526528	1	9	0.00476265	0.00395392	0	-1.1092e-05	-6.01755e-05	2.11114e-05	90.523	0.00533935	-4.87408e-05	-0.00533913	-23.2526	1.20238	1.10471	0.474681	0.761423	0.33084	0.830193	23.485	526.528	1211.8	1321.24	-66.515	0.0000000E+000	0.0000000E+000	0.0000000E+000	66.515	0.0000000E+000	0.0000000E+000	0.0000000E+000	-66.515	0.0000000E+000	0.0000000E+000	0.0000000E+000	-23.485	0.0000000E+000	0.0000000E+000	0.0000000E+000	23.485	2.30149	66.515	-1.1092e-05	-5.49123e-06	1.22585e-09	-5.49246e-06	0.269619	13232.3	2.95395	13235.3
31621.1	1.54409	0.657202	1.67814	-23.0557	3.24754	0.269567	-0.0142629	7.6585	1.17459	1	9	0.00514335	0.00306492	0	-9.16962e-06	0.00028346	1.2638e-05	45.4495	0.00412342	0.00289274	-0.00293848	-22.9248	1.67965	1.54699	0.654264	0.548301	0.23337	0.595899	23.0557	1174.59	2759.7	2999.27	-66.9443	0.0000000E+000	0.0000000E+000	0.0000000E+000	66.9443	0.0000000E+000	0.0000000E+000	0.0000000E+000	-66.9443	0.0000000E+000	0.0000000E+000	0.0000000E+000	-23.0557	0.0000000E+000	0.0000000E+000	0.0000000E+000	23.0557	2.3495	66.9443	-8.60207e-06	-3.8448e-06	-4.04295e-09	-3.84076e-06	0.269283	18899.9	19.8739	18880
10002.2	2.05503	0.842799	2.22114	-22.2993	4.39652	0.269536	-0.0283791	18.8799	2.71829	1	9	0.00483304	0.00217593	0	-1.18123e-05	0.000188005	7.80471e-06	-72.224	0.00358684	0.00109505	0.0034156	-22.37	2.22345	2.05613	0.846214	0.41655	0.170833	0.450219	22.2993	2718.29	6628.12	7163.87	-67.7007	0.0000000E+000	0.0000000E+000	0.0000000E+000	67.7007	0.0000000E+000	0.0000000E+000	0.0000000E+000	-67.7007	0.0000000E+000	0.0000000E+000	0.0000000E+000	-22.2993	0.0000000E+000	0.0000000E+000	0.0000000E+000	22.2993	2.43834	67.7007	-1.33937e-06	-7.6492e-06	-5.33543e-09	-7.64386e-06	0.269348	9497.7	6.62478	9491.07
3163.08	2.69303	1.19561	2.9465	-23.9395	5.41862	0.269303	-0.084248	42.0844	6.92923	1	9	0.00488404	0.00165757	0	-2.31697e-05	-2.90295e-06	6.67844e-06	29.9238	0.00402905	0.00349194	-0.00200988	-23.8763	2.94888	2.69652	1.1936	0.310189	0.137713	0.339385	23.9395	6929.23	15607.6	17076.7	-66.0605	0.0000000E+000	0.0000000E+000	0.0000000E+000	66.0605	0.0000000E+000	0.0000000E+000	0.0000000E+000	-66.0605	0.0000000E+000	0.0000000E+000	0.0000000E+000	-23.9395	0.0000000E+000	0.0000000E+000	0.0000000E+000	23.9395	2.25243	66.0605	-7.52415e-06	-2.26882e-05	2.44567e-10	-2.26885e-05	0.269306	3196.55	0.0344572	3196.59
1000.32	3.51159	1.84358	3.96611	-27.6994	7.01885	0.269485	-0.0320068	86.3018	18.6472	1	10	0.00489697	0.0012347	0	-2.20481e-05	0.000130733	8.06362e-06	-73.7565	0.00653081	0.0018268	0.00627011	-27.7673	3.97064	3.51341	1.84985	0.223241	0.117201	0.252136	27.6994	18647.2	35518.6	40115.9	-62.3006	0.0000000E+000	0.0000000E+000	0.0000000E+000	62.3006	0.0000000E+000	0.0000000E+000	0.0000000E+000	-62.3006	0.0000000E+000	0.0000000E+000	0.0000000E+000	-27.6994	0.0000000E+000	0.0000000E+000	0.0000000E+000	27.6994	1.90477	62.3006	-4.65516e-06	-8.62534e-06	-4.18435e-09	-8.62116e-06	0.269354	8419.6	4.08453	8415.51
316.316	4.92152	3.32142	5.93744	-34.0145	8.36905	0.269492	-0.0330871	151.487	47.405	1	10	0.00481568	0.00081107	0	-3.43571e-05	0.000264369	3.87675e-06	-61.6454	0.0047798	0.00227006	0.00420635	-34.0359	5.94168	4.92379	3.32563	0.139605	0.0942162	0.168423	34.0145	47405.1	70242.4	84742.2	-55.9855	0.0000000E+000	0.0000000E+000	0.0000000E+000	55.9855	0.0000000E+000	0.0000000E+000	0.0000000E+000	-55.9855	0.0000000E+000	0.0000000E+000	0.0000000E+000	-34.0145	0.0000000E+000	0.0000000E+000	0.0000000E+000	34.0145	1.48175	55.9855	-4.36478e-06	-8.91671e-06	-8.74721e-09	-8.90796e-06	0.269227	8144.9	7.99008	8136.91
100.032	8.38273	5.56279	10.0606	-33.5683	9.71679	0.269475	-0.032886	286.015	87.444	1	10	0.00480094	0.000477205	0	-4.6795e-05	-4.10846e-05	6.40635e-06	-14.6573	0.0134247	0.0129878	0.00339696	-33.5436	10.0733	8.39571	5.56618	0.0828212	0.0549603	0.0993981	33.5683	87444	131772	158146	-56.4317	0.0000000E+000	0.0000000E+000	0.0000000E+000	56.4317	0.0000000E+000	0.0000000E+000	0.0000000E+000	-56.4317	0.0000000E+000	0.0000000E+000	0.0000000E+000	-33.5683	0.0000000E+000	0.0000000E+000	0.0000000E+000	33.5683	1.50693	56.4317	-3.69711e-06	-8.86197e-06	1.35111e-09	-8.86332e-06	0.269516	8194.23	1.24931	8195.48
[...]
1.00006	22.4803	2.24217	22.5918	-5.6958	19.7676	0.269537	-0.0103628	70978.1	699.13	1	12	0.00478949	0.000212001	0	-9.2237e-05	0.000188005	1.79192e-06	-11.3276	0.0084524	0.00828775	0.00166021	-5.69791	22.6002	22.4886	2.24383	0.0440453	0.00439305	0.0442638	5.6958	699130	7.00958e+06	7.04436e+06	-84.3042	0.0000000E+000	0.0000000E+000	0.0000000E+000	84.3042	0.0000000E+000	0.0000000E+000	0.0000000E+000	-84.3042	0.0000000E+000	0.0000000E+000	0.0000000E+000	-5.6958	0.0000000E+000	0.0000000E+000	0.0000000E+000	5.6958	10.0261	84.3042	-1.533e-05	-2.79317e-06	-1.94827e-09	-2.79123e-06	0.269349	26010	18.1423	25991.8
0.316193	23.5831	2.24173	23.6894	-5.43003	34.1121	0.269534	-0.00936991	224535	2010.68	1	12	0.00478877	0.000202148	0	-0.000141831	0.000111642	2.21961e-06	-48.4304	0.0109801	0.00728563	0.00821479	-5.44813	23.6974	23.5904	2.24995	0.0420235	0.00399461	0.0422129	5.43003	2.01068e+06	2.11524e+07	2.12478e+07	-84.57	0.0000000E+000	0.0000000E+000	0.0000000E+000	84.57	0.0000000E+000	0.0000000E+000	0.0000000E+000	-84.57	0.0000000E+000	0.0000000E+000	0.0000000E+000	-5.43003	0.0000000E+000	0.0000000E+000	0.0000000E+000	5.43003	10.52	84.57	-1.34249e-05	-2.52551e-06	-1.04608e-09	-2.52446e-06	0.269422	28765.9	11.915	28754
0.0999041	24.8573	3.61724	25.1191	-8.27957	79.3213	0.269535	-0.00400118	440412	9132.81	1	12	0.00478966	0.000190678	0	-0.000120695	0.000302551	1.33182e-06	-31.0996	0.00698465	0.00598075	0.00360777	-8.28575	25.1256	24.8633	3.62085	0.0393953	0.00573281	0.0398103	8.27957	9.13282e+06	6.27598e+07	6.34208e+07	-81.7204	0.0000000E+000	0.0000000E+000	0.0000000E+000	81.7204	0.0000000E+000	0.0000000E+000	0.0000000E+000	-81.7204	0.0000000E+000	0.0000000E+000	0.0000000E+000	-8.27957	0.0000000E+000	0.0000000E+000	0.0000000E+000	8.27957	6.8719	81.7204	1.34885e-05	-1.07846e-06	-1.21056e-09	-1.07725e-06	0.269233	67364	75.6154	67288.4
0.0315922	27.227	7.42605	28.2216	-15.2561	222.205	0.269524	-0.000355583	678394	46971.7	1	12	0.00478999	0.000169728	0	-0.00033314	0.000168915	9.62249e-07	-6.68511	0.00566936	0.00563082	0.000659985	-15.2544	28.2272	27.2327	7.42671	0.0341852	0.00932386	0.0354339	15.2561	4.69717e+07	1.72218e+08	1.78509e+08	-74.7439	0.0000000E+000	0.0000000E+000	0.0000000E+000	74.7439	0.0000000E+000	0.0000000E+000	0.0000000E+000	-74.7439	0.0000000E+000	0.0000000E+000	0.0000000E+000	-15.2561	0.0000000E+000	0.0000000E+000	0.0000000E+000	15.2561	3.66642	74.7439	-0.000149898	-9.58381e-08	-6.00632e-11	-9.5778e-08	0.269355	757976	475.035	757501
0.0100092	31.9919	16.5652	36.0262	-27.3749	673.428	0.269529	-0.00106718	959896	202947	1	12	0.00478855	0.000132918	0	-0.000760295	-7.92663e-05	1.43128e-06	2.17664	0.0107681	0.0107603	-0.000408977	-27.3665	36.0356	32.0026	16.5648	0.0246492	0.0127632	0.0277576	27.3749	2.02947e+08	3.91945e+08	4.41371e+08	-62.6251	0.0000000E+000	0.0000000E+000	0.0000000E+000	62.6251	0.0000000E+000	0.0000000E+000	0.0000000E+000	-62.6251	0.0000000E+000	0.0000000E+000	0.0000000E+000	-27.3749	0.0000000E+000	0.0000000E+000	0.0000000E+000	27.3749	1.93127	62.6251	1.60006e-06	-2.87635e-07	8.45911e-11	-2.8772e-07	0.269609	252563	74.2767	252637