Folder: EIS/txt (part 47)

File: 17609_R291_UC85_SOC50_C05.mpt
EC-Lab ASCII FILE
Nb header lines : 64

Potentio Electrochemical Impedance Spectroscopy

Run on channel : 5 (SN 65912)
User :
CE vs. WE compliance from -10 V to 10 V
Electrode connection : standard
Potential control : Ewe
Ewe ctrl range : min = -10.00 V, max = 10.00 V
Safety Limits :
	Do not start on E overload
Acquisition started on : 09/17/2025 17:34:13.692
Loaded Setting File :  C:\Users\Celltest\OneDrive - store-dot.com\Documents\EC-Lab\Data\Michael\R290\17544_R290_UC82_50SOC.mps
Saved on :
	File : 17609_R291_UC85_SOC50_C05.mpr
	Directory : C:\Users\Celltest\OneDrive - store-dot.com\Documents\EC-Lab\Data\Gyutae\
	Host : 169.254.61.224
Device : VMP-3e (SN .003165)
Address : USB
EC-LAB for windows v11.62 (software)
Internet server v27.00 (firmware)
Command interpretor v12.03 (firmware)
Electrode material :
Initial state :
Electrolyte :
Comments :
Electrode surface area : 0.001 cm²
Characteristic mass : 0.001 g
Equivalent Weight : 0.000 g/eq.
Density : 0.000 g/cm3
Volume (V) : 0.001 cm³
Record Ece
Cycle Definition : Charge/Discharge alternance
Mode                Multi sine
E (V)               0.0000
vs.                 Eoc
tE (h:m:s)          0:00:0.0000
record              0
dI                  0.000
unit dI             mA
dt (s)              0.000
fi                  1.000
unit fi             MHz
ff                  0.100
unit ff             mHz
Nd                  10
Points              per decade
spacing             Logarithmic
Va (mV)             5.0
pw                  0.10
Na                  2
corr                0
E range min (V)     -10.000
E range max (V)     10.000
I Range             Auto
Bandwidth           5
nc cycles           0
goto Ns'            0
nr cycles           0
inc. cycle          0

freq/Hz	Re(Z)/Ohm	-Im(Z)/Ohm	|Z|/Ohm	Phase(Z)/deg	time/s	<Ewe>/V	<I>/mA	Cs/µF	Cp/µF	cycle number	I Range	|Ewe|/V	|I|/A	Ns	(Q-Qo)/mA.h	<Ece>/V	|Ece|/V	Phase(Zce)/deg	|Zce|/Ohm	Re(Zce)/Ohm	-Im(Zce)/Ohm	Phase(Zwe-ce)/deg	|Zwe-ce|/Ohm	Re(Zwe-ce)/Ohm	-Im(Zwe-ce)/Ohm	Re(Y)/Ohm-1	Im(Y)/Ohm-1	|Y|/Ohm-1	Phase(Y)/deg	Re(C)/nF	Im(C)/nF	|C|/nF	Phase(C)/deg	Re(M)	Im(M)	|M|	Phase(M)/deg	Re(Permittivity)	Im(Permittivity)	|Permittivity|	Phase(Permittivity)/deg	Re(Resistivity)/Ohm.cm	Im(Resistivity)/Ohm.cm	|Resistivity|/Ohm.cm	Phase(Resistivity)/deg	Re(Conductivity)/mS/cm	Im(Conductivity)/mS/cm	|Conductivity|/mS/cm	Phase(Conductivity)/deg	Tan(Delta)	Loss Angle(Delta)/deg	dq/mA.h	Pwe/W	Pce/W	Pwe-ce/W	<Ewe-Ece>/V	Rwe/Ohm	Rce/Ohm	Rwe-ce/Ohm		Ewe-Ece/V
1.00002e+06	0.961447	-0.257492	0.99533	14.9929	2.69355	3.78524	0.185321	-0.618086	-0.0413658	1	9	0.000217387	0.000218407	0	2.82963e-05	-0.000192374	0.000186836	5.13703	0.855448	0.852013	-0.0765952	10.4383	1.84398	1.81346	-0.334087	0.97049	-0.259914	1.00469	-14.9929	-41.3658	154.455	159.899	-104.993	0.0000000E+000	0.0000000E+000	0.0000000E+000	104.993	0.0000000E+000	0.0000000E+000	0.0000000E+000	-104.993	0.0000000E+000	0.0000000E+000	0.0000000E+000	14.9929	0.0000000E+000	0.0000000E+000	0.0000000E+000	-14.9929	3.73389	75.0071	2.82963e-05	0.000701483	-3.56509e-08	0.000701519	3.78543	20425.3	1.03806	20426.3
251206	0.87686	0.318565	0.932935	-19.9662	4.99155	3.78364	-0.0448955	1.9888	0.231892	1	9	0.00232682	0.00249409	0	2.19249e-05	-0.000249648	6.3024e-05	90.8263	0.0252694	-0.000364398	-0.0252667	-18.5016	0.924266	0.876495	0.293298	1.00746	0.366012	1.07189	19.9662	231.892	638.289	679.108	-70.0338	0.0000000E+000	0.0000000E+000	0.0000000E+000	70.0338	0.0000000E+000	0.0000000E+000	0.0000000E+000	-70.0338	0.0000000E+000	0.0000000E+000	0.0000000E+000	-19.9662	0.0000000E+000	0.0000000E+000	0.0000000E+000	19.9662	2.75253	70.0338	-7.31325e-06	-0.000169868	1.12081e-08	-0.000169879	3.78389	84276.6	5.56064	84282.1
63093.8	1.4382	0.746785	1.62053	-27.4405	7.28953	3.78339	-0.0574081	3.37783	0.717323	1	9	0.00528076	0.00325866	0	-2.05283e-05	-0.000345104	1.64286e-05	52.1254	0.00504152	0.00309517	-0.00397956	-27.2653	1.62145	1.4413	0.742806	0.547654	0.284368	0.617082	27.4405	717.323	1381.46	1556.6	-62.5595	0.0000000E+000	0.0000000E+000	0.0000000E+000	62.5595	0.0000000E+000	0.0000000E+000	0.0000000E+000	-62.5595	0.0000000E+000	0.0000000E+000	0.0000000E+000	-27.4405	0.0000000E+000	0.0000000E+000	0.0000000E+000	27.4405	1.92586	62.5595	-8.07974e-06	-0.000217197	1.98117e-08	-0.000217217	3.78374	65903.5	6.01142	65909.5
15847.7	2.24812	0.715944	2.35937	-17.6648	9.58755	3.78339	-0.0562909	14.0273	1.29164	1	9	0.00515802	0.00218619	0	-5.80027e-05	9.39943e-05	4.65644e-05	-84.0422	0.0212994	0.00221077	0.0211843	-18.137	2.36798	2.25033	0.737128	0.403858	0.128614	0.423843	17.6648	1291.64	4055.86	4256.56	-72.3352	0.0000000E+000	0.0000000E+000	0.0000000E+000	72.3352	0.0000000E+000	0.0000000E+000	0.0000000E+000	-72.3352	0.0000000E+000	0.0000000E+000	0.0000000E+000	-17.6648	0.0000000E+000	0.0000000E+000	0.0000000E+000	17.6648	3.14008	72.3352	-5.49381e-06	-0.00021297	-5.29102e-09	-0.000212965	3.78329	67211.4	1.6698	67209.7
3983.6	2.73779	0.742349	2.83665	-15.1709	11.682	3.78335	-0.0424377	53.8191	3.68587	1	9	0.00522796	0.001843	0	-9.16101e-05	-5.87355e-05	9.00426e-06	-20.9062	0.00488564	0.004564	0.00174338	-15.1807	2.84151	2.74236	0.744092	0.340243	0.0922563	0.352528	15.1709	3685.87	13593.5	14084.4	-74.8291	0.0000000E+000	0.0000000E+000	0.0000000E+000	74.8291	0.0000000E+000	0.0000000E+000	0.0000000E+000	-74.8291	0.0000000E+000	0.0000000E+000	0.0000000E+000	-15.1709	0.0000000E+000	0.0000000E+000	0.0000000E+000	15.1709	3.68801	74.8291	-2.64109e-06	-0.000160557	2.4926e-09	-0.000160559	3.78341	89150.7	1.38404	89152.1
1000.32	3.4389	1.15855	3.62881	-18.6184	14.5568	3.78336	-0.0488496	137.331	13.998	1	10	0.00527154	0.00145269	0	-0.000129708	0.000151268	5.22046e-06	39.4442	0.00359365	0.00277517	-0.00228314	-18.5702	3.63071	3.44168	1.15626	0.261151	0.0879801	0.275572	18.6184	13998	41550.1	43844.7	-71.3816	0.0000000E+000	0.0000000E+000	0.0000000E+000	71.3816	0.0000000E+000	0.0000000E+000	0.0000000E+000	-71.3816	0.0000000E+000	0.0000000E+000	0.0000000E+000	-18.6184	0.0000000E+000	0.0000000E+000	0.0000000E+000	18.6184	2.96829	71.3816	-7.19226e-06	-0.000184815	-7.38937e-09	-0.000184808	3.78321	77449.2	3.09661	77446.1
251.044	4.89876	1.45737	5.11095	-16.5676	17.2581	3.78337	-0.0476394	435.011	35.3701	1	10	0.00514841	0.00100733	0	-0.000164576	-9.69179e-05	7.70181e-06	139.32	0.00764576	-0.00579829	-0.00498373	-16.5325	5.10397	4.89297	1.45239	0.187535	0.0557913	0.195658	16.5676	35370.1	118892	124042	-73.4324	0.0000000E+000	0.0000000E+000	0.0000000E+000	73.4324	0.0000000E+000	0.0000000E+000	0.0000000E+000	-73.4324	0.0000000E+000	0.0000000E+000	0.0000000E+000	-16.5676	0.0000000E+000	0.0000000E+000	0.0000000E+000	16.5676	3.36137	73.4324	-6.44972e-06	-0.000180238	4.61711e-09	-0.000180242	3.78347	79416.8	2.0344	79418.8
63.0823	6.11874	0.840936	6.17626	-7.82549	19.9789	3.78336	-0.0453235	3000.2	55.6193	1	10	0.00511853	0.000828743	0	-0.000200228	-0.000249648	1.00512e-05	-77.6538	0.0121283	0.00259325	0.0118478	-7.93103	6.18045	6.12133	0.852784	0.160403	0.0220451	0.16191	7.82549	55619.3	404691	408496	-82.1745	0.0000000E+000	0.0000000E+000	0.0000000E+000	82.1745	0.0000000E+000	0.0000000E+000	0.0000000E+000	-82.1745	0.0000000E+000	0.0000000E+000	0.0000000E+000	-7.82549	0.0000000E+000	0.0000000E+000	0.0000000E+000	7.82549	7.2761	82.1745	-5.33527e-06	-0.000171475	1.13149e-08	-0.000171487	3.78361	83474.7	5.50813	83480.2
[...]
0.0602816	7.59596	1.205	7.69094	-9.01412	240.81	3.78337	-0.0232863	2.19103e+06	53785.3	1	11	0.00509469	0.000662428	0	-0.00458764	0.000265815	4.55745e-07	5.98944	0.000687992	0.000684236	-7.17886e-05	-9.0128	7.69161	7.59664	1.20493	0.128417	0.0203717	0.130023	9.01412	5.37853e+07	3.39046e+08	3.43286e+08	-80.9859	0.0000000E+000	0.0000000E+000	0.0000000E+000	80.9859	0.0000000E+000	0.0000000E+000	0.0000000E+000	-80.9859	0.0000000E+000	0.0000000E+000	0.0000000E+000	-9.01412	0.0000000E+000	0.0000000E+000	0.0000000E+000	9.01412	6.30369	80.9859	0.000000000000000E+000	-8.81005e-05	-6.18984e-09	-8.80943e-05	3.7831	162472	11.4151	162461
0.00796479	10.7179	2.45308	10.9951	-12.8916	20329.7	3.78337	0.000393688	8.1458e+06	405473	1	11	0.00508764	0.000462719	0	-0.0285945	-3.96442e-05	2.16619e-07	-118.022	0.000468144	-0.00021994	0.000413262	-12.894	10.995	10.7177	2.4535	0.0886573	0.0202916	0.0909498	12.8916	4.05473e+08	1.77158e+09	1.81739e+09	-77.1084	0.0000000E+000	0.0000000E+000	0.0000000E+000	77.1084	0.0000000E+000	0.0000000E+000	0.0000000E+000	-77.1084	0.0000000E+000	0.0000000E+000	0.0000000E+000	-12.8916	0.0000000E+000	0.0000000E+000	0.0000000E+000	12.8916	4.36917	77.1084	-0.0240069	1.48947e-06	-1.56075e-11	1.48948e-06	3.78341	9.61006e+06	100.7	9.61016e+06
0.0019912	12.6028	3.33259	13.0359	-14.8119	20329.7	3.78337	0.000393688	2.39842e+07	1.56748e+06	1	11	0.00510074	0.000391283	0	-0.0285945	-3.96442e-05	7.87398e-07	-31.0895	0.00201235	0.0017233	0.00103913	-14.8143	13.0379	12.6045	3.33363	0.0741619	0.0196108	0.076711	14.8119	1.56748e+09	5.92771e+09	6.13146e+09	-75.1881	0.0000000E+000	0.0000000E+000	0.0000000E+000	75.1881	0.0000000E+000	0.0000000E+000	0.0000000E+000	-75.1881	0.0000000E+000	0.0000000E+000	0.0000000E+000	-14.8119	0.0000000E+000	0.0000000E+000	0.0000000E+000	14.8119	3.78168	75.1881	0.000000000000000E+000	1.48947e-06	-1.56075e-11	1.48948e-06	3.78341	9.61006e+06	100.7	9.61016e+06
0.000497799	13.1486	7.26629	15.0228	-28.9263	20329.7	3.78337	0.000393688	4.40001e+07	1.02939e+07	1	11	0.00510029	0.000339504	0	-0.0285945	-3.96442e-05	4.75996e-07	53.9725	0.00140203	0.000824639	-0.00113387	-28.921	15.0229	13.1494	7.26515	0.058261	0.0321968	0.0665656	28.9263	1.02939e+10	1.86271e+10	2.12822e+10	-61.0737	0.0000000E+000	0.0000000E+000	0.0000000E+000	61.0737	0.0000000E+000	0.0000000E+000	0.0000000E+000	-61.0737	0.0000000E+000	0.0000000E+000	0.0000000E+000	-28.9263	0.0000000E+000	0.0000000E+000	0.0000000E+000	28.9263	1.80953	61.0737	0.000000000000000E+000	1.48947e-06	-1.56075e-11	1.48948e-06	3.78341	9.61006e+06	100.7	9.61016e+06
9.95598e-05	15.8528	36.6879	39.9664	-66.6308	20329.7	3.78337	0.000393688	4.35725e+07	3.67171e+07	1	11	0.00510066	0.000127624	0	-0.0285945	-3.96442e-05	6.22236e-07	79.9347	0.00487555	0.000852098	-0.00480051	-66.627	39.9624	15.8537	36.6831	0.00992468	0.0229685	0.025021	66.6308	3.67171e+10	1.58654e+10	3.99982e+10	-23.3692	0.0000000E+000	0.0000000E+000	0.0000000E+000	23.3692	0.0000000E+000	0.0000000E+000	0.0000000E+000	-23.3692	0.0000000E+000	0.0000000E+000	0.0000000E+000	-66.6308	0.0000000E+000	0.0000000E+000	0.0000000E+000	66.6308	0.4321	23.3692	0.000000000000000E+000	1.48947e-06	-1.56075e-11	1.48948e-06	3.78341	9.61006e+06	100.7	9.61016e+06

File: 17610_R291_UC85_SOC50_C06.mpt
EC-Lab ASCII FILE
Nb header lines : 64

Potentio Electrochemical Impedance Spectroscopy

Run on channel : 6 (SN 65795)
User :
CE vs. WE compliance from -10 V to 10 V
Electrode connection : standard
Potential control : Ewe
Ewe ctrl range : min = -10.00 V, max = 10.00 V
Safety Limits :
	Do not start on E overload
Acquisition started on : 09/17/2025 17:34:25.932
Loaded Setting File :  C:\Users\Celltest\OneDrive - store-dot.com\Documents\EC-Lab\Data\Michael\R290\17544_R290_UC82_50SOC.mps
Saved on :
	File : 17610_R291_UC85_SOC50_C06.mpr
	Directory : C:\Users\Celltest\OneDrive - store-dot.com\Documents\EC-Lab\Data\Gyutae\
	Host : 169.254.61.224
Device : VMP-3e (SN .003165)
Address : USB
EC-LAB for windows v11.62 (software)
Internet server v27.00 (firmware)
Command interpretor v12.03 (firmware)
Electrode material :
Initial state :
Electrolyte :
Comments :
Electrode surface area : 0.001 cm²
Characteristic mass : 0.001 g
Equivalent Weight : 0.000 g/eq.
Density : 0.000 g/cm3
Volume (V) : 0.001 cm³
Record Ece
Cycle Definition : Charge/Discharge alternance
Mode                Multi sine
E (V)               0.0000
vs.                 Eoc
tE (h:m:s)          0:00:0.0000
record              0
dI                  0.000
unit dI             mA
dt (s)              0.000
fi                  1.000
unit fi             MHz
ff                  0.100
unit ff             mHz
Nd                  10
Points              per decade
spacing             Logarithmic
Va (mV)             5.0
pw                  0.10
Na                  2
corr                0
E range min (V)     -10.000
E range max (V)     10.000
I Range             Auto
Bandwidth           5
nc cycles           0
goto Ns'            0
nr cycles           0
inc. cycle          0

freq/Hz	Re(Z)/Ohm	-Im(Z)/Ohm	|Z|/Ohm	Phase(Z)/deg	time/s	<Ewe>/V	<I>/mA	Cs/µF	Cp/µF	cycle number	I Range	|Ewe|/V	|I|/A	Ns	(Q-Qo)/mA.h	<Ece>/V	|Ece|/V	Phase(Zce)/deg	|Zce|/Ohm	Re(Zce)/Ohm	-Im(Zce)/Ohm	Phase(Zwe-ce)/deg	|Zwe-ce|/Ohm	Re(Zwe-ce)/Ohm	-Im(Zwe-ce)/Ohm	Re(Y)/Ohm-1	Im(Y)/Ohm-1	|Y|/Ohm-1	Phase(Y)/deg	Re(C)/nF	Im(C)/nF	|C|/nF	Phase(C)/deg	Re(M)	Im(M)	|M|	Phase(M)/deg	Re(Permittivity)	Im(Permittivity)	|Permittivity|	Phase(Permittivity)/deg	Re(Resistivity)/Ohm.cm	Im(Resistivity)/Ohm.cm	|Resistivity|/Ohm.cm	Phase(Resistivity)/deg	Re(Conductivity)/mS/cm	Im(Conductivity)/mS/cm	|Conductivity|/mS/cm	Phase(Conductivity)/deg	Tan(Delta)	Loss Angle(Delta)/deg	dq/mA.h	Pwe/W	Pce/W	Pwe-ce/W	<Ewe-Ece>/V	Rwe/Ohm	Rce/Ohm	Rwe-ce/Ohm		Ewe-Ece/V
1.00002e+06	2.11322	2.93248	3.61457	-54.2225	2.23355	3.78299	-0.00792335	0.0542722	0.0357218	1	10	0.000213151	5.897e-05	0	-1.74511e-05	0.000228865	0.000201787	-60.1827	3.42185	1.70147	2.96885	-57.1209	7.02692	3.81469	5.90133	0.161745	0.224451	0.276658	54.2225	35.7218	25.7421	44.0307	-35.7775	0.0000000E+000	0.0000000E+000	0.0000000E+000	35.7775	0.0000000E+000	0.0000000E+000	0.0000000E+000	-35.7775	0.0000000E+000	0.0000000E+000	0.0000000E+000	-54.2225	0.0000000E+000	0.0000000E+000	0.0000000E+000	54.2225	0.720626	35.7775	-1.74511e-05	-2.9974e-05	-1.81338e-09	-2.99722e-05	3.78277	477449	28.8849	477420
630957	0.724008	0.0182495	0.724238	-1.4439	3.40456	3.78281	0.0189533	13.822	0.00877624	1	9	0.000230696	0.000318536	0	-1.61975e-05	0.000228865	0.000110016	-92.0003	0.345378	-0.0120553	0.345168	-27.0421	0.799343	0.711953	0.363418	1.38032	0.0347927	1.38076	1.4439	8.77623	348.178	348.289	-88.5561	0.0000000E+000	0.0000000E+000	0.0000000E+000	88.5561	0.0000000E+000	0.0000000E+000	0.0000000E+000	-88.5561	0.0000000E+000	0.0000000E+000	0.0000000E+000	-1.4439	0.0000000E+000	0.0000000E+000	0.0000000E+000	1.4439	39.6728	88.5561	1.70869e-06	7.16969e-05	4.33776e-09	7.16926e-05	3.78258	199586	12.0752	199574
398103	1.03002	0.114937	1.03641	-6.36716	4.17052	3.78291	0.0373548	3.47827	0.0427781	1	9	0.000919075	0.000886786	0	-6.6464e-06	7.60812e-05	3.01049e-05	142	0.0339483	-0.0267517	-0.0209006	-5.35472	1.00766	1.00327	0.0940367	0.958917	0.107003	0.964868	6.36716	42.7781	383.359	385.738	-83.6328	0.0000000E+000	0.0000000E+000	0.0000000E+000	83.6328	0.0000000E+000	0.0000000E+000	0.0000000E+000	-83.6328	0.0000000E+000	0.0000000E+000	0.0000000E+000	-6.36716	0.0000000E+000	0.0000000E+000	0.0000000E+000	6.36716	8.96156	83.6328	5.4151e-06	0.00014131	2.842e-09	0.000141307	3.78284	101270	2.03672	101268
251206	1.19647	0.324192	1.23962	-15.1606	4.93756	3.78281	0.0226784	1.95428	0.133665	1	9	0.00295827	0.00238644	0	1.34804e-06	0.000209767	7.20768e-05	70.757	0.0302026	0.00995403	-0.0285152	-13.7709	1.24213	1.20643	0.295677	0.778625	0.210973	0.806701	15.1606	133.665	493.308	511.096	-74.8394	0.0000000E+000	0.0000000E+000	0.0000000E+000	74.8394	0.0000000E+000	0.0000000E+000	0.0000000E+000	-74.8394	0.0000000E+000	0.0000000E+000	0.0000000E+000	-15.1606	0.0000000E+000	0.0000000E+000	0.0000000E+000	15.1606	3.69063	74.8394	4.42227e-06	8.57879e-05	4.75719e-09	8.57832e-05	3.7826	166802	9.24966	166793
158486	1.36655	0.463067	1.44287	-18.7194	5.57955	3.78274	0.0161224	2.16863	0.223366	1	9	0.00534648	0.00370544	0	-2.58974e-06	0.000343454	7.66757e-05	72.8775	0.0206927	0.00609225	-0.0197756	-17.8978	1.44244	1.37264	0.443292	0.6564	0.222427	0.693062	18.7194	223.366	659.17	695.987	-71.2806	0.0000000E+000	0.0000000E+000	0.0000000E+000	71.2806	0.0000000E+000	0.0000000E+000	0.0000000E+000	-71.2806	0.0000000E+000	0.0000000E+000	0.0000000E+000	-18.7194	0.0000000E+000	0.0000000E+000	0.0000000E+000	18.7194	2.95108	71.2806	-2.89343e-06	6.09869e-05	5.53731e-09	6.09814e-05	3.7824	234626	21.3029	234605
100004	1.55954	0.543876	1.65166	-19.2257	6.34556	3.78268	0.0156382	2.9262	0.317295	1	9	0.00541277	0.00327717	0	1.41632e-05	0.00028616	5.22182e-05	85.94	0.0159339	0.00112815	-0.0158939	-18.6909	1.64756	1.56067	0.527982	0.571686	0.19937	0.605453	19.2257	317.295	909.832	963.572	-70.7743	0.0000000E+000	0.0000000E+000	0.0000000E+000	70.7743	0.0000000E+000	0.0000000E+000	0.0000000E+000	-70.7743	0.0000000E+000	0.0000000E+000	0.0000000E+000	-19.2257	0.0000000E+000	0.0000000E+000	0.0000000E+000	19.2257	2.86746	70.7743	1.03786e-05	5.91543e-05	4.47501e-09	5.91498e-05	3.7824	241888	18.2988	241870
63093.8	1.77061	0.574984	1.86163	-17.9906	7.11352	3.78268	0.0195867	4.3871	0.418506	1	9	0.00536025	0.00287933	0	1.82675e-05	0.000247963	2.88668e-05	73.6932	0.0100255	0.00281497	-0.0096222	-17.6821	1.86136	1.77343	0.565362	0.5109	0.165909	0.537164	17.9906	418.506	1288.75	1355	-72.0094	0.0000000E+000	0.0000000E+000	0.0000000E+000	72.0094	0.0000000E+000	0.0000000E+000	0.0000000E+000	-72.0094	0.0000000E+000	0.0000000E+000	0.0000000E+000	-17.9906	0.0000000E+000	0.0000000E+000	0.0000000E+000	17.9906	3.07941	72.0094	6.40429e-08	7.40901e-05	4.85678e-09	7.40852e-05	3.78243	193125	12.6598	193113
39814.1	1.96882	0.570781	2.04989	-16.1674	7.87953	3.78268	0.0141109	7.00348	0.542989	1	9	0.00527948	0.00257549	0	2.88038e-05	0.000171571	1.98019e-05	28.2279	0.00768857	0.00677419	-0.00363655	-16.0174	2.05539	1.9756	0.567145	0.468538	0.135834	0.48783	16.1674	542.989	1872.96	1950.08	-73.8326	0.0000000E+000	0.0000000E+000	0.0000000E+000	73.8326	0.0000000E+000	0.0000000E+000	0.0000000E+000	-73.8326	0.0000000E+000	0.0000000E+000	0.0000000E+000	-16.1674	0.0000000E+000	0.0000000E+000	0.0000000E+000	16.1674	3.44935	73.8326	-1.56101e-07	5.3377e-05	2.42103e-09	5.33746e-05	3.78251	268068	12.1588	268056
25116.9	2.14258	0.554309	2.21312	-14.505	8.64753	3.78268	0.0215236	11.4315	0.717127	1	9	0.00512638	0.00231636	0	2.81444e-05	0.000152473	4.66839e-06	-155.006	0.0020154	-0.00182666	0.000851561	-14.5382	2.21157	2.14075	0.555161	0.437448	0.113173	0.451851	14.505	717.127	2771.92	2863.18	-75.495	0.0000000E+000	0.0000000E+000	0.0000000E+000	75.495	0.0000000E+000	0.0000000E+000	0.0000000E+000	-75.495	0.0000000E+000	0.0000000E+000	0.0000000E+000	-14.505	0.0000000E+000	0.0000000E+000	0.0000000E+000	14.505	3.86531	75.495	2.72403e-06	8.14169e-05	3.28178e-09	8.14136e-05	3.78252	175745	7.08399	175738
15847.7	2.2746	0.535393	2.33676	-13.2451	9.41553	3.78267	0.0185064	18.7578	0.984689	1	9	0.00511342	0.00218825	0	3.05697e-05	3.78851e-05	8.16297e-05	-10.8755	0.0373036	0.0366336	0.00703824	-13.2079	2.37403	2.31123	0.542431	0.416559	0.0980493	0.427943	13.2451	984.689	4183.42	4297.74	-76.7549	0.0000000E+000	0.0000000E+000	0.0000000E+000	76.7549	0.0000000E+000	0.0000000E+000	0.0000000E+000	-76.7549	0.0000000E+000	0.0000000E+000	0.0000000E+000	-13.2451	0.0000000E+000	0.0000000E+000	0.0000000E+000	13.2451	4.24847	76.7549	1.37524e-06	7.00036e-05	7.01116e-10	7.00029e-05	3.78264	204398	2.04714	204396
10002.2	2.40213	0.558508	2.46621	-13.089	9.93355	3.78267	0.0187671	28.4901	1.46115	1	9	0.00532704	0.00216001	0	3.27391e-05	0.000438944	4.88599e-06	10.1377	0.00226202	0.0022267	-0.00039815	-13.0683	2.46829	2.40436	0.55811	0.394946	0.0918269	0.405481	13.089	1461.15	6284.36	6451.99	-76.911	0.0000000E+000	0.0000000E+000	0.0000000E+000	76.911	0.0000000E+000	0.0000000E+000	0.0000000E+000	-76.911	0.0000000E+000	0.0000000E+000	0.0000000E+000	-13.089	0.0000000E+000	0.0000000E+000	0.0000000E+000	13.089	4.30098	76.911	2.17738e-06	7.09899e-05	8.23772e-09	7.09817e-05	3.78223	201558	23.389	201535