Folder: EIS/txt (part 129)

File: 18811_R307_UC93_30_SOC50_C07.mpt
EC-Lab ASCII FILE
Nb header lines : 65

Potentio Electrochemical Impedance Spectroscopy

Run on channel : 6 (SN 65795)
Grouped channel(s) : 5, 6, 7, 8
CE vs. WE compliance from -10 V to 10 V
Electrode connection : standard
Potential control : Ewe
Ewe ctrl range : min = -10.00 V, max = 10.00 V
Safety Limits :
	Do not start on E overload
Acquisition started on : 11/11/2025 16:20:58.367
Loaded Setting File :  C:\Users\Celltest\OneDrive - store-dot.com\Documents\EC-Lab\Data\@Biologic Test Protocols\cathode half cell EIS SOC50.mps
Saved on :
	File : 19187_R297_UC94_SOC50_C06.mpr
	Directory : C:\Users\Celltest\OneDrive - store-dot.com\Documents\EC-Lab\Data\Michael\
	Host : 169.254.61.224
Device : VMP-3e (SN .003165)
Address : USB
EC-LAB for windows v11.62 (software)
Internet server v27.00 (firmware)
Command interpretor v12.03 (firmware)
Electrode material :
Initial state :
Electrolyte :
Comments :
Electrode surface area : 0.001 cm²
Characteristic mass : 0.001 g
Equivalent Weight : 0.000 g/eq.
Density : 0.000 g/cm3
Volume (V) : 0.001 cm³
Record Ece
Cycle Definition : Charge/Discharge alternance
Mode                Multi sine
E (V)               0.0000
vs.                 Eoc
tE (h:m:s)          0:00:0.0000
record              0
dI                  0.000
unit dI             mA
dt (s)              0.000
fi                  1.000
unit fi             MHz
ff                  0.100
unit ff             mHz
Nd                  10
Points              per decade
spacing             Logarithmic
Va (mV)             5.0
pw                  0.10
Na                  2
corr                0
E range min (V)     -10.000
E range max (V)     10.000
I Range             Auto
Bandwidth           5
nc cycles           0
goto Ns'            0
nr cycles           0
inc. cycle          0
Nb header lines : 3

freq/Hz	Re(Z)/Ohm	-Im(Z)/Ohm	|Z|/Ohm	Phase(Z)/deg	time/s	<Ewe>/V	<I>/mA	Cs/µF	Cp/µF	cycle number	I Range	|Ewe|/V	|I|/A	Ns	(Q-Qo)/mA.h	<Ece>/V	|Ece|/V	Phase(Zce)/deg	|Zce|/Ohm	Re(Zce)/Ohm	-Im(Zce)/Ohm	Phase(Zwe-ce)/deg	|Zwe-ce|/Ohm	Re(Zwe-ce)/Ohm	-Im(Zwe-ce)/Ohm	Re(Y)/Ohm-1	Im(Y)/Ohm-1	|Y|/Ohm-1	Phase(Y)/deg	Re(C)/nF	Im(C)/nF	|C|/nF	Phase(C)/deg	Re(M)	Im(M)	|M|	Phase(M)/deg	Re(Permittivity)	Im(Permittivity)	|Permittivity|	Phase(Permittivity)/deg	Re(Resistivity)/Ohm.cm	Im(Resistivity)/Ohm.cm	|Resistivity|/Ohm.cm	Phase(Resistivity)/deg	Re(Conductivity)/mS/cm	Im(Conductivity)/mS/cm	|Conductivity|/mS/cm	Phase(Conductivity)/deg	Tan(Delta)	Loss Angle(Delta)/deg	dq/mA.h	Pwe/W	Pce/W	Pwe-ce/W	<Ewe-Ece>/V	Rwe/Ohm	Rce/Ohm	Rwe-ce/Ohm		Ewe-Ece/V
1.00002e+06	3.15445	2.97004	4.33263	-43.2753	2.23453	3.97162	-0.0402497	0.0535858	0.0251809	1	10	0.000229556	5.29831e-05	0	-1.68332e-05	-6.25447e-05	0.000198601	-63.3232	3.74839	1.68287	3.34938	-52.5671	7.95831	4.83732	6.31942	0.168043	0.158219	0.230806	43.2753	25.1809	26.7444	36.7333	-46.7247	0.0000000E+000	0.0000000E+000	0.0000000E+000	46.7247	0.0000000E+000	0.0000000E+000	0.0000000E+000	-46.7247	0.0000000E+000	0.0000000E+000	0.0000000E+000	-43.2753	0.0000000E+000	0.0000000E+000	0.0000000E+000	43.2753	1.06209	46.7247	-1.68332e-05	-0.000159857	2.51741e-09	-0.000159859	3.97169	98674.5	1.55392	98676.1
251206	1.36356	0.355391	1.40911	-14.6083	4.93653	3.97181	0.0414138	1.78272	0.113398	1	9	0.00311515	0.00221073	0	3.35812e-06	-4.34693e-05	6.01623e-05	84.5232	0.0272138	0.00259738	-0.0270896	-13.5126	1.40505	1.36615	0.328301	0.686727	0.178985	0.709669	14.6083	113.398	435.085	449.62	-75.3917	0.0000000E+000	0.0000000E+000	0.0000000E+000	75.3917	0.0000000E+000	0.0000000E+000	0.0000000E+000	-75.3917	0.0000000E+000	0.0000000E+000	0.0000000E+000	-14.6083	0.0000000E+000	0.0000000E+000	0.0000000E+000	14.6083	3.83678	75.3917	3.66087e-06	0.000164488	-1.80023e-09	0.00016449	3.97185	95905.4	1.04963	95906.5
63093.8	1.92328	0.938148	2.13989	-26.0024	7.23855	3.97185	0.0545954	2.68882	0.516797	1	9	0.00529356	0.00247375	0	6.55431e-05	-4.34693e-05	1.97026e-05	71.7396	0.00796466	0.00249561	-0.00756358	-25.791	2.13883	1.92578	0.930584	0.42001	0.204874	0.467313	26.0024	516.797	1059.48	1178.8	-63.9976	0.0000000E+000	0.0000000E+000	0.0000000E+000	63.9976	0.0000000E+000	0.0000000E+000	0.0000000E+000	-63.9976	0.0000000E+000	0.0000000E+000	0.0000000E+000	-26.0024	0.0000000E+000	0.0000000E+000	0.0000000E+000	26.0024	2.05009	63.9976	1.16478e-05	0.000216845	-2.37322e-09	0.000216847	3.9719	72750.7	0.796207	72751.5
15847.7	2.94365	1.49619	3.30207	-26.9431	9.53955	3.97185	0.0491589	6.71225	1.37806	1	9	0.00522772	0.00158316	0	0.000102025	-0.000310525	5.19431e-06	-112.133	0.00328096	-0.00123612	0.0030392	-26.9998	3.30235	2.94242	1.49923	0.269969	0.137219	0.30284	26.9431	1378.06	2711.24	3041.36	-63.0569	0.0000000E+000	0.0000000E+000	0.0000000E+000	63.0569	0.0000000E+000	0.0000000E+000	0.0000000E+000	-63.0569	0.0000000E+000	0.0000000E+000	0.0000000E+000	-26.9431	0.0000000E+000	0.0000000E+000	0.0000000E+000	26.9431	1.96744	63.0569	4.04698e-06	0.000195252	-1.52651e-08	0.000195267	3.97216	80796.1	6.31676	80802.5
3983.6	4.40995	2.3685	5.00574	-28.2394	11.5441	3.97182	-0.0209249	16.8683	3.77642	1	10	0.00520077	0.00103896	0	0.000111282	-0.000272374	5.49026e-06	-84.5679	0.00528438	0.000500251	0.00526065	-28.2897	5.00868	4.41045	2.37376	0.175994	0.0945227	0.199771	28.2394	3776.42	7031.39	7981.34	-61.7606	0.0000000E+000	0.0000000E+000	0.0000000E+000	61.7606	0.0000000E+000	0.0000000E+000	0.0000000E+000	-61.7606	0.0000000E+000	0.0000000E+000	0.0000000E+000	-28.2394	0.0000000E+000	0.0000000E+000	0.0000000E+000	28.2394	1.86192	61.7606	-1.5388e-06	-8.31097e-05	5.6994e-09	-8.31154e-05	3.97209	189813	13.0168	189826
1000.32	7.07839	3.8495	8.05744	-28.539	14.1728	3.97178	-0.0222688	41.3311	9.43391	1	10	0.00483655	0.00060026	0	9.54673e-05	-6.25447e-05	1.28128e-05	18.3255	0.0213455	0.020263	-0.00671134	-28.4285	8.07205	7.09865	3.84279	0.109029	0.059294	0.124109	28.539	9433.91	17346.9	19746.2	-61.461	0.0000000E+000	0.0000000E+000	0.0000000E+000	61.461	0.0000000E+000	0.0000000E+000	0.0000000E+000	-61.461	0.0000000E+000	0.0000000E+000	0.0000000E+000	-28.539	0.0000000E+000	0.0000000E+000	0.0000000E+000	28.539	1.83878	61.461	-2.55931e-06	-8.84468e-05	1.39279e-09	-8.84482e-05	3.97184	178356	2.80862	178359
251.044	11.6982	4.32319	12.4714	-20.2824	16.873	3.97178	-0.0215391	146.644	17.6214	1	10	0.00474558	0.000380516	0	7.95458e-05	-0.000157922	9.12545e-06	-10.4831	0.0239818	0.0235815	0.00436338	-20.2637	12.4951	11.7217	4.32755	0.0752115	0.0277953	0.0801832	20.2824	17621.4	47681.9	50833.9	-69.7176	0.0000000E+000	0.0000000E+000	0.0000000E+000	69.7176	0.0000000E+000	0.0000000E+000	0.0000000E+000	-69.7176	0.0000000E+000	0.0000000E+000	0.0000000E+000	-20.2824	0.0000000E+000	0.0000000E+000	0.0000000E+000	20.2824	2.70591	69.7176	-2.43497e-06	-8.55487e-05	3.4015e-09	-8.55521e-05	3.97193	184398	7.33185	184405
[...]
0.00796479	28.4214	6.81577	29.2272	-13.4855	20329.2	3.97179	-8.4068e-05	2.93178e+06	159436	1	11	0.00507222	0.000173544	0	-0.00919078	-0.000253299	2.39092e-07	-30.6487	0.0013777	0.00118525	0.000702312	-13.4863	29.2285	28.4226	6.81647	0.0332714	0.00797885	0.0342147	13.4855	1.59436e+08	6.64839e+08	6.83689e+08	-76.5145	0.0000000E+000	0.0000000E+000	0.0000000E+000	76.5145	0.0000000E+000	0.0000000E+000	0.0000000E+000	-76.5145	0.0000000E+000	0.0000000E+000	0.0000000E+000	-13.4855	0.0000000E+000	0.0000000E+000	0.0000000E+000	13.4855	4.16995	76.5145	-0.00717934	-3.339e-07	2.12943e-11	-3.33922e-07	3.97204	4.7245e+07	3013.02	4.7248e+07
0.0019912	35.5401	10.5487	37.0726	-16.5315	20329.2	3.97179	-8.4068e-05	7.57714e+06	613481	1	11	0.00508425	0.000137143	0	-0.00919078	-0.000253299	7.31592e-07	-105.085	0.00533451	-0.00138831	0.00515069	-16.5398	37.0727	35.5387	10.5539	0.0258591	0.00767529	0.0269741	16.5315	6.13481e+08	2.0669e+09	2.15602e+09	-73.4685	0.0000000E+000	0.0000000E+000	0.0000000E+000	73.4685	0.0000000E+000	0.0000000E+000	0.0000000E+000	-73.4685	0.0000000E+000	0.0000000E+000	0.0000000E+000	-16.5315	0.0000000E+000	0.0000000E+000	0.0000000E+000	16.5315	3.36914	73.4685	0.000000000000000E+000	-3.339e-07	2.12943e-11	-3.33922e-07	3.97204	4.7245e+07	3013.02	4.7248e+07
0.000497799	41.055	16.3348	44.1852	-21.6964	20329.2	3.97179	-8.4068e-05	1.95728e+07	2.675e+06	1	11	0.00508334	0.000115046	0	-0.00919078	-0.000253299	1.44636e-06	-11.3498	0.012572	0.0123261	0.00247414	-21.6935	44.1976	41.0673	16.3372	0.0210286	0.00836678	0.022632	21.6964	2.675e+09	6.72322e+09	7.23584e+09	-68.3036	0.0000000E+000	0.0000000E+000	0.0000000E+000	68.3036	0.0000000E+000	0.0000000E+000	0.0000000E+000	-68.3036	0.0000000E+000	0.0000000E+000	0.0000000E+000	-21.6964	0.0000000E+000	0.0000000E+000	0.0000000E+000	21.6964	2.51335	68.3036	0.000000000000000E+000	-3.339e-07	2.12943e-11	-3.33922e-07	3.97204	4.7245e+07	3013.02	4.7248e+07
0.00019912	41.7669	34.6004	54.2371	-39.6389	20329.2	3.97179	-8.4068e-05	2.31007e+07	9.40144e+06	1	11	0.00508247	9.37083e-05	0	-0.00919078	-0.000253299	4.37305e-06	-89.1826	0.0466666	0.000665744	0.0466619	-39.6764	54.2674	41.7676	34.6471	0.0141984	0.0117622	0.0184376	39.6389	9.40144e+09	1.13487e+10	1.4737e+10	-50.3611	0.0000000E+000	0.0000000E+000	0.0000000E+000	50.3611	0.0000000E+000	0.0000000E+000	0.0000000E+000	-50.3611	0.0000000E+000	0.0000000E+000	0.0000000E+000	-39.6389	0.0000000E+000	0.0000000E+000	0.0000000E+000	39.6389	1.20712	50.3611	0.000000000000000E+000	-3.339e-07	2.12943e-11	-3.33922e-07	3.97204	4.7245e+07	3013.02	4.7248e+07

9.95598e-05	48.9098	71.2462	86.4187	-55.5308	20329.2	3.97179	-8.4068e-05	2.24375e+07	1.52504e+07	1	11	0.00509425	5.89485e-05	0	-0.00919078	-0.000253299	8.26077e-06	22.4936	0.140135	0.129474	-0.0536131	-55.4399	86.4479	49.0393	71.1926	0.00654909	0.00953995	0.0115716	55.5308	1.52504e+10	1.04693e+10	1.84981e+10	-34.4692	0.0000000E+000	0.0000000E+000	0.0000000E+000	34.4692	0.0000000E+000	0.0000000E+000	0.0000000E+000	-34.4692	0.0000000E+000	0.0000000E+000	0.0000000E+000	-55.5308	0.0000000E+000	0.0000000E+000	0.0000000E+000	55.5308	0.686491	34.4692	0.000000000000000E+000	-3.339e-07	2.12943e-11	-3.33922e-07	3.97204	4.7245e+07	3013.02	4.7248e+07

File: 18814_R307_UA701_3p24_SOC00_C01.mpt
EC-Lab ASCII FILE
Nb header lines : 65

Potentio Electrochemical Impedance Spectroscopy

Run on channel : 1 (SN 66354)
User :
CE vs. WE compliance from -10 V to 10 V
Electrode connection : standard
Potential control : Ewe
Ewe ctrl range : min = -10.00 V, max = 10.00 V
Safety Limits :
	Do not start on E overload
Acquisition started on : 11/03/2025 16:08:24.140
Technique started on : 11/03/2025 16:08:26.051
Loaded Setting File :  C:\Users\Celltest\OneDrive - store-dot.com\Documents\EC-Lab\Data\@Biologic Test Protocols\anode half cell EIS SOC00.mps
Saved on :
	File : 18814_R307_UA701_3p24_SOC00_C01.mpr
	Directory : C:\Users\Celltest\OneDrive - store-dot.com\Documents\EC-Lab\Data\Anna\
	Host : 169.254.61.224
Device : VMP-3e (SN .003165)
Address : USB
EC-LAB for windows v11.62 (software)
Internet server v27.00 (firmware)
Command interpretor v12.03 (firmware)
Electrode material :
Initial state :
Electrolyte :
Comments :
Electrode surface area : 0.001 cm²
Characteristic mass : 0.001 g
Equivalent Weight : 0.000 g/eq.
Density : 0.000 g/cm3
Volume (V) : 0.001 cm³
Record Ece
Cycle Definition : Charge/Discharge alternance
Mode                Single sine
E (V)               0.0000
vs.                 Eoc
tE (h:m:s)          0:00:0.0000
record              0
dI                  0.000
unit dI             mA
dt (s)              0.000
fi                  100.000
unit fi             kHz
ff                  10.000
unit ff             mHz
Nd                  6
Points              per decade
spacing             Logarithmic
Va (mV)             5.0
pw                  0.10
Na                  2
corr                0
E range min (V)     -10.000
E range max (V)     10.000
I Range             Auto
Bandwidth           5
nc cycles           0
goto Ns'            0
nr cycles           0
inc. cycle          0

freq/Hz	Re(Z)/Ohm	-Im(Z)/Ohm	|Z|/Ohm	Phase(Z)/deg	time/s	<Ewe>/V	<I>/mA	Cs/µF	Cp/µF	cycle number	I Range	|Ewe|/V	|I|/A	Ns	(Q-Qo)/mA.h	<Ece>/V	|Ece|/V	Phase(Zce)/deg	|Zce|/Ohm	Re(Zce)/Ohm	-Im(Zce)/Ohm	Phase(Zwe-ce)/deg	|Zwe-ce|/Ohm	Re(Zwe-ce)/Ohm	-Im(Zwe-ce)/Ohm	Re(Y)/Ohm-1	Im(Y)/Ohm-1	|Y|/Ohm-1	Phase(Y)/deg	Re(C)/nF	Im(C)/nF	|C|/nF	Phase(C)/deg	Re(M)	Im(M)	|M|	Phase(M)/deg	Re(Permittivity)	Im(Permittivity)	|Permittivity|	Phase(Permittivity)/deg	Re(Resistivity)/Ohm.cm	Im(Resistivity)/Ohm.cm	|Resistivity|/Ohm.cm	Phase(Resistivity)/deg	Re(Conductivity)/mS/cm	Im(Conductivity)/mS/cm	|Conductivity|/mS/cm	Phase(Conductivity)/deg	Tan(Delta)	Loss Angle(Delta)/deg	dq/mA.h	Pwe/W	Pce/W	Pwe-ce/W	<Ewe-Ece>/V	Rwe/Ohm	Rce/Ohm	Rwe-ce/Ohm		Ewe-Ece/V
100004	1.05959	0.433594	1.14488	-22.2548	1.91052	0.249986	0.0773727	3.67046	0.526466	1	9	0.00471827	0.0041212	0	1.09004e-05	-0.000207511	4.39783e-05	88.6233	0.0106712	0.000256379	-0.0106682	-21.7542	1.14112	1.05985	0.422926	0.808392	0.330801	0.873457	22.2548	526.466	1286.55	1390.1	-67.7452	0.0000000E+000	0.0000000E+000	0.0000000E+000	67.7452	0.0000000E+000	0.0000000E+000	0.0000000E+000	-67.7452	0.0000000E+000	0.0000000E+000	0.0000000E+000	-22.2548	0.0000000E+000	0.0000000E+000	0.0000000E+000	22.2548	2.44374	67.7452	1.09004e-05	1.93421e-05	-1.60557e-08	1.93581e-05	0.250193	3230.93	2.68196	3233.61
31621.1	1.42918	0.58518	1.54434	-22.2668	3.43152	0.249963	0.0746159	8.60108	1.23494	1	9	0.0051344	0.00332466	0	4.58689e-05	9.77262e-05	2.61026e-05	29.3609	0.00785121	0.00684271	-0.00384952	-22.0391	1.54923	1.43602	0.58133	0.59924	0.24536	0.647526	22.2668	1234.94	3016.08	3259.12	-67.7332	0.0000000E+000	0.0000000E+000	0.0000000E+000	67.7332	0.0000000E+000	0.0000000E+000	0.0000000E+000	-67.7332	0.0000000E+000	0.0000000E+000	0.0000000E+000	-22.2668	0.0000000E+000	0.0000000E+000	0.0000000E+000	22.2668	2.44229	67.7332	1.15439e-05	1.86512e-05	7.29192e-09	1.86439e-05	0.249865	3350	1.30972	3348.69
10002.2	1.88224	0.782429	2.03839	-22.5722	4.45654	0.249963	0.0773354	20.3366	2.99637	1	9	0.00492834	0.00241777	0	6.40171e-05	0.000135881	8.88278e-06	27.0898	0.00367396	0.00327091	-0.00167307	-22.4936	2.04077	1.88551	0.780756	0.453004	0.18831	0.490584	22.5722	2996.37	7208.18	7806.15	-67.4278	0.0000000E+000	0.0000000E+000	0.0000000E+000	67.4278	0.0000000E+000	0.0000000E+000	0.0000000E+000	-67.4278	0.0000000E+000	0.0000000E+000	0.0000000E+000	-22.5722	0.0000000E+000	0.0000000E+000	0.0000000E+000	22.5722	2.40563	67.4278	8.70989e-06	1.9331e-05	1.05084e-08	1.93205e-05	0.249827	3232.19	1.75703	3230.43
3163.08	2.46447	1.14171	2.71608	-24.8569	5.48167	0.249735	0.0130717	44.071	7.7872	1	9	0.0048135	0.00177222	0	7.79493e-05	-3.5815e-05	5.81339e-06	-62.7609	0.00328028	0.0015014	0.00291651	-24.8994	2.71867	2.46597	1.14463	0.33407	0.154765	0.368177	24.8569	7787.2	16809.2	18525.4	-65.1431	0.0000000E+000	0.0000000E+000	0.0000000E+000	65.1431	0.0000000E+000	0.0000000E+000	0.0000000E+000	-65.1431	0.0000000E+000	0.0000000E+000	0.0000000E+000	-24.8569	0.0000000E+000	0.0000000E+000	0.0000000E+000	24.8569	2.15857	65.1431	2.0776e-06	3.26446e-06	-4.68162e-10	3.26493e-06	0.249771	19105.1	2.73989	19107.8
1000.32	3.2677	1.8875	3.77366	-30.0118	7.07982	0.249883	-0.0123701	84.2934	21.0884	1	10	0.0048219	0.00127778	0	0.00010838	0.00021219	4.11954e-06	95.8153	0.00322399	-0.000326661	-0.0032074	-29.9721	3.77177	3.26737	1.88429	0.229465	0.132545	0.264995	30.0118	21088.4	36508.8	42161.7	-59.9882	0.0000000E+000	0.0000000E+000	0.0000000E+000	59.9882	0.0000000E+000	0.0000000E+000	0.0000000E+000	-59.9882	0.0000000E+000	0.0000000E+000	0.0000000E+000	-30.0118	0.0000000E+000	0.0000000E+000	0.0000000E+000	30.0118	1.73123	59.9882	5.0323e-06	-3.09109e-06	-2.62482e-09	-3.08846e-06	0.249671	20200.5	17.1534	20183.3
316.316	4.7723	3.55651	5.95177	-36.6949	8.42908	0.249878	-0.0123292	141.474	50.5161	1	10	0.0047159	0.000792352	0	0.000105034	2.1417e-05	1.00396e-05	32.2415	0.0126707	0.0107169	-0.00675966	-36.5812	5.95634	4.78302	3.54975	0.134721	0.100399	0.168017	36.6949	50516.1	67785.1	84538.1	-53.3051	0.0000000E+000	0.0000000E+000	0.0000000E+000	53.3051	0.0000000E+000	0.0000000E+000	0.0000000E+000	-53.3051	0.0000000E+000	0.0000000E+000	0.0000000E+000	-36.6949	0.0000000E+000	0.0000000E+000	0.0000000E+000	36.6949	1.34185	53.3051	-1.72511e-06	-3.08079e-06	-2.64053e-10	-3.08053e-06	0.249857	20267.3	1.7371	20265.5
100.032	8.51352	5.70713	10.2495	-33.8363	9.7758	0.249878	-0.0129851	278.781	86.4365	1	10	0.00467105	0.000455737	0	9.96076e-05	-5.48923e-05	6.81248e-05	-68.9392	0.149483	0.0537179	0.139497	-34.3112	10.3721	8.56724	5.84662	0.0810415	0.054327	0.0975662	33.8363	86436.5	128940	155232	-56.1637	0.0000000E+000	0.0000000E+000	0.0000000E+000	56.1637	0.0000000E+000	0.0000000E+000	0.0000000E+000	-56.1637	0.0000000E+000	0.0000000E+000	0.0000000E+000	-33.8363	0.0000000E+000	0.0000000E+000	0.0000000E+000	33.8363	1.49174	56.1637	-9.21271e-07	-3.24469e-06	7.12782e-10	-3.2454e-06	0.249933	19243.4	4.22733	19247.6
[...]
1.00006	22.0277	2.11443	22.1289	-5.483	19.826	0.249922	-0.000698725	75266.1	687.171	1	12	0.00469004	0.000211942	0	0.000104129	0.000269422	6.52614e-06	10.5957	0.0307922	0.0302672	-0.00566197	-5.46095	22.1585	22.0579	2.10877	0.044983	0.0043179	0.0451897	5.483	687171	7.1588e+06	7.19171e+06	-84.517	0.0000000E+000	0.0000000E+000	0.0000000E+000	84.517	0.0000000E+000	0.0000000E+000	0.0000000E+000	-84.517	0.0000000E+000	0.0000000E+000	0.0000000E+000	-5.483	0.0000000E+000	0.0000000E+000	0.0000000E+000	5.483	10.4178	84.517	4.37324e-06	-1.74626e-07	-1.88252e-10	-1.74438e-07	0.249652	357682	385.591	357297
0.316193	23.0509	2.11302	23.1476	-5.23752	34.167	0.249923	-0.000187435	238213	1985	1	12	0.00468731	0.000202497	0	7.26187e-05	0.000231267	2.3107e-06	6.22008	0.0114111	0.0113439	-0.00123636	-5.23191	23.1587	23.0623	2.11178	0.0430207	0.0039436	0.0432011	5.23752	1.985e+06	2.16544e+07	2.17452e+07	-84.7625	0.0000000E+000	0.0000000E+000	0.0000000E+000	84.7625	0.0000000E+000	0.0000000E+000	0.0000000E+000	-84.7625	0.0000000E+000	0.0000000E+000	0.0000000E+000	-5.23752	0.0000000E+000	0.0000000E+000	0.0000000E+000	5.23752	10.909	84.7625	-1.82774e-05	-4.68443e-08	-4.33477e-11	-4.6801e-08	0.249691	1.33338e+06	1233.85	1.33215e+06
0.0999041	24.3698	3.69022	24.6476	-8.61067	79.3749	0.24992	-0.0029342	431702	9676.99	1	12	0.00469045	0.000190301	0	5.96127e-05	0.000479272	1.74878e-06	-59.78	0.00918956	0.00462531	0.00794069	-8.6273	24.6534	24.3744	3.69816	0.0401146	0.0060744	0.0405719	8.61067	9.67699e+06	6.39057e+07	6.46342e+07	-81.3893	0.0000000E+000	0.0000000E+000	0.0000000E+000	81.3893	0.0000000E+000	0.0000000E+000	0.0000000E+000	-81.3893	0.0000000E+000	0.0000000E+000	0.0000000E+000	-8.61067	0.0000000E+000	0.0000000E+000	0.0000000E+000	8.61067	6.60388	81.3893	1.64814e-05	-7.33314e-07	-1.40628e-09	-7.31908e-07	0.24944	85174.8	163.34	85011.4
0.0315922	27.1089	7.7361	28.1912	-15.9272	222.259	0.24992	-0.000721195	651205	49038.4	1	12	0.00468911	0.000166333	0	0.000238941	-7.39696e-05	3.29062e-06	-3.05047	0.0197833	0.0197553	0.00105278	-15.9182	28.2105	27.1287	7.73715	0.0341104	0.0097341	0.0354721	15.9272	4.90384e+07	1.71841e+08	1.78701e+08	-74.0728	0.0000000E+000	0.0000000E+000	0.0000000E+000	74.0728	0.0000000E+000	0.0000000E+000	0.0000000E+000	-74.0728	0.0000000E+000	0.0000000E+000	0.0000000E+000	-15.9272	0.0000000E+000	0.0000000E+000	0.0000000E+000	15.9272	3.50421	74.0728	5.43293e-05	-1.80241e-07	5.33465e-11	-1.80294e-07	0.249994	346535	102.565	346638
0.0100092	32.1311	17.0776	36.3875	-27.9906	673.48	0.249921	-0.00173366	931096	205090	1	12	0.00468937	0.000128873	0	-0.000580173	4.04943e-05	2.87173e-06	-19.7385	0.0222834	0.0209741	0.00752571	-27.9855	36.4096	32.1521	17.0852	0.0242672	0.012898	0.0274819	27.9906	2.0509e+08	3.85871e+08	4.36988e+08	-62.0094	0.0000000E+000	0.0000000E+000	0.0000000E+000	62.0094	0.0000000E+000	0.0000000E+000	0.0000000E+000	-62.0094	0.0000000E+000	0.0000000E+000	0.0000000E+000	-27.9906	0.0000000E+000	0.0000000E+000	0.0000000E+000	27.9906	1.88147	62.0094	-0.000474004	-4.33278e-07	-7.02032e-11	-4.33208e-07	0.249881	144158	23.3577	144135