Folder: EIS/txt (part 50)

File: 17687_R288_UA670_SOC00_C02.mpt
EC-Lab ASCII FILE

Nb header lines : 63

Potentio Electrochemical Impedance Spectroscopy

Run on channel : 2 (SN 66139)
User :
CE vs. WE compliance from -10 V to 10 V
Electrode connection : standard
Potential control : Ewe
Ewe ctrl range : min = -10.00 V, max = 10.00 V
Safety Limits :
	Do not start on E overload
Acquisition started on : 09/22/2025 08:43:39.321
Loaded Setting File :  C:\Users\Celltest\OneDrive - store-dot.com\Documents\EC-Lab\Data\Gyutae\17737_R277_UA674_SOC00_C01.mpr
Saved on :
	File : 17687_R288_UA670_SOC00_C02.mpr
	Directory : C:\Users\Celltest\OneDrive - store-dot.com\Documents\EC-Lab\Data\Charmaine\
	Host : 169.254.61.224
Device : VMP-3e (SN .003165)
Address : USB
EC-LAB for windows v11.62 (software)
Internet server v27.00 (firmware)
Command interpretor v12.03 (firmware)
Electrode material :
Initial state :
Electrolyte :
Comments :
Electrode surface area : 0.001 cm²
Characteristic mass : 0.001 g
Equivalent Weight : 0.000 g/eq.
Density : 0.000 g/cm3
Volume (V) : 0.001 cm³
Cycle Definition : Charge/Discharge alternance
Mode                Single sine
E (V)               0.0000
vs.                 Eoc
tE (h:m:s)          0:00:0.0000
record              0
dI                  0.000
unit dI             mA
dt (s)              0.000
fi                  100.000
unit fi             kHz
ff                  10.000
unit ff             mHz
Nd                  6
Points              per decade
spacing             Logarithmic
Va (mV)             5.0
pw                  0.10
Na                  2
corr                0
E range min (V)     -10.000
E range max (V)     10.000
I Range             Auto
Bandwidth           5
nc cycles           0
goto Ns'            0
nr cycles           0
inc. cycle          0

freq/Hz	Re(Z)/Ohm	-Im(Z)/Ohm	|Z|/Ohm	Phase(Z)/deg	time/s	<Ewe>/V	<I>/mA	Cs/µF	Cp/µF	cycle number	I Range	|Ewe|/V	|I|/A	Ns	(Q-Qo)/mA.h	Re(Y)/Ohm-1	Im(Y)/Ohm-1	|Y|/Ohm-1	Phase(Y)/deg	Re(C)/nF	Im(C)/nF	|C|/nF	Phase(C)/deg	Re(M)	Im(M)	|M|	Phase(M)/deg	Re(Permittivity)	Im(Permittivity)	|Permittivity|	Phase(Permittivity)/deg	Re(Resistivity)/Ohm.cm	Im(Resistivity)/Ohm.cm	|Resistivity|/Ohm.cm	Phase(Resistivity)/deg	Re(Conductivity)/mS/cm	Im(Conductivity)/mS/cm	|Conductivity|/mS/cm	Phase(Conductivity)/deg	Tan(Delta)	Loss Angle(Delta)/deg	dq/mA.h	Pwe/W	Rwe/Ohm
100004	0.917872	0.182181	0.935777	-11.2262	1.70549	0.270324	-0.0198683	8.73579	0.331101	1	9	0.00465217	0.00497145	0	-8.31138e-06	1.04818	0.208045	1.06863	11.2262	331.101	1668.17	1700.71	-78.7738	0.0000000E+000	0.0000000E+000	0.0000000E+000	78.7738	0.0000000E+000	0.0000000E+000	0.0000000E+000	-78.7738	0.0000000E+000	0.0000000E+000	0.0000000E+000	-11.2262	0.0000000E+000	0.0000000E+000	0.0000000E+000	11.2262	5.03826	78.7738	-8.31138e-06	-5.37089e-06	13605.8
46420.4	1.01356	0.238522	1.04125	-13.2425	2.7205	0.270323	-0.0209485	14.3742	0.754281	1	9	0.00506484	0.00486421	0	-7.28685e-06	0.934851	0.219999	0.960388	13.2425	754.281	3205.19	3292.75	-76.7575	0.0000000E+000	0.0000000E+000	0.0000000E+000	76.7575	0.0000000E+000	0.0000000E+000	0.0000000E+000	-76.7575	0.0000000E+000	0.0000000E+000	0.0000000E+000	-13.2425	0.0000000E+000	0.0000000E+000	0.0000000E+000	13.2425	4.24933	76.7575	6.04228e-06	-5.66285e-06	12904.2
21544.7	1.13338	0.315989	1.1766	-15.5786	3.59549	0.270321	-0.0146167	23.378	1.68613	1	9	0.00546004	0.00464051	0	-1.52597e-05	0.818681	0.228251	0.849904	15.5786	1686.13	6047.76	6278.41	-74.4214	0.0000000E+000	0.0000000E+000	0.0000000E+000	74.4214	0.0000000E+000	0.0000000E+000	0.0000000E+000	-74.4214	0.0000000E+000	0.0000000E+000	0.0000000E+000	-15.5786	0.0000000E+000	0.0000000E+000	0.0000000E+000	15.5786	3.58676	74.4214	-3.66494e-06	-3.95118e-06	18494
10002.2	1.28898	0.41335	1.35363	-17.7801	4.47049	0.27032	-0.0165163	38.4951	3.58956	1	9	0.00505442	0.00373397	0	-1.75197e-05	0.703468	0.225589	0.738754	17.7801	3589.56	11193.5	11755	-72.2199	0.0000000E+000	0.0000000E+000	0.0000000E+000	72.2199	0.0000000E+000	0.0000000E+000	0.0000000E+000	-72.2199	0.0000000E+000	0.0000000E+000	0.0000000E+000	-17.7801	0.0000000E+000	0.0000000E+000	0.0000000E+000	17.7801	3.11836	72.2199	5.62676e-07	-4.46468e-06	16366.9
4641.49	1.49711	0.548924	1.59457	-20.1357	5.3187	0.270281	-0.0271686	62.467	7.40265	1	9	0.00497615	0.00312068	0	-2.57811e-05	0.588797	0.215886	0.627128	20.1357	7402.65	20189.7	21504	-69.8643	0.0000000E+000	0.0000000E+000	0.0000000E+000	69.8643	0.0000000E+000	0.0000000E+000	0.0000000E+000	-69.8643	0.0000000E+000	0.0000000E+000	0.0000000E+000	-20.1357	0.0000000E+000	0.0000000E+000	0.0000000E+000	20.1357	2.72736	69.8643	-3.28007e-06	-7.34316e-06	9948.3
2155.69	1.77063	0.719494	1.91123	-22.1143	6.25267	0.270285	-0.0247662	102.614	14.5423	1	9	0.00480322	0.00251315	0	-3.22077e-05	0.484731	0.19697	0.523222	22.1143	14542.3	35787.8	38629.6	-67.8857	0.0000000E+000	0.0000000E+000	0.0000000E+000	67.8857	0.0000000E+000	0.0000000E+000	0.0000000E+000	-67.8857	0.0000000E+000	0.0000000E+000	0.0000000E+000	-22.1143	0.0000000E+000	0.0000000E+000	0.0000000E+000	22.1143	2.46094	67.8857	-5.37503e-06	-6.69395e-06	10913.5
1000.32	2.10854	0.960792	2.31713	-24.4972	7.18869	0.270288	-0.0253436	165.597	28.4716	1	9	0.00472525	0.00203927	0	-3.84106e-05	0.39272	0.17895	0.431569	24.4972	28471.6	62483.3	68664.4	-65.5028	0.0000000E+000	0.0000000E+000	0.0000000E+000	65.5028	0.0000000E+000	0.0000000E+000	0.0000000E+000	-65.5028	0.0000000E+000	0.0000000E+000	0.0000000E+000	-24.4972	0.0000000E+000	0.0000000E+000	0.0000000E+000	24.4972	2.19459	65.5028	-1.54136e-06	-6.85006e-06	10664.9
463.961	2.56032	1.31741	2.87938	-27.2281	8.12322	0.270292	-0.0215445	260.386	54.5085	1	9	0.00468717	0.00162784	0	-4.30655e-05	0.308814	0.158901	0.347298	27.2281	54508.5	105934	119135	-62.7719	0.0000000E+000	0.0000000E+000	0.0000000E+000	62.7719	0.0000000E+000	0.0000000E+000	0.0000000E+000	-62.7719	0.0000000E+000	0.0000000E+000	0.0000000E+000	-27.2281	0.0000000E+000	0.0000000E+000	0.0000000E+000	27.2281	1.94344	62.7719	-3.14009e-06	-5.8233e-06	12545.7
215.345	3.22663	1.85132	3.72002	-29.8455	9.31041	0.270313	-0.0287733	399.214	98.8729	1	10	0.00469265	0.00126146	0	-5.22659e-05	0.233163	0.13378	0.268816	29.8455	98872.9	172324	198674	-60.1545	0.0000000E+000	0.0000000E+000	0.0000000E+000	60.1545	0.0000000E+000	0.0000000E+000	0.0000000E+000	-60.1545	0.0000000E+000	0.0000000E+000	0.0000000E+000	-29.8455	0.0000000E+000	0.0000000E+000	0.0000000E+000	29.8455	1.74288	60.1544	-2.32041e-06	-7.77781e-06	9394.58
100.032	4.31292	2.55233	5.01155	-30.6165	10.2417	0.270316	-0.0285237	623.368	161.686	1	10	0.00468099	0.00093404	0	-6.06031e-05	0.171722	0.101623	0.199539	30.6165	161686	273217	317475	-59.3835	0.0000000E+000	0.0000000E+000	0.0000000E+000	59.3835	0.0000000E+000	0.0000000E+000	0.0000000E+000	-59.3835	0.0000000E+000	0.0000000E+000	0.0000000E+000	-30.6165	0.0000000E+000	0.0000000E+000	0.0000000E+000	30.6165	1.6898	59.3835	-4.31133e-06	-7.71043e-06	9476.88
46.4415	5.96753	3.05628	6.70464	-27.1194	11.1745	0.27031	-0.0299077	1121.3	233	1	10	0.00466393	0.000695627	0	-6.83257e-05	0.132753	0.0679896	0.14915	27.1194	233000	454943	511138	-62.8806	0.0000000E+000	0.0000000E+000	0.0000000E+000	62.8806	0.0000000E+000	0.0000000E+000	0.0000000E+000	-62.8806	0.0000000E+000	0.0000000E+000	0.0000000E+000	-27.1194	0.0000000E+000	0.0000000E+000	0.0000000E+000	27.1194	1.95254	62.8806	-3.88906e-06	-8.08434e-06	9038.15
[...]
0.464091	11.8533	1.16272	11.9102	-5.60238	27.1599	0.27034	-0.0124692	294945	2810.97	1	11	0.00466941	0.000392052	0	-0.000164845	0.0835607	0.00819671	0.0839618	5.60238	2.81097e+06	2.86563e+07	2.87938e+07	-84.3976	0.0000000E+000	0.0000000E+000	0.0000000E+000	84.3976	0.0000000E+000	0.0000000E+000	0.0000000E+000	-84.3976	0.0000000E+000	0.0000000E+000	0.0000000E+000	-5.60238	0.0000000E+000	0.0000000E+000	0.0000000E+000	5.60238	10.1944	84.3976	-1.9959e-05	-3.37092e-06	21680.7
0.215268	12.2098	1.40538	12.2904	-6.56602	43.6398	0.270336	-0.0106945	526074	6878.65	1	11	0.00466808	0.000379816	0	-0.000148485	0.0808306	0.00930384	0.0813643	6.56602	6.87865e+06	5.97609e+07	6.01555e+07	-83.434	0.0000000E+000	0.0000000E+000	0.0000000E+000	83.434	0.0000000E+000	0.0000000E+000	0.0000000E+000	-83.434	0.0000000E+000	0.0000000E+000	0.0000000E+000	-6.56602	0.0000000E+000	0.0000000E+000	0.0000000E+000	6.56602	8.68787	83.434	1.93464e-05	-2.8911e-06	25278.1
0.0999041	12.7456	2.01629	12.9041	-8.98939	79.0454	0.270329	-0.00403281	790102	19290	1	11	0.00466552	0.000361552	0	-9.30855e-05	0.0765427	0.0121086	0.0774945	8.98939	1.929e+07	1.21938e+08	1.23455e+08	-81.0106	0.0000000E+000	0.0000000E+000	0.0000000E+000	81.0106	0.0000000E+000	0.0000000E+000	0.0000000E+000	-81.0106	0.0000000E+000	0.0000000E+000	0.0000000E+000	-8.98939	0.0000000E+000	0.0000000E+000	0.0000000E+000	8.98939	6.32133	81.0106	2.13285e-05	-1.09018e-06	67032.4
0.0464052	13.488	3.25009	13.8741	-13.5478	155.282	0.27033	-0.000184912	1.05526e+06	57908.1	1	11	0.00466839	0.000336483	0	-0.000277651	0.0700712	0.0168844	0.0720768	13.5478	5.79082e+07	2.40322e+08	2.472e+08	-76.4522	0.0000000E+000	0.0000000E+000	0.0000000E+000	76.4522	0.0000000E+000	0.0000000E+000	0.0000000E+000	-76.4522	0.0000000E+000	0.0000000E+000	0.0000000E+000	-13.5478	0.0000000E+000	0.0000000E+000	0.0000000E+000	13.5478	4.15005	76.4522	-0.000156239	-4.99872e-08	1.46194e+06
0.0215268	14.7728	5.20576	15.6632	-19.4118	319.511	0.270329	-0.00207406	1.42023e+06	156879	1	11	0.00466836	0.000298047	0	-0.000960771	0.0602147	0.0212189	0.063844	19.4118	1.56879e+08	4.45188e+08	4.72021e+08	-70.5881	0.0000000E+000	0.0000000E+000	0.0000000E+000	70.5881	0.0000000E+000	0.0000000E+000	0.0000000E+000	-70.5881	0.0000000E+000	0.0000000E+000	0.0000000E+000	-19.4118	0.0000000E+000	0.0000000E+000	0.0000000E+000	19.4118	2.83778	70.5881	-0.0003777	-5.60678e-07	130338
0.0146812	15.5308	6.78619	16.9487	-23.603	530.95	0.270318	-0.00192415	1.59747e+06	256102	1	12	0.00466857	0.000275453	0	-0.00122985	0.0540657	0.0236241	0.0590017	23.603	2.56102e+08	5.86113e+08	6.39622e+08	-66.397	0.0000000E+000	0.0000000E+000	0.0000000E+000	66.397	0.0000000E+000	0.0000000E+000	0.0000000E+000	-66.397	0.0000000E+000	0.0000000E+000	0.0000000E+000	-23.603	0.0000000E+000	0.0000000E+000	0.0000000E+000	23.603	2.28859	66.397	-0.000269075	-5.20133e-07	140487

0.0100092	16.5303	8.85564	18.753	-28.1789	740.97	0.270317	-0.00224333	1.79557e+06	400406	1	12	0.00466794	0.000248917	0	-0.00101274	0.0470046	0.0251813	0.0533248	28.1789	4.00406e+08	7.47417e+08	8.47913e+08	-61.8211	0.0000000E+000	0.0000000E+000	0.0000000E+000	61.8211	0.0000000E+000	0.0000000E+000	0.0000000E+000	-61.8211	0.0000000E+000	0.0000000E+000	0.0000000E+000	-28.1789	0.0000000E+000	0.0000000E+000	0.0000000E+000	28.1789	1.86665	61.8211	0.000217107	-6.0641e-07	120499

File: 17688_R288_UA670_SOC00_C03.mpt
EC-Lab ASCII FILE
Nb header lines : 63

Potentio Electrochemical Impedance Spectroscopy

Run on channel : 3 (SN 65921)
User :
CE vs. WE compliance from -10 V to 10 V
Electrode connection : standard
Potential control : Ewe
Ewe ctrl range : min = -10.00 V, max = 10.00 V
Safety Limits :
	Do not start on E overload
Acquisition started on : 09/22/2025 08:43:48.679
Loaded Setting File :  C:\Users\Celltest\OneDrive - store-dot.com\Documents\EC-Lab\Data\Gyutae\17738_R277_UA674_SOC00_C02.mpr
Saved on :
	File : 17688_R288_UA670_SOC00_C03.mpr
	Directory : C:\Users\Celltest\OneDrive - store-dot.com\Documents\EC-Lab\Data\Charmaine\
	Host : 169.254.61.224
Device : VMP-3e (SN .003165)
Address : USB
EC-LAB for windows v11.62 (software)
Internet server v27.00 (firmware)
Command interpretor v12.03 (firmware)
Electrode material :
Initial state :
Electrolyte :
Comments :
Electrode surface area : 0.001 cm²
Characteristic mass : 0.001 g
Equivalent Weight : 0.000 g/eq.
Density : 0.000 g/cm3
Volume (V) : 0.001 cm³
Cycle Definition : Charge/Discharge alternance
Mode                Single sine
E (V)               0.0000
vs.                 Eoc
tE (h:m:s)          0:00:0.0000
record              0
dI                  0.000
unit dI             mA
dt (s)              0.000
fi                  100.000
unit fi             kHz
ff                  10.000
unit ff             mHz
Nd                  6
Points              per decade
spacing             Logarithmic
Va (mV)             5.0
pw                  0.10
Na                  2
corr                0
E range min (V)     -10.000
E range max (V)     10.000
I Range             Auto
Bandwidth           5
nc cycles           0
goto Ns'            0
nr cycles           0
inc. cycle          0

freq/Hz	Re(Z)/Ohm	-Im(Z)/Ohm	|Z|/Ohm	Phase(Z)/deg	time/s	<Ewe>/V	<I>/mA	Cs/µF	Cp/µF	cycle number	I Range	|Ewe|/V	|I|/A	Ns	(Q-Qo)/mA.h	Re(Y)/Ohm-1	Im(Y)/Ohm-1	|Y|/Ohm-1	Phase(Y)/deg	Re(C)/nF	Im(C)/nF	|C|/nF	Phase(C)/deg	Re(M)	Im(M)	|M|	Phase(M)/deg	Re(Permittivity)	Im(Permittivity)	|Permittivity|	Phase(Permittivity)/deg	Re(Resistivity)/Ohm.cm	Im(Resistivity)/Ohm.cm	|Resistivity|/Ohm.cm	Phase(Resistivity)/deg	Re(Conductivity)/mS/cm	Im(Conductivity)/mS/cm	|Conductivity|/mS/cm	Phase(Conductivity)/deg	Tan(Delta)	Loss Angle(Delta)/deg	dq/mA.h	Pwe/W	Rwe/Ohm
100004	0.966986	0.181456	0.983864	-10.628	1.86449	0.277666	0.025894	8.77066	0.298336	1	9	0.00467544	0.00475212	0	-1.20565e-05	0.998965	0.187457	1.0164	10.628	298.336	1589.84	1617.59	-79.372	0.0000000E+000	0.0000000E+000	0.0000000E+000	79.372	0.0000000E+000	0.0000000E+000	0.0000000E+000	-79.372	0.0000000E+000	0.0000000E+000	0.0000000E+000	-10.628	0.0000000E+000	0.0000000E+000	0.0000000E+000	10.628	5.32903	79.372	-1.20565e-05	7.18989e-06	10723.2
46420.4	1.05941	0.228704	1.08382	-12.1819	2.88048	0.277656	0.0296234	14.9913	0.667532	1	9	0.00505725	0.00466614	0	-2.32477e-05	0.901888	0.194697	0.922664	12.1819	667.532	3092.18	3163.41	-77.8181	0.0000000E+000	0.0000000E+000	0.0000000E+000	77.8181	0.0000000E+000	0.0000000E+000	0.0000000E+000	-77.8181	0.0000000E+000	0.0000000E+000	0.0000000E+000	-12.1819	0.0000000E+000	0.0000000E+000	0.0000000E+000	12.1819	4.63225	77.8181	-2.50947e-06	8.2251e-06	9372.85
21544.7	1.17065	0.301125	1.20876	-14.4254	3.75548	0.277626	0.0237497	24.5321	1.52247	1	9	0.00544305	0.00450302	0	-1.86596e-05	0.801215	0.206096	0.827297	14.4254	1522.47	5918.74	6111.41	-75.5746	0.0000000E+000	0.0000000E+000	0.0000000E+000	75.5746	0.0000000E+000	0.0000000E+000	0.0000000E+000	-75.5746	0.0000000E+000	0.0000000E+000	0.0000000E+000	-14.4254	0.0000000E+000	0.0000000E+000	0.0000000E+000	14.4254	3.88758	75.5746	7.34775e-06	6.59352e-06	11689.7
10002.2	1.31958	0.395039	1.37744	-16.666	4.62949	0.27763	0.0291758	40.2795	3.31297	1	9	0.0050371	0.00365685	0	-1.97602e-05	0.695488	0.208207	0.725985	16.666	3312.97	11066.6	11551.8	-73.334	0.0000000E+000	0.0000000E+000	0.0000000E+000	73.334	0.0000000E+000	0.0000000E+000	0.0000000E+000	-73.334	0.0000000E+000	0.0000000E+000	0.0000000E+000	-16.666	0.0000000E+000	0.0000000E+000	0.0000000E+000	16.666	3.34037	73.334	3.79698e-06	8.10009e-06	9515.77
4641.49	1.51656	0.525237	1.60494	-19.1027	5.47868	0.277625	0.0260245	65.2842	6.99196	1	9	0.0048891	0.00304628	0	-1.54428e-05	0.588765	0.203909	0.623075	19.1027	6991.96	20188.5	21365	-70.8973	0.0000000E+000	0.0000000E+000	0.0000000E+000	70.8973	0.0000000E+000	0.0000000E+000	0.0000000E+000	-70.8973	0.0000000E+000	0.0000000E+000	0.0000000E+000	-19.1027	0.0000000E+000	0.0000000E+000	0.0000000E+000	19.1027	2.88739	70.8973	5.65889e-06	7.22506e-06	10667.8
2155.69	1.76548	0.693711	1.89688	-21.4514	6.41267	0.277614	0.0282435	106.428	14.2342	1	9	0.00473632	0.0024969	0	-8.11842e-06	0.490662	0.192796	0.527181	21.4514	14234.2	36225.7	38921.9	-68.5486	0.0000000E+000	0.0000000E+000	0.0000000E+000	68.5486	0.0000000E+000	0.0000000E+000	0.0000000E+000	-68.5486	0.0000000E+000	0.0000000E+000	0.0000000E+000	-21.4514	0.0000000E+000	0.0000000E+000	0.0000000E+000	21.4514	2.54498	68.5486	4.84129e-06	7.84079e-06	9829.32
1000.32	2.08493	0.954278	2.29294	-24.5937	7.3487	0.27759	0.023992	166.727	28.8783	1	9	0.00466466	0.00203436	0	-2.39118e-06	0.396557	0.181506	0.436122	24.5937	28878.3	63093.9	69388.7	-65.4063	0.0000000E+000	0.0000000E+000	0.0000000E+000	65.4063	0.0000000E+000	0.0000000E+000	0.0000000E+000	-65.4063	0.0000000E+000	0.0000000E+000	0.0000000E+000	-24.5937	0.0000000E+000	0.0000000E+000	0.0000000E+000	24.5937	2.18482	65.4063	1.20481e-06	6.65995e-06	11570.1
463.961	2.51701	1.37241	2.86685	-28.6017	8.28318	0.277616	0.0244581	249.95	57.2814	1	9	0.00463253	0.0016159	0	2.9974e-06	0.306248	0.166984	0.348815	28.6017	57281.4	105054	119656	-61.3983	0.0000000E+000	0.0000000E+000	0.0000000E+000	61.3983	0.0000000E+000	0.0000000E+000	0.0000000E+000	-61.3983	0.0000000E+000	0.0000000E+000	0.0000000E+000	-28.6017	0.0000000E+000	0.0000000E+000	0.0000000E+000	28.6017	1.834	61.3983	3.65913e-06	6.78997e-06	11350.7
215.345	3.18092	2.02348	3.76997	-32.4617	9.47041	0.277615	-0.0196164	365.248	105.222	1	10	0.0046417	0.00123123	0	-3.28802e-07	0.223808	0.142371	0.265254	32.4617	105222	165410	196042	-57.5383	0.0000000E+000	0.0000000E+000	0.0000000E+000	57.5383	0.0000000E+000	0.0000000E+000	0.0000000E+000	-57.5383	0.0000000E+000	0.0000000E+000	0.0000000E+000	-32.4617	0.0000000E+000	0.0000000E+000	0.0000000E+000	32.4617	1.572	57.5383	-3.52784e-06	-5.44581e-06	14152.2
100.032	4.33152	2.91974	5.22369	-33.9827	10.4017	0.277608	-0.019402	544.925	170.244	1	10	0.00462605	0.00088559	0	-4.04716e-06	0.15874	0.107002	0.191436	33.9827	170244	252561	304582	-56.0173	0.0000000E+000	0.0000000E+000	0.0000000E+000	56.0173	0.0000000E+000	0.0000000E+000	0.0000000E+000	-56.0173	0.0000000E+000	0.0000000E+000	0.0000000E+000	-33.9827	0.0000000E+000	0.0000000E+000	0.0000000E+000	33.9827	1.48353	56.0173	-1.67327e-06	-5.38614e-06	14308.2
46.4415	6.2403	3.71103	7.26038	-30.7394	11.3356	0.277612	-0.0209681	923.463	241.262	1	10	0.00461001	0.000634955	0	-8.35461e-06	0.118382	0.0704005	0.137734	30.7394	241262	405696	472013	-59.2606	0.0000000E+000	0.0000000E+000	0.0000000E+000	59.2606	0.0000000E+000	0.0000000E+000	0.0000000E+000	-59.2606	0.0000000E+000	0.0000000E+000	0.0000000E+000	-30.7394	0.0000000E+000	0.0000000E+000	0.0000000E+000	30.7394	1.68156	59.2606	-2.53755e-06	-5.821e-06	13239.7
[...]
1.00006	13.59	1.61527	13.6857	-6.77821	19.5701	0.277641	-0.0106289	98525.2	1372.48	1	11	0.00460525	0.000336502	0	-2.74548e-05	0.0725584	0.00862408	0.0730691	6.77821	1.37248e+06	1.15473e+07	1.16286e+07	-83.2218	0.0000000E+000	0.0000000E+000	0.0000000E+000	83.2218	0.0000000E+000	0.0000000E+000	0.0000000E+000	-83.2218	0.0000000E+000	0.0000000E+000	0.0000000E+000	-6.77821	0.0000000E+000	0.0000000E+000	0.0000000E+000	6.77821	8.41347	83.2218	-3.73035e-06	-2.95102e-06	26121.3
0.464091	14.1549	1.4861	14.2327	-5.99344	27.2545	0.277651	-0.00748687	230765	2515.89	1	11	0.00461332	0.000324136	0	-7.46843e-05	0.0698768	0.00733626	0.0702608	5.99344	2.51589e+06	2.39635e+07	2.40952e+07	-84.0066	0.0000000E+000	0.0000000E+000	0.0000000E+000	84.0066	0.0000000E+000	0.0000000E+000	0.0000000E+000	-84.0066	0.0000000E+000	0.0000000E+000	0.0000000E+000	-5.99344	0.0000000E+000	0.0000000E+000	0.0000000E+000	5.99344	9.52485	84.0066	-3.12832e-05	-2.07874e-06	37085.1
0.215268	14.705	1.67117	14.7996	-6.48367	43.7326	0.277645	-0.0082199	442404	5641.07	1	11	0.00461369	0.000311744	0	-0.000150959	0.0671371	0.00762993	0.0675693	6.48367	5.64107e+06	4.96368e+07	4.99563e+07	-83.5163	0.0000000E+000	0.0000000E+000	0.0000000E+000	83.5163	0.0000000E+000	0.0000000E+000	0.0000000E+000	-83.5163	0.0000000E+000	0.0000000E+000	0.0000000E+000	-6.48367	0.0000000E+000	0.0000000E+000	0.0000000E+000	6.48367	8.79918	83.5163	-3.56498e-05	-2.28222e-06	33777.2
0.0999041	15.2602	2.35416	15.4407	-8.76978	79.1391	0.27765	-0.00646306	676708	15730.4	1	11	0.00461745	0.000299044	0	-0.000128232	0.0640068	0.00987421	0.064764	8.76978	1.57304e+07	1.01968e+08	1.03174e+08	-81.2302	0.0000000E+000	0.0000000E+000	0.0000000E+000	81.2302	0.0000000E+000	0.0000000E+000	0.0000000E+000	-81.2302	0.0000000E+000	0.0000000E+000	0.0000000E+000	-8.76978	0.0000000E+000	0.0000000E+000	0.0000000E+000	8.76978	6.48222	81.2302	3.34301e-05	-1.79447e-06	42959.5
0.0464052	16.2001	3.5516	16.5848	-12.3655	176.995	0.277653	-0.00179612	965671	44284.9	1	12	0.00461196	0.000278083	0	3.43039e-05	0.0588973	0.0129123	0.0602961	12.3655	4.42849e+07	2.01999e+08	2.06796e+08	-77.6345	0.0000000E+000	0.0000000E+000	0.0000000E+000	77.6345	0.0000000E+000	0.0000000E+000	0.0000000E+000	-77.6345	0.0000000E+000	0.0000000E+000	0.0000000E+000	-12.3655	0.0000000E+000	0.0000000E+000	0.0000000E+000	12.3655	4.56134	77.6345	8.90394e-05	-4.98698e-07	154585
0.0215268	17.5942	5.69005	18.4914	-17.9214	341.225	0.277656	0.000893695	1.29935e+06	123031	1	12	0.00461656	0.000249659	0	-0.000107739	0.0514551	0.0166408	0.0540791	17.9214	1.23031e+08	3.80426e+08	3.99825e+08	-72.0786	0.0000000E+000	0.0000000E+000	0.0000000E+000	72.0786	0.0000000E+000	0.0000000E+000	0.0000000E+000	-72.0786	0.0000000E+000	0.0000000E+000	0.0000000E+000	-17.9214	0.0000000E+000	0.0000000E+000	0.0000000E+000	17.9214	3.0921	72.0786	-0.000166584	2.48139e-07	310683
0.0100092	19.5973	9.02197	21.5743	-24.7199	694.439	0.277664	-0.00117342	1.76247e+06	308214	1	12	0.00461383	0.000213858	0	-0.00117581	0.042104	0.0193834	0.0463516	24.7199	3.08214e+08	6.69493e+08	7.37032e+08	-65.2801	0.0000000E+000	0.0000000E+000	0.0000000E+000	65.2801	0.0000000E+000	0.0000000E+000	0.0000000E+000	-65.2801	0.0000000E+000	0.0000000E+000	0.0000000E+000	-24.7199	0.0000000E+000	0.0000000E+000	0.0000000E+000	24.7199	2.17217	65.2801	-0.000630888	-3.25818e-07	236627