Folder: EIS/txt (part 121)

File: 18729_R302_UA699_SOC00_C04.mpt
EC-Lab ASCII FILE
Nb header lines : 65

Potentio Electrochemical Impedance Spectroscopy

Run on channel : 4 (SN 66756)
User :
CE vs. WE compliance from -10 V to 10 V
Electrode connection : standard
Potential control : Ewe
Ewe ctrl range : min = -10.00 V, max = 10.00 V
Safety Limits :
	Do not start on E overload
Acquisition started on : 10/31/2025 11:24:10.521
Technique started on : 10/31/2025 11:24:12.433
Loaded Setting File :  C:\Users\Celltest\OneDrive - store-dot.com\Documents\EC-Lab\Data\@Biologic Test Protocols\anode half cell EIS SOC00.mps
Saved on :
	File : 18729_R302_UA699_SOC00_C04.mpr
	Directory : C:\Users\Celltest\OneDrive - store-dot.com\Documents\EC-Lab\Data\Charmaine\
	Host : 169.254.61.224
Device : VMP-3e (SN .003165)
Address : USB
EC-LAB for windows v11.62 (software)
Internet server v27.00 (firmware)
Command interpretor v12.03 (firmware)
Electrode material :
Initial state :
Electrolyte :
Comments :
Electrode surface area : 0.001 cm²
Characteristic mass : 0.001 g
Equivalent Weight : 0.000 g/eq.
Density : 0.000 g/cm3
Volume (V) : 0.001 cm³
Record Ece
Cycle Definition : Charge/Discharge alternance
Mode                Single sine
E (V)               0.0000
vs.                 Eoc
tE (h:m:s)          0:00:0.0000
record              0
dI                  0.000
unit dI             mA
dt (s)              0.000
fi                  100.000
unit fi             kHz
ff                  10.000
unit ff             mHz
Nd                  6
Points              per decade
spacing             Logarithmic
Va (mV)             5.0
pw                  0.10
Na                  2
corr                0
E range min (V)     -10.000
E range max (V)     10.000
I Range             Auto
Bandwidth           5
nc cycles           0
goto Ns'            0
nr cycles           0
inc. cycle          0

freq/Hz	Re(Z)/Ohm	-Im(Z)/Ohm	|Z|/Ohm	Phase(Z)/deg	time/s	<Ewe>/V	<I>/mA	Cs/µF	Cp/µF	cycle number	I Range	|Ewe|/V	|I|/A	Ns	(Q-Qo)/mA.h	<Ece>/V	|Ece|/V	Phase(Zce)/deg	|Zce|/Ohm	Re(Zce)/Ohm	-Im(Zce)/Ohm	Phase(Zwe-ce)/deg	|Zwe-ce|/Ohm	Re(Zwe-ce)/Ohm	-Im(Zwe-ce)/Ohm	Re(Y)/Ohm-1	Im(Y)/Ohm-1	|Y|/Ohm-1	Phase(Y)/deg	Re(C)/nF	Im(C)/nF	|C|/nF	Phase(C)/deg	Re(M)	Im(M)	|M|	Phase(M)/deg	Re(Permittivity)	Im(Permittivity)	|Permittivity|	Phase(Permittivity)/deg	Re(Resistivity)/Ohm.cm	Im(Resistivity)/Ohm.cm	|Resistivity|/Ohm.cm	Phase(Resistivity)/deg	Re(Conductivity)/mS/cm	Im(Conductivity)/mS/cm	|Conductivity|/mS/cm	Phase(Conductivity)/deg	Tan(Delta)	Loss Angle(Delta)/deg	dq/mA.h	Pwe/W	Pce/W	Pwe-ce/W	<Ewe-Ece>/V	Rwe/Ohm	Rce/Ohm	Rwe-ce/Ohm		Ewe-Ece/V
100004	1.39435	0.742969	1.57994	-28.0507	1.91156	0.271973	-0.035455	2.14207	0.473691	1	9	0.00474359	0.00300239	0	-3.6751e-06	-0.000263931	3.02601e-05	85.2503	0.0100787	0.000834544	-0.010044	-27.7141	1.57598	1.39518	0.732925	0.558587	0.29764	0.632937	28.0507	473.691	888.985	1007.31	-61.9493	0.0000000E+000	0.0000000E+000	0.0000000E+000	61.9493	0.0000000E+000	0.0000000E+000	0.0000000E+000	-61.9493	0.0000000E+000	0.0000000E+000	0.0000000E+000	-28.0507	0.0000000E+000	0.0000000E+000	0.0000000E+000	28.0507	1.87672	61.9493	-3.6751e-06	-9.64282e-06	9.35768e-09	-9.65218e-06	0.272237	7670.94	7.44411	7678.38
31621.1	2.09111	0.992353	2.31463	-25.387	3.43455	0.27197	-0.0328815	5.07197	0.932277	1	9	0.00521567	0.00225335	0	-3.66911e-05	-0.000283041	9.78629e-06	-6.31548	0.004343	0.00431665	0.000477743	-25.352	2.31874	2.09543	0.992831	0.390314	0.185226	0.432034	25.387	932.277	1964.52	2174.51	-64.613	0.0000000E+000	0.0000000E+000	0.0000000E+000	64.613	0.0000000E+000	0.0000000E+000	0.0000000E+000	-64.613	0.0000000E+000	0.0000000E+000	0.0000000E+000	-25.387	0.0000000E+000	0.0000000E+000	0.0000000E+000	25.387	2.10723	64.613	-1.5526e-05	-8.94279e-06	9.30682e-09	-8.9521e-06	0.272253	8271.22	8.60791	8279.82
10002.2	2.84766	1.18368	3.08387	-22.5711	4.58356	0.271975	-0.0378421	13.4428	1.98045	1	9	0.00499634	0.00162015	0	-4.22851e-05	-9.19415e-05	5.91053e-06	-140.441	0.00364814	-0.00281259	0.00232341	-22.631	3.08217	2.84485	1.186	0.29943	0.124463	0.324268	22.5711	1980.45	4764.52	5159.73	-67.4289	0.0000000E+000	0.0000000E+000	0.0000000E+000	67.4289	0.0000000E+000	0.0000000E+000	0.0000000E+000	-67.4289	0.0000000E+000	0.0000000E+000	0.0000000E+000	-22.5711	0.0000000E+000	0.0000000E+000	0.0000000E+000	22.5711	2.40577	67.4289	-3.2829e-06	-1.02921e-05	3.47926e-09	-1.02956e-05	0.272067	7187.1	2.42961	7189.53
3163.08	3.65007	1.61461	3.99124	-23.8623	5.69063	0.271861	-0.0288477	31.1631	5.09992	1	10	0.00485893	0.0012174	0	-5.38291e-05	-0.000187491	7.07005e-06	49.8554	0.00580752	0.00374422	-0.00443938	-23.7823	3.99287	3.65382	1.61018	0.229132	0.101357	0.250549	23.8623	5099.92	11529.1	12606.7	-66.1377	0.0000000E+000	0.0000000E+000	0.0000000E+000	66.1377	0.0000000E+000	0.0000000E+000	0.0000000E+000	-66.1377	0.0000000E+000	0.0000000E+000	0.0000000E+000	-23.8623	0.0000000E+000	0.0000000E+000	0.0000000E+000	23.8623	2.26065	66.1377	-5.19021e-06	-7.84255e-06	5.40869e-09	-7.84796e-06	0.272048	9424	6.49935	9430.5
1000.32	4.68005	2.7723	5.43953	-30.641	7.04385	0.271862	-0.0189627	57.3907	14.9073	1	10	0.00470224	0.000864456	0	-6.00413e-05	-1.55017e-05	3.37262e-06	137.313	0.00390144	-0.00286782	-0.00264515	-30.6324	5.43571	4.67718	2.76965	0.158171	0.0936951	0.183839	30.641	14907.3	25165.7	29249.6	-59.359	0.0000000E+000	0.0000000E+000	0.0000000E+000	59.359	0.0000000E+000	0.0000000E+000	0.0000000E+000	-59.359	0.0000000E+000	0.0000000E+000	0.0000000E+000	-30.641	0.0000000E+000	0.0000000E+000	0.0000000E+000	30.641	1.68815	59.359	-1.81017e-06	-5.15525e-06	2.93954e-10	-5.15554e-06	0.271878	14336.7	0.817482	14337.5
316.316	6.7715	5.57739	8.77271	-39.4768	8.39206	0.27187	-0.0196081	90.2128	36.4639	1	10	0.00463738	0.000528615	0	-6.64395e-05	-0.000225711	1.0315e-05	27.5301	0.0195132	0.0173037	-0.00901928	-39.3596	8.78035	6.7888	5.56837	0.0879867	0.0724709	0.11399	39.4768	36463.9	44270.7	57354.2	-50.5232	0.0000000E+000	0.0000000E+000	0.0000000E+000	50.5232	0.0000000E+000	0.0000000E+000	0.0000000E+000	-50.5232	0.0000000E+000	0.0000000E+000	0.0000000E+000	-39.4768	0.0000000E+000	0.0000000E+000	0.0000000E+000	39.4768	1.2141	50.5232	-2.59306e-06	-5.33085e-06	4.42576e-09	-5.33528e-06	0.272096	13865.2	11.5111	13876.7
100.032	12.7485	10.055	16.2366	-38.2636	9.73985	0.271876	-0.0192276	158.233	60.6838	1	10	0.00464194	0.000285893	0	-7.3102e-05	-5.37216e-05	3.8294e-05	92.5252	0.133945	-0.00590144	-0.133815	-37.9038	16.1494	12.7426	9.92121	0.048358	0.038141	0.0615892	38.2636	60683.8	76939.4	97990.8	-51.7364	0.0000000E+000	0.0000000E+000	0.0000000E+000	51.7364	0.0000000E+000	0.0000000E+000	0.0000000E+000	-51.7364	0.0000000E+000	0.0000000E+000	0.0000000E+000	-38.2636	0.0000000E+000	0.0000000E+000	0.0000000E+000	38.2636	1.26787	51.7364	-2.69047e-06	-5.22752e-06	1.03294e-09	-5.22855e-06	0.27193	14139.9	2.79398	14142.7
[...]
1.00006	38.5472	6.03859	39.0173	-8.90327	19.4769	0.271931	-0.00442969	26354.6	631.266	1	12	0.00461676	0.000118326	0	-8.99847e-05	-0.000263931	2.61541e-06	17.1993	0.0221035	0.0211151	-0.00653594	-8.88899	39.0372	38.5683	6.03205	0.0253208	0.00396661	0.0256296	8.90327	631266	4.02968e+06	4.07882e+06	-81.0967	0.0000000E+000	0.0000000E+000	0.0000000E+000	81.0967	0.0000000E+000	0.0000000E+000	0.0000000E+000	-81.0967	0.0000000E+000	0.0000000E+000	0.0000000E+000	-8.90327	0.0000000E+000	0.0000000E+000	0.0000000E+000	8.90327	6.38348	81.0967	3.39387e-07	-1.20457e-06	1.16913e-09	-1.20574e-06	0.272195	61388.3	59.5823	61447.9
0.316193	42.8518	5.95651	43.2638	-7.91356	33.819	0.271936	-0.0030099	84503.7	1601.81	1	12	0.0046205	0.000106798	0	-9.34373e-05	0.000156488	2.65386e-06	2.93025	0.0248493	0.0248168	-0.0012703	-7.90737	43.2882	42.8766	5.95524	0.0228939	0.00318231	0.023114	7.91356	1.60181e+06	1.15236e+07	1.16344e+07	-82.0864	0.0000000E+000	0.0000000E+000	0.0000000E+000	82.0864	0.0000000E+000	0.0000000E+000	0.0000000E+000	-82.0864	0.0000000E+000	0.0000000E+000	0.0000000E+000	-7.91356	0.0000000E+000	0.0000000E+000	0.0000000E+000	7.91356	7.19411	82.0864	-5.31016e-06	-8.185e-07	-4.71013e-10	-8.18029e-07	0.27178	90347.3	51.9911	90295.3
0.0999041	46.7484	6.70025	47.2261	-8.15642	79.0271	0.271932	-0.00205689	237764	4785.9	1	12	0.00461754	9.77752e-05	0	-0.0001751	-0.000130161	2.50247e-06	33.3233	0.0255941	0.021386	-0.0140604	-8.13586	47.2453	46.7698	6.68619	0.0209605	0.00300419	0.0211747	8.15642	4.7859e+06	3.33918e+07	3.3733e+07	-81.8436	0.0000000E+000	0.0000000E+000	0.0000000E+000	81.8436	0.0000000E+000	0.0000000E+000	0.0000000E+000	-81.8436	0.0000000E+000	0.0000000E+000	0.0000000E+000	-8.15642	0.0000000E+000	0.0000000E+000	0.0000000E+000	8.15642	6.97711	81.8436	-3.76785e-05	-5.59334e-07	2.67727e-10	-5.59602e-07	0.272062	132206	63.2808	132269
0.0315922	51.0875	10.1834	52.0926	-11.2731	221.912	0.271924	-0.00182488	494708	18905.1	1	12	0.00462112	8.87098e-05	0	-0.000213349	-3.46116e-05	2.5277e-06	-24.986	0.028494	0.0258273	0.0120358	-11.2805	52.1202	51.1133	10.1954	0.0188262	0.00375267	0.0191966	11.2731	1.89051e+07	9.48426e+07	9.67085e+07	-78.7269	0.0000000E+000	0.0000000E+000	0.0000000E+000	78.7269	0.0000000E+000	0.0000000E+000	0.0000000E+000	-78.7269	0.0000000E+000	0.0000000E+000	0.0000000E+000	-11.2731	0.0000000E+000	0.0000000E+000	0.0000000E+000	11.2731	5.01676	78.7269	2.09583e-05	-4.96228e-07	6.31621e-11	-4.96291e-07	0.271958	149009	18.9665	149028
0.0100092	57.7912	19.002	60.835	-18.2011	673.135	0.271933	5.5968e-05	836801	81642.1	1	12	0.0046204	7.59497e-05	0	3.98462e-05	-0.000187491	3.18993e-06	-13.9719	0.0420005	0.0407579	0.0101409	-18.1982	60.8769	57.832	19.0122	0.0156154	0.00513443	0.0164379	18.2011	8.16421e+07	2.483e+08	2.61378e+08	-71.7989	0.0000000E+000	0.0000000E+000	0.0000000E+000	71.7989	0.0000000E+000	0.0000000E+000	0.0000000E+000	-71.7989	0.0000000E+000	0.0000000E+000	0.0000000E+000	-18.2011	0.0000000E+000	0.0000000E+000	0.0000000E+000	18.2011	3.04132	71.7989	6.76984e-05	1.52195e-08	-1.04935e-11	1.523e-08	0.27212	4.85871e+06	3349.97	4.86206e+06

File: 18730_R302_UA699_SOC00_C05.mpt
EC-Lab ASCII FILE
Nb header lines : 65

Potentio Electrochemical Impedance Spectroscopy

Run on channel : 5 (SN 65912)
User :
CE vs. WE compliance from -10 V to 10 V
Electrode connection : standard
Potential control : Ewe
Ewe ctrl range : min = -10.00 V, max = 10.00 V
Safety Limits :
	Do not start on E overload
Acquisition started on : 10/31/2025 11:24:16.949
Technique started on : 10/31/2025 11:24:18.872
Loaded Setting File :  C:\Users\Celltest\OneDrive - store-dot.com\Documents\EC-Lab\Data\@Biologic Test Protocols\anode half cell EIS SOC00.mps
Saved on :
	File : 18730_R302_UA699_SOC00_C05.mpr
	Directory : C:\Users\Celltest\OneDrive - store-dot.com\Documents\EC-Lab\Data\Charmaine\
	Host : 169.254.61.224
Device : VMP-3e (SN .003165)
Address : USB
EC-LAB for windows v11.62 (software)
Internet server v27.00 (firmware)
Command interpretor v12.03 (firmware)
Electrode material :
Initial state :
Electrolyte :
Comments :
Electrode surface area : 0.001 cm²
Characteristic mass : 0.001 g
Equivalent Weight : 0.000 g/eq.
Density : 0.000 g/cm3
Volume (V) : 0.001 cm³
Record Ece
Cycle Definition : Charge/Discharge alternance
Mode                Single sine
E (V)               0.0000
vs.                 Eoc
tE (h:m:s)          0:00:0.0000
record              0
dI                  0.000
unit dI             mA
dt (s)              0.000
fi                  100.000
unit fi             kHz
ff                  10.000
unit ff             mHz
Nd                  6
Points              per decade
spacing             Logarithmic
Va (mV)             5.0
pw                  0.10
Na                  2
corr                0
E range min (V)     -10.000
E range max (V)     10.000
I Range             Auto
Bandwidth           5
nc cycles           0
goto Ns'            0
nr cycles           0
inc. cycle          0

freq/Hz	Re(Z)/Ohm	-Im(Z)/Ohm	|Z|/Ohm	Phase(Z)/deg	time/s	<Ewe>/V	<I>/mA	Cs/µF	Cp/µF	cycle number	I Range	|Ewe|/V	|I|/A	Ns	(Q-Qo)/mA.h	<Ece>/V	|Ece|/V	Phase(Zce)/deg	|Zce|/Ohm	Re(Zce)/Ohm	-Im(Zce)/Ohm	Phase(Zwe-ce)/deg	|Zwe-ce|/Ohm	Re(Zwe-ce)/Ohm	-Im(Zwe-ce)/Ohm	Re(Y)/Ohm-1	Im(Y)/Ohm-1	|Y|/Ohm-1	Phase(Y)/deg	Re(C)/nF	Im(C)/nF	|C|/nF	Phase(C)/deg	Re(M)	Im(M)	|M|	Phase(M)/deg	Re(Permittivity)	Im(Permittivity)	|Permittivity|	Phase(Permittivity)/deg	Re(Resistivity)/Ohm.cm	Im(Resistivity)/Ohm.cm	|Resistivity|/Ohm.cm	Phase(Resistivity)/deg	Re(Conductivity)/mS/cm	Im(Conductivity)/mS/cm	|Conductivity|/mS/cm	Phase(Conductivity)/deg	Tan(Delta)	Loss Angle(Delta)/deg	dq/mA.h	Pwe/W	Pce/W	Pwe-ce/W	<Ewe-Ece>/V	Rwe/Ohm	Rce/Ohm	Rwe-ce/Ohm		Ewe-Ece/V
100004	1.89447	0.756327	2.03986	-21.7633	1.92256	0.272077	0.00191497	2.10424	0.289276	1	9	0.00628002	0.00307865	0	-2.52563e-06	0.000130363	2.58362e-05	49.6576	0.00839207	0.00543264	-0.00639634	-21.5402	2.04255	1.8999	0.749931	0.455287	0.181764	0.490229	21.7633	289.276	724.585	780.195	-68.2367	0.0000000E+000	0.0000000E+000	0.0000000E+000	68.2367	0.0000000E+000	0.0000000E+000	0.0000000E+000	-68.2367	0.0000000E+000	0.0000000E+000	0.0000000E+000	-21.7633	0.0000000E+000	0.0000000E+000	0.0000000E+000	21.7633	2.50483	68.2367	-2.52563e-06	5.21018e-07	2.49641e-10	5.20769e-07	0.271946	142079	68.0758	142011
31621.1	2.63447	1.22291	2.90447	-24.9005	3.81552	0.271947	-0.0157367	4.11576	0.72963	1	9	0.00538642	0.00185453	0	8.14456e-06	-9.87315e-05	1.39238e-05	21.2864	0.00750799	0.00699577	-0.00272563	-24.7938	2.90967	2.64146	1.22018	0.312292	0.144964	0.344297	24.9005	729.63	1571.82	1732.91	-65.0995	0.0000000E+000	0.0000000E+000	0.0000000E+000	65.0995	0.0000000E+000	0.0000000E+000	0.0000000E+000	-65.0995	0.0000000E+000	0.0000000E+000	0.0000000E+000	-24.9005	0.0000000E+000	0.0000000E+000	0.0000000E+000	24.9005	2.15427	65.0995	-5.33989e-06	-4.27956e-06	1.55371e-09	-4.28112e-06	0.272046	17281	6.27395	17287.3
10002.2	3.59572	1.43968	3.87322	-21.8206	4.96652	0.271925	-0.00799087	11.0524	1.52702	1	9	0.00481519	0.0012432	0	2.55597e-06	0.000111272	4.99468e-06	-109.358	0.0040176	-0.00133173	0.00379046	-21.8799	3.8734	3.59438	1.44347	0.239685	0.0959669	0.258183	21.8206	1527.02	3813.85	4108.19	-68.1794	0.0000000E+000	0.0000000E+000	0.0000000E+000	68.1794	0.0000000E+000	0.0000000E+000	0.0000000E+000	-68.1794	0.0000000E+000	0.0000000E+000	0.0000000E+000	-21.8206	0.0000000E+000	0.0000000E+000	0.0000000E+000	21.8206	2.49758	68.1794	-3.4221e-07	-2.17292e-06	-8.89159e-10	-2.17203e-06	0.271814	34029.5	13.9249	34015.6
3163.08	4.53073	1.82622	4.88494	-21.9531	6.62361	0.271886	-0.0135628	27.5522	3.85075	1	10	0.00514236	0.0010527	0	3.22644e-06	9.21806e-05	5.27643e-06	-137.095	0.00501229	-0.00367139	0.00341232	-22.0063	4.88281	4.52706	1.82963	0.189867	0.0765306	0.204711	21.9531	3850.75	9553.45	10300.3	-68.0469	0.0000000E+000	0.0000000E+000	0.0000000E+000	68.0469	0.0000000E+000	0.0000000E+000	0.0000000E+000	-68.0469	0.0000000E+000	0.0000000E+000	0.0000000E+000	-21.9531	0.0000000E+000	0.0000000E+000	0.0000000E+000	21.9531	2.48093	68.0469	-5.0668e-07	-3.68753e-06	-1.25023e-09	-3.68628e-06	0.271794	20046.5	6.79659	20039.7
1000.32	5.67688	2.99908	6.4204	-27.8474	7.97784	0.271921	-0.00474948	53.0509	11.5757	1	10	0.00522834	0.000814333	0	5.72757e-07	-3.27544e-06	8.14573e-06	-63.3079	0.0100029	0.00449328	0.00893696	-27.8991	6.42855	5.68138	3.00802	0.137717	0.0727553	0.155754	27.8474	11575.7	21911.3	24781	-62.1526	0.0000000E+000	0.0000000E+000	0.0000000E+000	62.1526	0.0000000E+000	0.0000000E+000	0.0000000E+000	-62.1526	0.0000000E+000	0.0000000E+000	0.0000000E+000	-27.8474	0.0000000E+000	0.0000000E+000	0.0000000E+000	27.8474	1.89287	62.1526	-1.36904e-06	-1.29148e-06	1.55566e-11	-1.2915e-06	0.271924	57252.7	0.689641	57253.4
316.316	7.88008	5.88952	9.83779	-36.7742	9.54108	0.271917	-0.00550907	85.4318	30.6185	1	10	0.00457937	0.000465488	0	-1.29272e-06	-3.27544e-06	9.21203e-06	-12.3099	0.0197901	0.0193351	0.00421922	-36.7265	9.85581	7.89942	5.89374	0.0814209	0.0608534	0.101649	36.7742	30618.5	40967.1	51144.8	-53.2258	0.0000000E+000	0.0000000E+000	0.0000000E+000	53.2258	0.0000000E+000	0.0000000E+000	0.0000000E+000	-53.2258	0.0000000E+000	0.0000000E+000	0.0000000E+000	-36.7742	0.0000000E+000	0.0000000E+000	0.0000000E+000	36.7742	1.33798	53.2258	-7.34709e-07	-1.49801e-06	1.80446e-11	-1.49803e-06	0.27192	49358	0.594554	49358.6
100.032	14.0383	10.8052	17.7151	-37.5851	10.8878	0.271901	-0.00800748	147.248	54.7801	1	10	0.00449579	0.000253783	0	-3.33967e-06	0.000206728	8.63382e-06	-84.3973	0.0340205	0.00332141	0.033858	-37.6652	17.7384	14.0417	10.839	0.0447328	0.0344304	0.0564489	37.5851	54780.1	71171.7	89812.4	-52.4149	0.0000000E+000	0.0000000E+000	0.0000000E+000	52.4149	0.0000000E+000	0.0000000E+000	0.0000000E+000	-52.4149	0.0000000E+000	0.0000000E+000	0.0000000E+000	-37.5851	0.0000000E+000	0.0000000E+000	0.0000000E+000	37.5851	1.29922	52.4149	-1.25148e-06	-2.17724e-06	-1.65537e-09	-2.17559e-06	0.271694	33955.9	25.8168	33930
[...]
1.00006	43.3242	6.58905	43.8224	-8.64767	20.857	0.271939	-0.003191	24152.9	546.037	1	12	0.00487369	0.000111214	0	-1.86594e-05	0.000302184	9.45359e-07	-125.719	0.00850033	-0.00496252	0.00690138	-8.65757	43.8186	43.3193	6.59595	0.0225599	0.00343107	0.0228194	8.64767	546037	3.5903e+06	3.63158e+06	-81.3523	0.0000000E+000	0.0000000E+000	0.0000000E+000	81.3523	0.0000000E+000	0.0000000E+000	0.0000000E+000	-81.3523	0.0000000E+000	0.0000000E+000	0.0000000E+000	-8.64767	0.0000000E+000	0.0000000E+000	0.0000000E+000	8.64767	6.57519	81.3523	-2.04907e-06	-8.67756e-07	-9.64268e-10	-8.66792e-07	0.271637	85220.6	94.6989	85125.9
0.316193	47.8797	6.49309	48.318	-7.72292	35.2018	0.271924	-0.00279615	77520.5	1399.92	1	12	0.00486782	0.000100746	0	-1.31465e-05	0.000321275	2.55728e-06	-27.9696	0.0253835	0.0224186	0.0119049	-7.73333	48.3418	47.9021	6.50499	0.0205085	0.00278121	0.0206962	7.72292	1.39992e+06	1.03229e+07	1.04174e+07	-82.2771	0.0000000E+000	0.0000000E+000	0.0000000E+000	82.2771	0.0000000E+000	0.0000000E+000	0.0000000E+000	-82.2771	0.0000000E+000	0.0000000E+000	0.0000000E+000	-7.72292	0.0000000E+000	0.0000000E+000	0.0000000E+000	7.72292	7.37395	82.2771	2.53187e-06	-7.60342e-07	-8.98334e-10	-7.59443e-07	0.271603	97249.6	114.899	97134.7
0.0999041	52.2347	7.47525	52.7669	-8.14424	80.4098	0.271925	-0.00124624	213114	4277.01	1	12	0.00487133	9.2318e-05	0	-6.13694e-05	5.39982e-05	2.4713e-06	-18.8995	0.0267694	0.0253262	0.00867086	-8.14966	52.7932	52.26	7.48392	0.0187602	0.00268474	0.0189513	8.14424	4.277e+06	2.98864e+07	3.01909e+07	-81.8558	0.0000000E+000	0.0000000E+000	0.0000000E+000	81.8558	0.0000000E+000	0.0000000E+000	0.0000000E+000	-81.8558	0.0000000E+000	0.0000000E+000	0.0000000E+000	-8.14424	0.0000000E+000	0.0000000E+000	0.0000000E+000	8.14424	6.98769	81.8558	-3.12201e-05	-3.38882e-07	-6.72945e-11	-3.38815e-07	0.271871	218197	43.3291	218154
0.0315922	57.4501	11.0597	58.5049	-10.8967	223.293	0.271927	-0.00150027	455508	16278	1	12	0.00486861	8.32171e-05	0	-0.000192781	0.000206728	1.69557e-06	-15.2854	0.0203752	0.0196545	0.00537146	-10.8983	58.5253	57.4697	11.0651	0.0167844	0.00323117	0.0170926	10.8967	1.62779e+07	8.45562e+07	8.61088e+07	-79.1033	0.0000000E+000	0.0000000E+000	0.0000000E+000	79.1033	0.0000000E+000	0.0000000E+000	0.0000000E+000	-79.1033	0.0000000E+000	0.0000000E+000	0.0000000E+000	-10.8967	0.0000000E+000	0.0000000E+000	0.0000000E+000	10.8967	5.19453	79.1033	-3.36311e-05	-4.07963e-07	-3.10148e-10	-4.07653e-07	0.27172	181252	137.794	181114
0.0100092	64.3919	20.3148	67.5204	-17.5098	674.516	0.271928	-0.000337901	782725	70854.1	1	12	0.0048739	7.21841e-05	0	9.43199e-05	9.21806e-05	2.04866e-06	-6.83095	0.0283811	0.0281796	0.00337565	-17.5054	67.5483	64.4201	20.3182	0.0141241	0.00445598	0.0148103	17.5098	7.08541e+07	2.24586e+08	2.35498e+08	-72.4902	0.0000000E+000	0.0000000E+000	0.0000000E+000	72.4902	0.0000000E+000	0.0000000E+000	0.0000000E+000	-72.4902	0.0000000E+000	0.0000000E+000	0.0000000E+000	-17.5098	0.0000000E+000	0.0000000E+000	0.0000000E+000	17.5098	3.1697	72.4902	0.000166507	-9.18848e-08	-3.1148e-11	-9.18537e-08	0.271836	804756	272.803	804483