Folder: EIS/txt (part 6)

File: 16434_R270_UA640_SOC00_C05.mpt
EC-Lab ASCII FILE
Nb header lines : 63

Potentio Electrochemical Impedance Spectroscopy

Run on channel : 5 (SN 65912)
User :
CE vs. WE compliance from -10 V to 10 V
Electrode connection : standard
Potential control : Ewe
Ewe ctrl range : min = -10.00 V, max = 10.00 V
Safety Limits :
	Do not start on E overload
Acquisition started on : 09/15/2025 10:34:31.030
Loaded Setting File :  C:\Users\Celltest\OneDrive - store-dot.com\Documents\EC-Lab\Data\Gyutae\16432.mps
Saved on :
	File : 16434_R270-A001 HG-1800_C05.mpr
	Directory : C:\Users\Celltest\OneDrive - store-dot.com\Documents\EC-Lab\Data\Gyutae\
	Host : 169.254.61.224
Device : VMP-3e (SN .003165)
Address : USB
EC-LAB for windows v11.62 (software)
Internet server v27.00 (firmware)
Command interpretor v12.03 (firmware)
Electrode material :
Initial state :
Electrolyte :
Comments :
Electrode surface area : 0.001 cm²
Characteristic mass : 0.001 g
Equivalent Weight : 0.000 g/eq.
Density : 0.000 g/cm3
Volume (V) : 0.001 cm³
Cycle Definition : Charge/Discharge alternance
Mode                Single sine
E (V)               0.0000
vs.                 Eoc
tE (h:m:s)          0:00:0.0000
record              0
dI                  0.000
unit dI             mA
dt (s)              0.000
fi                  100.000
unit fi             kHz
ff                  10.000
unit ff             mHz
Nd                  6
Points              per decade
spacing             Logarithmic
Va (mV)             5.0
pw                  0.10
Na                  2
corr                0
E range min (V)     -10.000
E range max (V)     10.000
I Range             Auto
Bandwidth           5
nc cycles           0
goto Ns'            0
nr cycles           0
inc. cycle          0

freq/Hz	Re(Z)/Ohm	-Im(Z)/Ohm	|Z|/Ohm	Phase(Z)/deg	time/s	<Ewe>/V	<I>/mA	Cs/µF	Cp/µF	cycle number	I Range	|Ewe|/V	|I|/A	Ns	(Q-Qo)/mA.h	Re(Y)/Ohm-1	Im(Y)/Ohm-1	|Y|/Ohm-1	Phase(Y)/deg	Re(C)/nF	Im(C)/nF	|C|/nF	Phase(C)/deg	Re(M)	Im(M)	|M|	Phase(M)/deg	Re(Permittivity)	Im(Permittivity)	|Permittivity|	Phase(Permittivity)/deg	Re(Resistivity)/Ohm.cm	Im(Resistivity)/Ohm.cm	|Resistivity|/Ohm.cm	Phase(Resistivity)/deg	Re(Conductivity)/mS/cm	Im(Conductivity)/mS/cm	|Conductivity|/mS/cm	Phase(Conductivity)/deg	Tan(Delta)	Loss Angle(Delta)/deg	dq/mA.h	Pwe/W	Rwe/Ohm
100004	1.64875	0.314583	1.67849	-10.8022	2.22749	0.302101	-0.0147685	5.05905	0.177705	1	9	0.00492742	0.00293562	0	-9.05132e-06	0.585215	0.111659	0.595772	10.8022	177.705	931.364	948.166	-79.1978	0.0000000E+000	0.0000000E+000	0.0000000E+000	79.1978	0.0000000E+000	0.0000000E+000	0.0000000E+000	-79.1978	0.0000000E+000	0.0000000E+000	0.0000000E+000	-10.8022	0.0000000E+000	0.0000000E+000	0.0000000E+000	10.8022	5.24107	79.1978	-9.05132e-06	-4.46157e-06	20455.8
46420.4	1.80217	0.401366	1.84632	-12.5556	3.10148	0.302089	-0.0175428	8.54223	0.403681	1	9	0.00537374	0.00291051	0	-1.41582e-05	0.528665	0.117741	0.541618	12.5556	403.681	1812.56	1856.97	-77.4444	0.0000000E+000	0.0000000E+000	0.0000000E+000	77.4444	0.0000000E+000	0.0000000E+000	0.0000000E+000	-77.4444	0.0000000E+000	0.0000000E+000	0.0000000E+000	-12.5556	0.0000000E+000	0.0000000E+000	0.0000000E+000	12.5556	4.49008	77.4444	-5.70339e-07	-5.29949e-06	17220
21544.7	1.99539	0.520801	2.06224	-14.628	3.97648	0.302089	-0.0187159	14.1843	0.904635	1	9	0.00534657	0.0025926	0	-2.10421e-05	0.469192	0.12246	0.48491	14.628	904.635	3466.02	3582.13	-75.372	0.0000000E+000	0.0000000E+000	0.0000000E+000	75.372	0.0000000E+000	0.0000000E+000	0.0000000E+000	-75.372	0.0000000E+000	0.0000000E+000	0.0000000E+000	-14.628	0.0000000E+000	0.0000000E+000	0.0000000E+000	14.628	3.8314	75.372	-3.97916e-06	-5.65386e-06	16140.8
10002.2	2.24881	0.691009	2.35258	-17.081	4.85049	0.302079	-0.019498	23.0271	1.98664	1	9	0.00532226	0.00226231	0	-2.9334e-05	0.406316	0.124852	0.425065	17.081	1986.63	6465.28	6763.62	-72.919	0.0000000E+000	0.0000000E+000	0.0000000E+000	72.919	0.0000000E+000	0.0000000E+000	0.0000000E+000	-72.919	0.0000000E+000	0.0000000E+000	0.0000000E+000	-17.081	0.0000000E+000	0.0000000E+000	0.0000000E+000	17.081	3.25439	72.919	-2.38132e-06	-5.88993e-06	15492.9
4641.49	2.59353	0.926933	2.7542	-19.667	6.09971	0.30209	-0.0161464	36.9926	4.19007	1	9	0.00501594	0.0018212	0	-3.49132e-05	0.341902	0.122196	0.363082	19.667	4190.07	11723.7	12450	-70.333	0.0000000E+000	0.0000000E+000	0.0000000E+000	70.333	0.0000000E+000	0.0000000E+000	0.0000000E+000	-70.333	0.0000000E+000	0.0000000E+000	0.0000000E+000	-19.667	0.0000000E+000	0.0000000E+000	0.0000000E+000	19.667	2.79797	70.333	-4.8461e-06	-4.87767e-06	18709.5
2155.69	3.00791	1.22768	3.2488	-22.2029	7.03371	0.302095	-0.0130741	60.1378	8.58765	1	9	0.00514166	0.00158263	0	-4.00116e-05	0.284983	0.116316	0.307806	22.2029	8587.65	21040.3	22725.4	-67.7971	0.0000000E+000	0.0000000E+000	0.0000000E+000	67.7971	0.0000000E+000	0.0000000E+000	0.0000000E+000	-67.7971	0.0000000E+000	0.0000000E+000	0.0000000E+000	-22.2029	0.0000000E+000	0.0000000E+000	0.0000000E+000	22.2029	2.45007	67.7971	-3.62345e-06	-3.94961e-06	23106.3
1000.32	3.48325	1.74211	3.89461	-26.5714	8.22371	0.302097	-0.00997528	91.3283	18.2738	1	10	0.005109	0.00131181	0	-4.26759e-05	0.229645	0.114854	0.256765	26.5714	18273.8	36537.4	40852.4	-63.4286	0.0000000E+000	0.0000000E+000	0.0000000E+000	63.4286	0.0000000E+000	0.0000000E+000	0.0000000E+000	-63.4286	0.0000000E+000	0.0000000E+000	0.0000000E+000	-26.5714	0.0000000E+000	0.0000000E+000	0.0000000E+000	26.5714	1.99944	63.4286	-1.04904e-06	-3.0135e-06	30284.6
463.961	4.09866	2.70163	4.90895	-33.3908	9.15819	0.302105	-0.00968485	126.974	38.458	1	10	0.00499427	0.00101738	0	-4.47918e-05	0.170084	0.112111	0.20371	33.3908	38458.1	58345	69879.6	-56.6092	0.0000000E+000	0.0000000E+000	0.0000000E+000	56.6092	0.0000000E+000	0.0000000E+000	0.0000000E+000	-56.6092	0.0000000E+000	0.0000000E+000	0.0000000E+000	-33.3908	0.0000000E+000	0.0000000E+000	0.0000000E+000	33.3908	1.51711	56.6092	-1.64484e-06	-2.92584e-06	31193.6
215.345	5.13727	4.53855	6.85492	-41.4591	10.0925	0.302107	-0.0092362	162.843	71.3835	1	10	0.00493373	0.000719735	0	-4.74416e-05	0.109327	0.0965854	0.145881	41.4591	71383.5	80800.4	107816	-48.5409	0.0000000E+000	0.0000000E+000	0.0000000E+000	48.5409	0.0000000E+000	0.0000000E+000	0.0000000E+000	-48.5409	0.0000000E+000	0.0000000E+000	0.0000000E+000	-41.4591	0.0000000E+000	0.0000000E+000	0.0000000E+000	41.4591	1.13192	48.5409	-1.01476e-06	-2.79032e-06	32709
100.032	7.38347	7.66159	10.6403	-46.059	11.0237	0.302108	-0.00936653	207.664	107.67	1	10	0.00489714	0.000460245	0	-4.93219e-05	0.065216	0.0676726	0.0939825	46.059	107670	103761	149530	-43.941	0.0000000E+000	0.0000000E+000	0.0000000E+000	43.941	0.0000000E+000	0.0000000E+000	0.0000000E+000	-43.941	0.0000000E+000	0.0000000E+000	0.0000000E+000	-46.059	0.0000000E+000	0.0000000E+000	0.0000000E+000	46.059	0.9637	43.941	-8.5577e-07	-2.8297e-06	32254
46.4415	12.4233	11.574	16.9793	-42.9729	11.9575	0.302108	-0.0095285	296.095	137.58	1	10	0.00489107	0.000288061	0	-5.10967e-05	0.0430923	0.0401461	0.0588953	42.9729	137580	147677	201834	-47.0271	0.0000000E+000	0.0000000E+000	0.0000000E+000	47.0271	0.0000000E+000	0.0000000E+000	0.0000000E+000	-47.0271	0.0000000E+000	0.0000000E+000	0.0000000E+000	-42.9729	0.0000000E+000	0.0000000E+000	0.0000000E+000	42.9729	1.07339	47.0271	-8.96203e-07	-2.87864e-06	31705.8
[...]
1.00006	40.4068	4.95742	40.7098	-6.99454	20.9641	0.302135	-0.00303245	32102.3	476.049	1	12	0.00488697	0.000120044	0	-5.87154e-05	0.0243813	0.00299129	0.0245641	6.99454	476049	3.88016e+06	3.90925e+06	-83.0055	0.0000000E+000	0.0000000E+000	0.0000000E+000	83.0055	0.0000000E+000	0.0000000E+000	0.0000000E+000	-83.0055	0.0000000E+000	0.0000000E+000	0.0000000E+000	-6.99454	0.0000000E+000	0.0000000E+000	0.0000000E+000	6.99454	8.15076	83.0055	-2.21027e-06	-9.16211e-07	99634.1
0.464091	41.9591	3.64686	42.1173	-4.96736	28.6488	0.302134	-0.0025996	94036.8	705.042	1	12	0.0048882	0.000116061	0	-7.63353e-05	0.023654	0.00205588	0.0237432	4.96736	705043	8.1119e+06	8.14248e+06	-85.0326	0.0000000E+000	0.0000000E+000	0.0000000E+000	85.0326	0.0000000E+000	0.0000000E+000	0.0000000E+000	-85.0326	0.0000000E+000	0.0000000E+000	0.0000000E+000	-4.96736	0.0000000E+000	0.0000000E+000	0.0000000E+000	4.96736	11.5055	85.0326	-1.10749e-05	-7.85427e-07	116223
0.215268	43.045	3.20505	43.1641	-4.25828	45.1288	0.302135	-0.00285528	230678	1271.83	1	12	0.00488893	0.000113264	0	-9.71478e-05	0.0231034	0.00172024	0.0231674	4.25828	1.27183e+06	1.70812e+07	1.71284e+07	-85.7417	0.0000000E+000	0.0000000E+000	0.0000000E+000	85.7417	0.0000000E+000	0.0000000E+000	0.0000000E+000	-85.7417	0.0000000E+000	0.0000000E+000	0.0000000E+000	-4.25828	0.0000000E+000	0.0000000E+000	0.0000000E+000	4.25828	13.4304	85.7417	-8.46906e-06	-8.62678e-07	105816
0.0999041	43.8612	3.78351	44.024	-4.93019	80.5343	0.302131	-0.00241637	421058	3109.94	1	12	0.00488905	0.000111054	0	-8.0305e-05	0.0226308	0.00195216	0.0227149	4.93019	3.10994e+06	3.60526e+07	3.61865e+07	-85.0698	0.0000000E+000	0.0000000E+000	0.0000000E+000	85.0698	0.0000000E+000	0.0000000E+000	0.0000000E+000	-85.0698	0.0000000E+000	0.0000000E+000	0.0000000E+000	-4.93019	0.0000000E+000	0.0000000E+000	0.0000000E+000	4.93019	11.5927	85.0698	1.53261e-05	-7.30062e-07	125035
0.0464052	45.1557	5.44139	45.4824	-6.87117	156.771	0.302128	-0.00075097	630295	9021.46	1	12	0.00488832	0.000107477	0	-3.09903e-05	0.0218286	0.00263041	0.0219865	6.87117	9.02146e+06	7.48652e+07	7.54068e+07	-83.1288	0.0000000E+000	0.0000000E+000	0.0000000E+000	83.1288	0.0000000E+000	0.0000000E+000	0.0000000E+000	-83.1288	0.0000000E+000	0.0000000E+000	0.0000000E+000	-6.87117	0.0000000E+000	0.0000000E+000	0.0000000E+000	6.87117	8.29856	83.1288	2.40901e-05	-2.26889e-07	402317
0.0215268	47.1451	8.82385	47.9637	-10.601	321.001	0.302126	0.000476773	837882	28357.8	1	12	0.00488819	0.000101914	0	-0.000123391	0.0204932	0.00383559	0.0208491	10.601	2.83578e+07	1.51514e+08	1.54144e+08	-79.399	0.0000000E+000	0.0000000E+000	0.0000000E+000	79.399	0.0000000E+000	0.0000000E+000	0.0000000E+000	-79.399	0.0000000E+000	0.0000000E+000	0.0000000E+000	-10.601	0.0000000E+000	0.0000000E+000	0.0000000E+000	10.601	5.34291	79.399	-8.21745e-05	1.44045e-07	633688
0.0100092	50.4318	13.9727	52.3316	-15.486	674.217	0.302132	-0.000269369	1.138e+06	81128.4	1	12	0.00488775	9.33996e-05	0	-0.000536918	0.0184152	0.00510212	0.0191089	15.486	8.11284e+07	2.92818e+08	3.03849e+08	-74.514	0.0000000E+000	0.0000000E+000	0.0000000E+000	74.514	0.0000000E+000	0.0000000E+000	0.0000000E+000	-74.514	0.0000000E+000	0.0000000E+000	0.0000000E+000	-15.486	0.0000000E+000	0.0000000E+000	0.0000000E+000	15.486	3.60932	74.514	-0.000238272	-8.13851e-08	1.12163e+06

File: 16435_R270_UA640_SOC00_C06.mpt
EC-Lab ASCII FILE
Nb header lines : 63

Potentio Electrochemical Impedance Spectroscopy

Run on channel : 6 (SN 65795)
User :
CE vs. WE compliance from -10 V to 10 V
Electrode connection : standard
Potential control : Ewe
Ewe ctrl range : min = -10.00 V, max = 10.00 V
Safety Limits :
	Do not start on E overload
Acquisition started on : 09/15/2025 10:34:40.269
Loaded Setting File :  C:\Users\Celltest\OneDrive - store-dot.com\Documents\EC-Lab\Data\Gyutae\16432.mps
Saved on :
	File : 16435_R270-A001 HG-1800_C06.mpr
	Directory : C:\Users\Celltest\OneDrive - store-dot.com\Documents\EC-Lab\Data\Gyutae\
	Host : 169.254.61.224
Device : VMP-3e (SN .003165)
Address : USB
EC-LAB for windows v11.62 (software)
Internet server v27.00 (firmware)
Command interpretor v12.03 (firmware)
Electrode material :
Initial state :
Electrolyte :
Comments :
Electrode surface area : 0.001 cm²
Characteristic mass : 0.001 g
Equivalent Weight : 0.000 g/eq.
Density : 0.000 g/cm3
Volume (V) : 0.001 cm³
Cycle Definition : Charge/Discharge alternance
Mode                Single sine
E (V)               0.0000
vs.                 Eoc
tE (h:m:s)          0:00:0.0000
record              0
dI                  0.000
unit dI             mA
dt (s)              0.000
fi                  100.000
unit fi             kHz
ff                  10.000
unit ff             mHz
Nd                  6
Points              per decade
spacing             Logarithmic
Va (mV)             5.0
pw                  0.10
Na                  2
corr                0
E range min (V)     -10.000
E range max (V)     10.000
I Range             Auto
Bandwidth           5
nc cycles           0
goto Ns'            0
nr cycles           0
inc. cycle          0

freq/Hz	Re(Z)/Ohm	-Im(Z)/Ohm	|Z|/Ohm	Phase(Z)/deg	time/s	<Ewe>/V	<I>/mA	Cs/µF	Cp/µF	cycle number	I Range	|Ewe|/V	|I|/A	Ns	(Q-Qo)/mA.h	Re(Y)/Ohm-1	Im(Y)/Ohm-1	|Y|/Ohm-1	Phase(Y)/deg	Re(C)/nF	Im(C)/nF	|C|/nF	Phase(C)/deg	Re(M)	Im(M)	|M|	Phase(M)/deg	Re(Permittivity)	Im(Permittivity)	|Permittivity|	Phase(Permittivity)/deg	Re(Resistivity)/Ohm.cm	Im(Resistivity)/Ohm.cm	|Resistivity|/Ohm.cm	Phase(Resistivity)/deg	Re(Conductivity)/mS/cm	Im(Conductivity)/mS/cm	|Conductivity|/mS/cm	Phase(Conductivity)/deg	Tan(Delta)	Loss Angle(Delta)/deg	dq/mA.h	Pwe/W	Rwe/Ohm
100004	1.68229	0.277333	1.705	-9.36125	2.22648	0.271112	0.0484554	5.73855	0.15183	1	9	0.00489398	0.00287037	0	4.14853e-06	0.578699	0.095401	0.58651	9.36125	151.83	920.995	933.425	-80.6387	0.0000000E+000	0.0000000E+000	0.0000000E+000	80.6387	0.0000000E+000	0.0000000E+000	0.0000000E+000	-80.6387	0.0000000E+000	0.0000000E+000	0.0000000E+000	-9.36125	0.0000000E+000	0.0000000E+000	0.0000000E+000	9.36125	6.06597	80.6387	4.14853e-06	1.31369e-05	5595.1
46420.4	1.83788	0.410359	1.88314	-12.5864	3.10047	0.271104	0.0471516	8.35502	0.396745	1	9	0.00536413	0.00284851	0	1.08352e-05	0.518267	0.115718	0.531028	12.5864	396.745	1776.91	1820.66	-77.4136	0.0000000E+000	0.0000000E+000	0.0000000E+000	77.4136	0.0000000E+000	0.0000000E+000	0.0000000E+000	-77.4136	0.0000000E+000	0.0000000E+000	0.0000000E+000	-12.5864	0.0000000E+000	0.0000000E+000	0.0000000E+000	12.5864	4.47872	77.4136	2.67922e-07	1.2783e-05	5749.62
21544.7	2.03761	0.537549	2.10732	-14.7787	3.97548	0.271094	0.0432031	13.7424	0.894203	1	9	0.00536319	0.00254503	0	2.01541e-05	0.458837	0.121048	0.474536	14.7787	894.203	3389.53	3505.49	-75.2213	0.0000000E+000	0.0000000E+000	0.0000000E+000	75.2213	0.0000000E+000	0.0000000E+000	0.0000000E+000	-75.2213	0.0000000E+000	0.0000000E+000	0.0000000E+000	-14.7787	0.0000000E+000	0.0000000E+000	0.0000000E+000	14.7787	3.79055	75.2213	6.18082e-06	1.17121e-05	6274.88
10002.2	2.29328	0.696114	2.3966	-16.8854	4.84949	0.271089	0.0415641	22.8583	1.92847	1	9	0.00528182	0.00220388	0	2.83182e-05	0.399268	0.121196	0.417257	16.8854	1928.47	6353.14	6639.38	-73.1146	0.0000000E+000	0.0000000E+000	0.0000000E+000	73.1146	0.0000000E+000	0.0000000E+000	0.0000000E+000	-73.1146	0.0000000E+000	0.0000000E+000	0.0000000E+000	-16.8854	0.0000000E+000	0.0000000E+000	0.0000000E+000	16.8854	3.2944	73.1146	3.38207e-06	1.12676e-05	6522.19
4641.49	2.62024	0.937889	2.78304	-19.6943	6.09768	0.271089	0.0409122	36.5605	4.15219	1	9	0.00512806	0.00184261	0	4.07793e-05	0.338301	0.121092	0.35932	19.6943	4152.19	11600.2	12321	-70.3057	0.0000000E+000	0.0000000E+000	0.0000000E+000	70.3057	0.0000000E+000	0.0000000E+000	0.0000000E+000	-70.3057	0.0000000E+000	0.0000000E+000	0.0000000E+000	-19.6943	0.0000000E+000	0.0000000E+000	0.0000000E+000	19.6943	2.79376	70.3057	6.07154e-06	1.10909e-05	6626.12
2155.69	3.05188	1.27354	3.30694	-22.6507	7.25467	0.27109	0.0403907	57.9723	8.59794	1	9	0.00513054	0.00155145	0	5.37227e-05	0.279071	0.116456	0.302394	22.6507	8597.94	20603.8	22325.8	-67.3493	0.0000000E+000	0.0000000E+000	0.0000000E+000	67.3493	0.0000000E+000	0.0000000E+000	0.0000000E+000	-67.3493	0.0000000E+000	0.0000000E+000	0.0000000E+000	-22.6507	0.0000000E+000	0.0000000E+000	0.0000000E+000	22.6507	2.39637	67.3493	4.12319e-06	1.09495e-05	6711.69
1000.32	3.55216	1.80565	3.98475	-26.9453	8.44367	0.271089	-0.00542094	88.1147	18.093	1	10	0.00508681	0.00127657	0	5.61296e-05	0.223713	0.113718	0.250957	26.9453	18093	35593.6	39928.2	-63.0547	0.0000000E+000	0.0000000E+000	0.0000000E+000	63.0547	0.0000000E+000	0.0000000E+000	0.0000000E+000	-63.0547	0.0000000E+000	0.0000000E+000	0.0000000E+000	-26.9453	0.0000000E+000	0.0000000E+000	0.0000000E+000	26.9453	1.96725	63.0547	3.29801e-07	-1.46956e-06	50007.9
463.961	4.17849	2.82075	5.04147	-34.0219	9.3782	0.2711	-0.00545821	121.611	38.0705	1	10	0.00495882	0.000983605	0	5.54016e-05	0.164401	0.110981	0.198355	34.0219	38070.5	56395.4	68042.7	-55.9781	0.0000000E+000	0.0000000E+000	0.0000000E+000	55.9781	0.0000000E+000	0.0000000E+000	0.0000000E+000	-55.9781	0.0000000E+000	0.0000000E+000	0.0000000E+000	-34.0219	0.0000000E+000	0.0000000E+000	0.0000000E+000	34.0219	1.48134	55.9781	-7.74195e-07	-1.47972e-06	49668.4
215.345	5.17265	4.79859	7.05569	-42.8516	10.3124	0.271093	-0.00574703	154.018	71.2394	1	10	0.00486627	0.000689695	0	5.50641e-05	0.103904	0.0963905	0.14173	42.8516	71239.4	76792.8	104748	-47.1484	0.0000000E+000	0.0000000E+000	0.0000000E+000	47.1484	0.0000000E+000	0.0000000E+000	0.0000000E+000	-47.1484	0.0000000E+000	0.0000000E+000	0.0000000E+000	-42.8516	0.0000000E+000	0.0000000E+000	0.0000000E+000	42.8516	1.07795	47.1484	-1.05871e-08	-1.55798e-06	47171.1
100.032	7.3825	8.27913	11.0926	-48.2766	11.2437	0.271091	-0.00581783	192.175	107.054	1	10	0.0048307	0.00043549	0	5.31118e-05	0.0599982	0.0672852	0.0901504	48.2766	107054	95459.6	143433	-41.7234	0.0000000E+000	0.0000000E+000	0.0000000E+000	41.7234	0.0000000E+000	0.0000000E+000	0.0000000E+000	-41.7234	0.0000000E+000	0.0000000E+000	0.0000000E+000	-48.2766	0.0000000E+000	0.0000000E+000	0.0000000E+000	48.2766	0.8917	41.7234	-1.03012e-06	-1.57716e-06	46596.6
46.4415	12.5019	13.1519	18.1458	-46.4513	12.1776	0.271099	-0.00688736	260.571	136.883	1	10	0.00481268	0.000265224	0	5.13935e-05	0.0379687	0.0399426	0.0551093	46.4513	136883	130118	188859	-43.5487	0.0000000E+000	0.0000000E+000	0.0000000E+000	43.5487	0.0000000E+000	0.0000000E+000	0.0000000E+000	-43.5487	0.0000000E+000	0.0000000E+000	0.0000000E+000	-46.4513	0.0000000E+000	0.0000000E+000	0.0000000E+000	46.4513	0.95058	43.5486	-7.79831e-07	-1.86716e-06	39361.8
[...]
1.00006	48.2752	6.63896	48.7296	-7.83037	21.1852	0.271104	-0.00573801	23971.4	444.945	1	12	0.00481429	9.87959e-05	0	3.9327e-05	0.0203301	0.00279585	0.0205214	7.83037	444945	3.23542e+06	3.26588e+06	-82.1696	0.0000000E+000	0.0000000E+000	0.0000000E+000	82.1696	0.0000000E+000	0.0000000E+000	0.0000000E+000	-82.1696	0.0000000E+000	0.0000000E+000	0.0000000E+000	-7.83037	0.0000000E+000	0.0000000E+000	0.0000000E+000	7.83037	7.27151	82.1696	-1.4856e-07	-1.5556e-06	47247
0.464091	50.5682	4.98176	50.813	-5.62637	28.8699	0.271104	-0.00529449	68839	661.683	1	12	0.00481245	9.47089e-05	0	2.72416e-05	0.0195852	0.00192944	0.01968	5.62637	661683	6.71653e+06	6.74904e+06	-84.3736	0.0000000E+000	0.0000000E+000	0.0000000E+000	84.3736	0.0000000E+000	0.0000000E+000	0.0000000E+000	-84.3736	0.0000000E+000	0.0000000E+000	0.0000000E+000	-5.62637	0.0000000E+000	0.0000000E+000	0.0000000E+000	5.62637	10.1507	84.3736	-9.12255e-06	-1.43536e-06	51205
0.215268	52.0861	4.15016	52.2512	-4.55564	45.3499	0.271117	-0.00502926	178146	1123.86	1	12	0.00481496	9.21502e-05	0	-1.61337e-05	0.0190779	0.0015201	0.0191383	4.55564	1.12386e+06	1.41049e+07	1.41496e+07	-85.4444	0.0000000E+000	0.0000000E+000	0.0000000E+000	85.4444	0.0000000E+000	0.0000000E+000	0.0000000E+000	-85.4444	0.0000000E+000	0.0000000E+000	0.0000000E+000	-4.55564	0.0000000E+000	0.0000000E+000	0.0000000E+000	4.55564	12.5504	85.4444	-2.58675e-05	-1.36351e-06	53907.9
0.0999041	53.3333	4.43484	53.5174	-4.7534	80.7565	0.271115	-0.00564639	359219	2466.75	1	12	0.00481603	8.999e-05	0	-8.02016e-05	0.0186213	0.00154842	0.0186855	4.7534	2.46675e+06	2.96651e+07	2.97675e+07	-85.2466	0.0000000E+000	0.0000000E+000	0.0000000E+000	85.2466	0.0000000E+000	0.0000000E+000	0.0000000E+000	-85.2466	0.0000000E+000	0.0000000E+000	0.0000000E+000	-4.7534	0.0000000E+000	0.0000000E+000	0.0000000E+000	4.7534	12.026	85.2466	-3.23418e-05	-1.53082e-06	48015.6
0.0464052	54.6074	6.12023	54.9493	-6.39485	156.993	0.27111	-0.00584713	560384	6951.8	1	12	0.00481724	8.76671e-05	0	-0.000132942	0.0180854	0.00202695	0.0181986	6.39485	6.9518e+06	6.2027e+07	6.24154e+07	-83.6051	0.0000000E+000	0.0000000E+000	0.0000000E+000	83.6051	0.0000000E+000	0.0000000E+000	0.0000000E+000	-83.6051	0.0000000E+000	0.0000000E+000	0.0000000E+000	-6.39485	0.0000000E+000	0.0000000E+000	0.0000000E+000	6.39485	8.92244	83.6051	-2.22496e-05	-1.58522e-06	46366.4
0.0215268	57.1591	9.43426	57.9325	-9.37232	321.221	0.271104	-0.00481453	783670	20782.8	1	12	0.00481457	8.31065e-05	0	-0.000246818	0.0170311	0.00281102	0.0172615	9.37232	2.07828e+07	1.25916e+08	1.2762e+08	-80.6277	0.0000000E+000	0.0000000E+000	0.0000000E+000	80.6277	0.0000000E+000	0.0000000E+000	0.0000000E+000	-80.6277	0.0000000E+000	0.0000000E+000	0.0000000E+000	-9.37232	0.0000000E+000	0.0000000E+000	0.0000000E+000	9.37232	6.05868	80.6277	-8.27357e-05	-1.30524e-06	56309.5
0.0100092	60.6706	15.2847	62.5663	-14.1403	674.437	0.271101	-0.00410332	1.04031e+06	62086.7	1	12	0.00481777	7.70026e-05	0	-0.000855615	0.0154988	0.0039046	0.015983	14.1403	6.20867e+07	2.46445e+08	2.54145e+08	-75.8597	0.0000000E+000	0.0000000E+000	0.0000000E+000	75.8597	0.0000000E+000	0.0000000E+000	0.0000000E+000	-75.8597	0.0000000E+000	0.0000000E+000	0.0000000E+000	-14.1403	0.0000000E+000	0.0000000E+000	0.0000000E+000	14.1403	3.96936	75.8597	-0.000406317	-1.11241e-06	66068.6