Folder: EIS/txt (part 103)

File: 18608_R301_UA697_SOC00_C06.mpt
EC-Lab ASCII FILE
Nb header lines : 65

Potentio Electrochemical Impedance Spectroscopy

Run on channel : 6 (SN 65795)
User :
CE vs. WE compliance from -10 V to 10 V
Electrode connection : standard
Potential control : Ewe
Ewe ctrl range : min = -10.00 V, max = 10.00 V
Safety Limits :
	Do not start on E overload
Acquisition started on : 10/27/2025 16:24:37.187
Technique started on : 10/27/2025 16:24:39.098
Loaded Setting File :  C:\Users\Celltest\OneDrive - store-dot.com\Documents\EC-Lab\Data\@Biologic Test Protocols\anode half cell EIS SOC00.mps
Saved on :
	File : 18608_R301_UA697_SOC00_C06.mpr
	Directory : C:\Users\Celltest\OneDrive - store-dot.com\Documents\EC-Lab\Data\Gyutae\
	Host : 169.254.61.224
Device : VMP-3e (SN .003165)
Address : USB
EC-LAB for windows v11.62 (software)
Internet server v27.00 (firmware)
Command interpretor v12.03 (firmware)
Electrode material :
Initial state :
Electrolyte :
Comments :
Electrode surface area : 0.001 cm²
Characteristic mass : 0.001 g
Equivalent Weight : 0.000 g/eq.
Density : 0.000 g/cm3
Volume (V) : 0.001 cm³
Record Ece
Cycle Definition : Charge/Discharge alternance
Mode                Single sine
E (V)               0.0000
vs.                 Eoc
tE (h:m:s)          0:00:0.0000
record              0
dI                  0.000
unit dI             mA
dt (s)              0.000
fi                  100.000
unit fi             kHz
ff                  10.000
unit ff             mHz
Nd                  6
Points              per decade
spacing             Logarithmic
Va (mV)             5.0
pw                  0.10
Na                  2
corr                0
E range min (V)     -10.000
E range max (V)     10.000
I Range             Auto
Bandwidth           5
nc cycles           0
goto Ns'            0
nr cycles           0
inc. cycle          0

freq/Hz	Re(Z)/Ohm	-Im(Z)/Ohm	|Z|/Ohm	Phase(Z)/deg	time/s	<Ewe>/V	<I>/mA	Cs/µF	Cp/µF	cycle number	I Range	|Ewe|/V	|I|/A	Ns	(Q-Qo)/mA.h	<Ece>/V	|Ece|/V	Phase(Zce)/deg	|Zce|/Ohm	Re(Zce)/Ohm	-Im(Zce)/Ohm	Phase(Zwe-ce)/deg	|Zwe-ce|/Ohm	Re(Zwe-ce)/Ohm	-Im(Zwe-ce)/Ohm	Re(Y)/Ohm-1	Im(Y)/Ohm-1	|Y|/Ohm-1	Phase(Y)/deg	Re(C)/nF	Im(C)/nF	|C|/nF	Phase(C)/deg	Re(M)	Im(M)	|M|	Phase(M)/deg	Re(Permittivity)	Im(Permittivity)	|Permittivity|	Phase(Permittivity)/deg	Re(Resistivity)/Ohm.cm	Im(Resistivity)/Ohm.cm	|Resistivity|/Ohm.cm	Phase(Resistivity)/deg	Re(Conductivity)/mS/cm	Im(Conductivity)/mS/cm	|Conductivity|/mS/cm	Phase(Conductivity)/deg	Tan(Delta)	Loss Angle(Delta)/deg	dq/mA.h	Pwe/W	Pce/W	Pwe-ce/W	<Ewe-Ece>/V	Rwe/Ohm	Rce/Ohm	Rwe-ce/Ohm		Ewe-Ece/V
100004	0.977275	0.317569	1.02758	-18.0018	1.91056	0.213221	0.0508394	5.01147	0.478644	1	9	0.00485224	0.00472202	0	-2.82957e-06	0.00026816	4.68346e-05	88.443	0.00991835	0.000269489	-0.00991468	-17.4699	1.02481	0.977544	0.307655	0.925523	0.300752	0.973162	18.0018	478.644	1472.96	1548.78	-71.9982	0.0000000E+000	0.0000000E+000	0.0000000E+000	71.9982	0.0000000E+000	0.0000000E+000	0.0000000E+000	-71.9982	0.0000000E+000	0.0000000E+000	0.0000000E+000	-18.0018	0.0000000E+000	0.0000000E+000	0.0000000E+000	18.0018	3.07736	71.9982	-2.82957e-06	1.084e-05	1.36331e-08	1.08264e-05	0.212953	4194.01	5.27464	4188.73
31621.1	1.24597	0.422115	1.31553	-18.7155	3.43356	0.213195	0.0410054	11.9237	1.22764	1	9	0.00503786	0.00382951	0	-1.53389e-06	0.000249062	1.92408e-05	44.3223	0.00502433	0.00359451	-0.00351047	-18.5208	1.31782	1.24957	0.418605	0.719954	0.243908	0.760148	18.7155	1227.64	3623.66	3825.96	-71.2845	0.0000000E+000	0.0000000E+000	0.0000000E+000	71.2845	0.0000000E+000	0.0000000E+000	0.0000000E+000	-71.2845	0.0000000E+000	0.0000000E+000	0.0000000E+000	-18.7155	0.0000000E+000	0.0000000E+000	0.0000000E+000	18.7155	2.95174	71.2845	-4.59816e-06	8.74213e-06	1.02129e-08	8.73192e-06	0.212946	5199.18	6.07387	5193.11
10002.2	1.56381	0.573751	1.66574	-20.1477	4.33452	0.213196	0.0401859	27.7332	3.29027	1	9	0.00495767	0.00297625	0	1.13016e-05	-0.000113801	6.35085e-06	19.1581	0.00213384	0.00201566	-0.000700277	-20.1013	1.66739	1.56583	0.573051	0.563597	0.20678	0.600333	20.1477	3290.27	8967.93	9552.47	-69.8523	0.0000000E+000	0.0000000E+000	0.0000000E+000	69.8523	0.0000000E+000	0.0000000E+000	0.0000000E+000	-69.8523	0.0000000E+000	0.0000000E+000	0.0000000E+000	-20.1477	0.0000000E+000	0.0000000E+000	0.0000000E+000	20.1477	2.72559	69.8523	3.71644e-07	8.56749e-06	-4.5732e-09	8.57206e-06	0.21331	5305.25	2.83187	5308.09
3163.08	1.99646	0.84192	2.16672	-22.8654	5.40968	0.212935	-0.0948452	59.764	9.02347	1	9	0.00497044	0.00229399	0	1.77764e-06	7.71793e-05	1.16209e-05	-90.9523	0.00506579	-8.41941e-05	0.00506509	-22.9896	2.16862	1.99638	0.846985	0.42526	0.179334	0.461526	22.8654	9023.47	21397.6	23222.4	-67.1346	0.0000000E+000	0.0000000E+000	0.0000000E+000	67.1346	0.0000000E+000	0.0000000E+000	0.0000000E+000	-67.1346	0.0000000E+000	0.0000000E+000	0.0000000E+000	-22.8654	0.0000000E+000	0.0000000E+000	0.0000000E+000	22.8654	2.37132	67.1346	-1.10362e-05	-2.01959e-05	-7.32009e-09	-2.01886e-05	0.212858	2245.08	0.81374	2244.27
1000.32	2.59078	1.36586	2.92877	-27.7982	6.76277	0.213068	0.0351944	116.486	25.3347	1	9	0.00484612	0.00165466	0	1.42629e-05	0.000134473	9.19326e-06	-43.0566	0.00555599	0.00405965	0.00379319	-27.8268	2.93413	2.59484	1.36965	0.302036	0.159234	0.34144	27.7982	25334.7	48055.1	54324.4	-62.2018	0.0000000E+000	0.0000000E+000	0.0000000E+000	62.2018	0.0000000E+000	0.0000000E+000	0.0000000E+000	-62.2018	0.0000000E+000	0.0000000E+000	0.0000000E+000	-27.7982	0.0000000E+000	0.0000000E+000	0.0000000E+000	27.7982	1.89681	62.2018	3.1474e-06	7.4988e-06	4.73271e-09	7.49407e-06	0.212934	6054.05	3.82088	6050.23
316.316	3.81629	2.49459	4.55928	-33.1714	8.35805	0.21311	-0.024704	201.697	60.3818	1	10	0.00485269	0.00106436	0	8.5563e-06	0.000420944	1.03136e-05	83.4775	0.00968996	0.00110071	-0.00962724	-33.0624	4.55494	3.81739	2.48496	0.18359	0.120007	0.219333	33.1714	60381.8	92373.7	110358	-56.8286	0.0000000E+000	0.0000000E+000	0.0000000E+000	56.8286	0.0000000E+000	0.0000000E+000	0.0000000E+000	-56.8286	0.0000000E+000	0.0000000E+000	0.0000000E+000	-33.1714	0.0000000E+000	0.0000000E+000	0.0000000E+000	33.1714	1.52983	56.8286	-2.16354e-06	-5.26466e-06	-1.0399e-08	-5.25426e-06	0.212689	8626.52	17.0395	8609.48
100.032	6.61524	3.42297	7.44836	-27.3587	9.70586	0.213089	-0.0248084	464.813	98.1663	1	10	0.00481989	0.000647108	0	2.79177e-07	-0.000113801	8.93399e-06	17.7267	0.013806	0.0131505	-0.00420361	-27.2836	7.45812	6.62839	3.41876	0.119241	0.0616994	0.134258	27.3587	98166.3	189717	213609	-62.6413	0.0000000E+000	0.0000000E+000	0.0000000E+000	62.6413	0.0000000E+000	0.0000000E+000	0.0000000E+000	-62.6413	0.0000000E+000	0.0000000E+000	0.0000000E+000	-27.3587	0.0000000E+000	0.0000000E+000	0.0000000E+000	27.3587	1.9326	62.6413	-3.06545e-06	-5.28639e-06	2.82322e-09	-5.28922e-06	0.213203	8589.4	4.5872	8593.99
[...]
1.00006	11.847	1.04408	11.893	-5.03646	18.672	0.213136	-0.0121019	152426	1174.75	1	11	0.00481156	0.000404572	0	-3.18948e-05	5.80813e-05	2.85269e-06	44.3578	0.00705111	0.00504146	-0.00492969	-5.01068	11.8976	11.8521	1.03915	0.0837587	0.00738165	0.0840834	5.03646	1.17475e+06	1.33298e+07	1.33814e+07	-84.9635	0.0000000E+000	0.0000000E+000	0.0000000E+000	84.9635	0.0000000E+000	0.0000000E+000	0.0000000E+000	-84.9635	0.0000000E+000	0.0000000E+000	0.0000000E+000	-5.03646	0.0000000E+000	0.0000000E+000	0.0000000E+000	5.03646	11.3469	84.9635	-8.40866e-06	-2.57935e-06	-7.02893e-10	-2.57865e-06	0.213078	17611.8	4.79936	17607
0.316193	12.4212	1.52748	12.5148	-7.01066	33.0157	0.213121	-0.0178529	329527	4909.03	1	11	0.00481142	0.000384458	0	-0.000155744	-5.65069e-05	2.60037e-06	-74.5511	0.00676372	0.00180172	0.00651934	-7.03927	12.5174	12.423	1.534	0.0793079	0.00975277	0.0799053	7.01066	4.90903e+06	3.99194e+07	4.02201e+07	-82.9893	0.0000000E+000	0.0000000E+000	0.0000000E+000	82.9893	0.0000000E+000	0.0000000E+000	0.0000000E+000	-82.9893	0.0000000E+000	0.0000000E+000	0.0000000E+000	-7.01066	0.0000000E+000	0.0000000E+000	0.0000000E+000	7.01066	8.13183	82.9893	-5.81008e-05	-3.80483e-06	1.00881e-09	-3.80584e-06	0.213178	11937.6	3.16514	11940.8
0.0999041	13.403	3.09855	13.7565	-13.0171	78.2235	0.213122	-0.0245294	514137	26084.2	1	11	0.00481057	0.000349694	0	-0.000312657	1.98852e-05	8.00465e-07	-1.65361	0.00228904	0.00228809	6.60549e-05	-13.0152	13.7588	13.4053	3.09861	0.0708248	0.0163735	0.0726928	13.0171	2.60842e+07	1.12829e+08	1.15805e+08	-76.9829	0.0000000E+000	0.0000000E+000	0.0000000E+000	76.9829	0.0000000E+000	0.0000000E+000	0.0000000E+000	-76.9829	0.0000000E+000	0.0000000E+000	0.0000000E+000	-13.0171	0.0000000E+000	0.0000000E+000	0.0000000E+000	13.0171	4.32558	76.9829	-4.51595e-05	-5.22776e-06	-4.87773e-10	-5.22728e-06	0.213102	8688.44	0.810668	8687.63
0.0315922	15.7084	6.8515	17.1375	-23.5653	252.877	0.213126	-0.0301041	735283	117525	1	12	0.00481095	0.000280726	0	-0.00146528	0.000153571	1.35882e-06	-88.8513	0.00484039	9.70324e-05	0.00483942	-23.58	17.1396	15.7085	6.85634	0.0534852	0.0233286	0.0583514	23.5653	1.17525e+08	2.69447e+08	2.93962e+08	-66.4347	0.0000000E+000	0.0000000E+000	0.0000000E+000	66.4347	0.0000000E+000	0.0000000E+000	0.0000000E+000	-66.4347	0.0000000E+000	0.0000000E+000	0.0000000E+000	-23.5653	0.0000000E+000	0.0000000E+000	0.0000000E+000	23.5653	2.29269	66.4347	-0.000841015	-6.41598e-06	-4.62314e-09	-6.41136e-06	0.212973	7079.63	5.10134	7074.53
0.0146812	18.7954	11.3255	21.9439	-31.0719	493.917	0.213121	-0.033803	957197	254971	1	12	0.00481517	0.000219431	0	-0.00440157	0.00017267	9.76529e-07	49.1033	0.00445027	0.00291358	-0.00336392	-31.0604	21.9446	18.7983	11.3222	0.0390323	0.0235197	0.0455708	31.0719	2.54971e+08	4.2314e+08	4.94022e+08	-58.9281	0.0000000E+000	0.0000000E+000	0.0000000E+000	58.9281	0.0000000E+000	0.0000000E+000	0.0000000E+000	-58.9281	0.0000000E+000	0.0000000E+000	0.0000000E+000	-31.0719	0.0000000E+000	0.0000000E+000	0.0000000E+000	31.0719	1.65956	58.9281	-0.00178476	-7.20412e-06	-5.83675e-09	-7.19828e-06	0.212948	6304.78	5.10811	6299.67

File: 18609_R301_UA697_SOC00_C07.mpt
EC-Lab ASCII FILE
Nb header lines : 65

Potentio Electrochemical Impedance Spectroscopy

Run on channel : 7 (SN 66126)
User :
CE vs. WE compliance from -10 V to 10 V
Electrode connection : standard
Potential control : Ewe
Ewe ctrl range : min = -10.00 V, max = 10.00 V
Safety Limits :
	Do not start on E overload
Acquisition started on : 10/27/2025 16:24:44.317
Technique started on : 10/27/2025 16:24:46.185
Loaded Setting File :  C:\Users\Celltest\OneDrive - store-dot.com\Documents\EC-Lab\Data\@Biologic Test Protocols\anode half cell EIS SOC00.mps
Saved on :
	File : 18609_R301_UA697_SOC00_C07.mpr
	Directory : C:\Users\Celltest\OneDrive - store-dot.com\Documents\EC-Lab\Data\Gyutae\
	Host : 169.254.61.224
Device : VMP-3e (SN .003165)
Address : USB
EC-LAB for windows v11.62 (software)
Internet server v27.00 (firmware)
Command interpretor v12.03 (firmware)
Electrode material :
Initial state :
Electrolyte :
Comments :
Electrode surface area : 0.001 cm²
Characteristic mass : 0.001 g
Equivalent Weight : 0.000 g/eq.
Density : 0.000 g/cm3
Volume (V) : 0.001 cm³
Record Ece
Cycle Definition : Charge/Discharge alternance
Mode                Single sine
E (V)               0.0000
vs.                 Eoc
tE (h:m:s)          0:00:0.0000
record              0
dI                  0.000
unit dI             mA
dt (s)              0.000
fi                  100.000
unit fi             kHz
ff                  10.000
unit ff             mHz
Nd                  6
Points              per decade
spacing             Logarithmic
Va (mV)             5.0
pw                  0.10
Na                  2
corr                0
E range min (V)     -10.000
E range max (V)     10.000
I Range             Auto
Bandwidth           5
nc cycles           0
goto Ns'            0
nr cycles           0
inc. cycle          0

freq/Hz	Re(Z)/Ohm	-Im(Z)/Ohm	|Z|/Ohm	Phase(Z)/deg	time/s	<Ewe>/V	<I>/mA	Cs/µF	Cp/µF	cycle number	I Range	|Ewe|/V	|I|/A	Ns	(Q-Qo)/mA.h	<Ece>/V	|Ece|/V	Phase(Zce)/deg	|Zce|/Ohm	Re(Zce)/Ohm	-Im(Zce)/Ohm	Phase(Zwe-ce)/deg	|Zwe-ce|/Ohm	Re(Zwe-ce)/Ohm	-Im(Zwe-ce)/Ohm	Re(Y)/Ohm-1	Im(Y)/Ohm-1	|Y|/Ohm-1	Phase(Y)/deg	Re(C)/nF	Im(C)/nF	|C|/nF	Phase(C)/deg	Re(M)	Im(M)	|M|	Phase(M)/deg	Re(Permittivity)	Im(Permittivity)	|Permittivity|	Phase(Permittivity)/deg	Re(Resistivity)/Ohm.cm	Im(Resistivity)/Ohm.cm	|Resistivity|/Ohm.cm	Phase(Resistivity)/deg	Re(Conductivity)/mS/cm	Im(Conductivity)/mS/cm	|Conductivity|/mS/cm	Phase(Conductivity)/deg	Tan(Delta)	Loss Angle(Delta)/deg	dq/mA.h	Pwe/W	Pce/W	Pwe-ce/W	<Ewe-Ece>/V	Rwe/Ohm	Rce/Ohm	Rwe-ce/Ohm		Ewe-Ece/V
100004	0.996651	0.333394	1.05094	-18.4958	1.86756	0.220131	0.0551168	4.7736	0.480408	1	9	0.00497847	0.00473718	0	-7.45564e-06	-0.000173993	4.85164e-05	79.0969	0.0102416	0.00193719	-0.0100567	-17.9417	1.04963	0.998588	0.323338	0.902383	0.30186	0.951533	18.4958	480.408	1436.13	1514.36	-71.5042	0.0000000E+000	0.0000000E+000	0.0000000E+000	71.5042	0.0000000E+000	0.0000000E+000	0.0000000E+000	-71.5042	0.0000000E+000	0.0000000E+000	0.0000000E+000	-18.4958	0.0000000E+000	0.0000000E+000	0.0000000E+000	18.4958	2.98941	71.5042	-7.45564e-06	1.21329e-05	-9.58993e-09	1.21425e-05	0.220305	3993.91	3.1568	3997.06
31621.1	1.29665	0.482242	1.38343	-20.4008	3.14053	0.22016	0.0503133	10.437	1.26822	1	9	0.00544156	0.00393339	0	3.21542e-05	0.000112138	1.82545e-05	55.5113	0.0046409	0.00262788	-0.0038252	-20.2145	1.38456	1.29928	0.478417	0.677504	0.251972	0.722843	20.4008	1268.22	3410	3638.2	-69.5992	0.0000000E+000	0.0000000E+000	0.0000000E+000	69.5992	0.0000000E+000	0.0000000E+000	0.0000000E+000	-69.5992	0.0000000E+000	0.0000000E+000	0.0000000E+000	-20.4008	0.0000000E+000	0.0000000E+000	0.0000000E+000	20.4008	2.6888	69.5992	1.50261e-05	1.1077e-05	5.64205e-09	1.10713e-05	0.220048	4375.78	2.2288	4373.55
10002.2	1.65904	0.663686	1.78687	-21.8035	4.28853	0.220169	0.0554518	23.9751	3.30751	1	9	0.00527919	0.00295444	0	5.91562e-05	-0.000460124	7.38738e-06	17.5488	0.00250043	0.00238406	-0.000753924	-21.7527	1.7888	1.66142	0.662932	0.519604	0.207863	0.559639	21.8035	3307.51	8267.91	8904.95	-68.1965	0.0000000E+000	0.0000000E+000	0.0000000E+000	68.1965	0.0000000E+000	0.0000000E+000	0.0000000E+000	-68.1965	0.0000000E+000	0.0000000E+000	0.0000000E+000	-21.8035	0.0000000E+000	0.0000000E+000	0.0000000E+000	21.8035	2.49974	68.1965	1.92053e-06	1.22088e-05	-2.55147e-08	1.22343e-05	0.220629	3970.46	8.29773	3978.76
3163.08	2.16801	0.980056	2.37924	-24.3255	5.43865	0.220118	0.0249927	51.3404	8.71133	1	9	0.00522575	0.0021964	0	6.35993e-05	-0.000288445	5.13106e-06	-50.0531	0.00233613	0.00149997	0.00179097	-24.3499	2.38134	2.16951	0.981847	0.382988	0.173131	0.420302	24.3255	8711.33	19270.6	21148.1	-65.6745	0.0000000E+000	0.0000000E+000	0.0000000E+000	65.6745	0.0000000E+000	0.0000000E+000	0.0000000E+000	-65.6745	0.0000000E+000	0.0000000E+000	0.0000000E+000	-24.3255	0.0000000E+000	0.0000000E+000	0.0000000E+000	24.3255	2.21213	65.6745	4.22484e-06	5.50135e-06	-7.20903e-09	5.50856e-06	0.220407	8807.29	11.5412	8818.83
1000.32	2.88058	1.55022	3.27122	-28.2875	7.03685	0.22014	-0.0217736	102.633	23.0491	1	10	0.00510621	0.00156095	0	7.05749e-05	-0.000364747	8.14314e-06	-94.497	0.00521679	-0.000409034	0.00520073	-28.371	3.27333	2.88017	1.55542	0.26919	0.144868	0.305696	28.2875	23049.1	42829.3	48637.5	-61.7125	0.0000000E+000	0.0000000E+000	0.0000000E+000	61.7125	0.0000000E+000	0.0000000E+000	0.0000000E+000	-61.7125	0.0000000E+000	0.0000000E+000	0.0000000E+000	-28.2875	0.0000000E+000	0.0000000E+000	0.0000000E+000	28.2875	1.85817	61.7125	3.51783e-07	-4.79326e-06	7.94187e-09	-4.8012e-06	0.220505	10110.4	16.7518	10127.2
316.316	4.16395	2.78296	5.00833	-33.7567	8.38604	0.220124	-0.0228346	180.797	55.824	1	10	0.00490552	0.000979472	0	6.3155e-05	-0.000326596	1.28865e-05	-51.5338	0.0131566	0.00818411	0.0103013	-33.8025	5.02086	4.17213	2.79327	0.166004	0.110949	0.199667	33.7567	55824	83525.5	100463	-56.2433	0.0000000E+000	0.0000000E+000	0.0000000E+000	56.2433	0.0000000E+000	0.0000000E+000	0.0000000E+000	-56.2433	0.0000000E+000	0.0000000E+000	0.0000000E+000	-33.7567	0.0000000E+000	0.0000000E+000	0.0000000E+000	33.7567	1.49623	56.2433	-2.6855e-06	-5.02646e-06	7.45771e-09	-5.03391e-06	0.220451	9639.92	14.3027	9654.22
100.032	7.28854	4.12569	8.37521	-29.5121	9.73281	0.22012	-0.0216992	385.642	93.5807	1	10	0.00485976	0.000580255	0	5.40095e-05	-0.000383823	1.00048e-05	3.09514	0.0172421	0.017217	-0.000930975	-29.4487	8.38974	7.30575	4.12476	0.103908	0.0588173	0.1194	29.5121	93580.8	165322	189970	-60.4879	0.0000000E+000	0.0000000E+000	0.0000000E+000	60.4879	0.0000000E+000	0.0000000E+000	0.0000000E+000	-60.4879	0.0000000E+000	0.0000000E+000	0.0000000E+000	-29.5121	0.0000000E+000	0.0000000E+000	0.0000000E+000	29.5121	1.76662	60.4879	-2.20744e-06	-4.77644e-06	8.32865e-09	-4.78476e-06	0.220504	10144.2	17.6883	10161.8
[...]
1.00006	14.0298	1.30216	14.0901	-5.30266	18.748	0.220145	-0.0165108	122216	1043.83	1	11	0.0048438	0.000343774	0	1.0031e-06	-0.000441049	2.19974e-06	45.1185	0.00639879	0.00451526	-0.00453398	-5.28261	14.0941	14.0343	1.29762	0.0706683	0.00655901	0.0709721	5.30266	1.04383e+06	1.12465e+07	1.12948e+07	-84.6973	0.0000000E+000	0.0000000E+000	0.0000000E+000	84.6973	0.0000000E+000	0.0000000E+000	0.0000000E+000	-84.6973	0.0000000E+000	0.0000000E+000	0.0000000E+000	-5.30266	0.0000000E+000	0.0000000E+000	0.0000000E+000	5.30266	10.7742	84.6973	-2.03682e-05	-3.63477e-06	7.28206e-09	-3.64205e-06	0.220586	13333.4	26.7128	13360.1
0.316193	14.856	1.84841	14.9705	-7.09239	33.0908	0.220145	-0.0207652	272314	4151.37	1	11	0.00484446	0.0003236	0	-8.61599e-05	-0.000193068	4.34328e-06	-9.23936	0.0134218	0.0132476	0.00215499	-7.09432	14.9839	14.8692	1.85056	0.0662868	0.00824752	0.0667979	7.09239	4.15137e+06	3.33653e+07	3.36226e+07	-82.9076	0.0000000E+000	0.0000000E+000	0.0000000E+000	82.9076	0.0000000E+000	0.0000000E+000	0.0000000E+000	-82.9076	0.0000000E+000	0.0000000E+000	0.0000000E+000	-7.09239	0.0000000E+000	0.0000000E+000	0.0000000E+000	7.09239	8.03718	82.9076	-2.73429e-05	-4.57134e-06	4.00909e-09	-4.57535e-06	0.220338	10601.6	9.2977	10610.9
0.0999041	16.0828	3.40461	16.4392	-11.9527	88.3725	0.220154	-0.0218515	467918	20069.8	1	12	0.00484266	0.00029458	0	-0.000253303	-5.95403e-05	1.78789e-06	-17.212	0.00606929	0.00579748	0.00179595	-11.9546	16.4452	16.0886	3.4064	0.0595114	0.0125982	0.0608303	11.9527	2.00698e+07	9.48063e+07	9.69074e+07	-78.0473	0.0000000E+000	0.0000000E+000	0.0000000E+000	78.0473	0.0000000E+000	0.0000000E+000	0.0000000E+000	-78.0473	0.0000000E+000	0.0000000E+000	0.0000000E+000	-11.9527	0.0000000E+000	0.0000000E+000	0.0000000E+000	11.9527	4.72382	78.0473	-0.000124283	-4.81069e-06	1.30104e-09	-4.81199e-06	0.220213	10075	2.72477	10077.7
0.0315922	18.474	7.23809	19.8413	-21.3952	231.257	0.220154	-0.026063	696012	92623.9	1	12	0.00484273	0.000244073	0	-0.00152712	1.67614e-05	7.56991e-07	77.9405	0.0031015	0.00064799	-0.00303305	-21.3864	19.8408	18.4746	7.23505	0.0469267	0.0183858	0.0503999	21.3952	9.26239e+07	2.36407e+08	2.53904e+08	-68.6048	0.0000000E+000	0.0000000E+000	0.0000000E+000	68.6048	0.0000000E+000	0.0000000E+000	0.0000000E+000	-68.6048	0.0000000E+000	0.0000000E+000	0.0000000E+000	-21.3952	0.0000000E+000	0.0000000E+000	0.0000000E+000	21.3952	2.55233	68.6048	-0.000699384	-5.73787e-06	-4.36851e-10	-5.73743e-06	0.220137	8446.99	0.64311	8446.35
0.0146812	22.0373	12.1434	25.1615	-28.8564	472.299	0.220159	-0.0307319	892731	207934	1	12	0.00484399	0.000192516	0	-0.00386206	-0.000364747	1.89167e-06	30.5974	0.00982605	0.00845792	-0.00500149	-28.8372	25.1665	22.0457	12.1384	0.0348084	0.0191807	0.0397432	28.8564	2.07934e+08	3.77349e+08	4.30847e+08	-61.1436	0.0000000E+000	0.0000000E+000	0.0000000E+000	61.1436	0.0000000E+000	0.0000000E+000	0.0000000E+000	-61.1436	0.0000000E+000	0.0000000E+000	0.0000000E+000	-28.8564	0.0000000E+000	0.0000000E+000	0.0000000E+000	28.8564	1.81476	61.1436	-0.00131016	-6.76591e-06	1.12094e-08	-6.77712e-06	0.220524	7163.85	11.8687	7175.72