Folder: EIS/txt (part 20)

File: 17401_R279_UA651_SOC00_C07.mpt
EC-Lab ASCII FILE
Nb header lines : 63

Potentio Electrochemical Impedance Spectroscopy

Run on channel : 7 (SN 66126)
User :
CE vs. WE compliance from -10 V to 10 V
Electrode connection : standard
Potential control : Ewe
Ewe ctrl range : min = -10.00 V, max = 10.00 V
Safety Limits :
	Do not start on E overload
Acquisition started on : 09/11/2025 15:39:00.035
Loaded Setting File :  C:\Users\Celltest\OneDrive - store-dot.com\Documents\EC-Lab\Data\Charmaine\R279\17382_C01.mpr
Saved on :
	File : 17401_C07.mpr
	Directory : C:\Users\Celltest\OneDrive - store-dot.com\Documents\EC-Lab\Data\Charmaine\R279\
	Host : 169.254.61.224
Device : VMP-3e (SN .003165)
Address : USB
EC-LAB for windows v11.62 (software)
Internet server v27.00 (firmware)
Command interpretor v12.03 (firmware)
Electrode material :
Initial state :
Electrolyte :
Comments :
Electrode surface area : 0.001 cm²
Characteristic mass : 0.001 g
Equivalent Weight : 0.000 g/eq.
Density : 0.000 g/cm3
Volume (V) : 0.001 cm³
Cycle Definition : Charge/Discharge alternance
Mode                Single sine
E (V)               0.0000
vs.                 Eoc
tE (h:m:s)          0:00:0.0000
record              0
dI                  0.000
unit dI             mA
dt (s)              0.000
fi                  100.000
unit fi             kHz
ff                  10.000
unit ff             mHz
Nd                  6
Points              per decade
spacing             Logarithmic
Va (mV)             5.0
pw                  0.10
Na                  2
corr                0
E range min (V)     -10.000
E range max (V)     10.000
I Range             Auto
Bandwidth           5
nc cycles           0
goto Ns'            0
nr cycles           0
inc. cycle          0

freq/Hz	Re(Z)/Ohm	-Im(Z)/Ohm	|Z|/Ohm	Phase(Z)/deg	time/s	<Ewe>/V	<I>/mA	Cs/µF	Cp/µF	cycle number	I Range	|Ewe|/V	|I|/A	Ns	(Q-Qo)/mA.h	Re(Y)/Ohm-1	Im(Y)/Ohm-1	|Y|/Ohm-1	Phase(Y)/deg	Re(C)/nF	Im(C)/nF	|C|/nF	Phase(C)/deg	Re(M)	Im(M)	|M|	Phase(M)/deg	Re(Permittivity)	Im(Permittivity)	|Permittivity|	Phase(Permittivity)/deg	Re(Resistivity)/Ohm.cm	Im(Resistivity)/Ohm.cm	|Resistivity|/Ohm.cm	Phase(Resistivity)/deg	Re(Conductivity)/mS/cm	Im(Conductivity)/mS/cm	|Conductivity|/mS/cm	Phase(Conductivity)/deg	Tan(Delta)	Loss Angle(Delta)/deg	dq/mA.h	Pwe/W	Rwe/Ohm
100004	2.48259	0.508457	2.53413	-11.5746	2.07849	0.223419	0.077328	3.13004	0.126009	1	9	0.00454702	0.00179431	0	1.46428e-05	0.386589	0.0791768	0.394613	11.5746	126.009	615.252	628.024	-78.4254	0.0000000E+000	0.0000000E+000	0.0000000E+000	78.4254	0.0000000E+000	0.0000000E+000	0.0000000E+000	-78.4254	0.0000000E+000	0.0000000E+000	0.0000000E+000	-11.5746	0.0000000E+000	0.0000000E+000	0.0000000E+000	11.5746	4.8826	78.4254	1.46428e-05	1.72766e-05	2889.24
46420.4	2.7031	0.730422	2.80005	-15.1211	3.23448	0.223481	0.0732507	4.69394	0.319414	1	9	0.00513744	0.00183477	0	3.28499e-05	0.344771	0.0931627	0.357136	15.1211	319.414	1182.07	1224.46	-74.8789	0.0000000E+000	0.0000000E+000	0.0000000E+000	74.8789	0.0000000E+000	0.0000000E+000	0.0000000E+000	-74.8789	0.0000000E+000	0.0000000E+000	0.0000000E+000	-15.1211	0.0000000E+000	0.0000000E+000	0.0000000E+000	15.1211	3.70074	74.8789	1.09684e-05	1.63702e-05	3050.91
21544.7	3.04739	0.932305	3.18681	-17.0107	4.39048	0.223509	0.0662875	7.92359	0.678149	1	9	0.00511027	0.00160357	0	5.33502e-05	0.300065	0.0918005	0.313793	17.0107	678.149	2216.64	2318.05	-72.9893	0.0000000E+000	0.0000000E+000	0.0000000E+000	72.9893	0.0000000E+000	0.0000000E+000	0.0000000E+000	-72.9893	0.0000000E+000	0.0000000E+000	0.0000000E+000	-17.0107	0.0000000E+000	0.0000000E+000	0.0000000E+000	17.0107	3.26866	72.9893	1.128e-05	1.48158e-05	3371.81
10002.2	3.49543	1.19717	3.69476	-18.9061	5.54648	0.223519	0.0610372	13.2913	1.39543	1	9	0.00509099	0.0013779	0	7.00176e-05	0.256052	0.0876969	0.270654	18.9061	1395.43	4074.29	4306.63	-71.0939	0.0000000E+000	0.0000000E+000	0.0000000E+000	71.0939	0.0000000E+000	0.0000000E+000	0.0000000E+000	-71.0939	0.0000000E+000	0.0000000E+000	0.0000000E+000	-18.9061	0.0000000E+000	0.0000000E+000	0.0000000E+000	18.9061	2.91974	71.0939	8.78121e-06	1.3643e-05	3662.01
4641.49	4.09732	1.59827	4.39801	-21.3096	7.27368	0.223533	0.00184352	21.4543	2.83335	1	10	0.00471101	0.00107117	0	8.61097e-05	0.21183	0.0826297	0.227375	21.3096	2833.35	7263.57	7796.62	-68.6904	0.0000000E+000	0.0000000E+000	0.0000000E+000	68.6904	0.0000000E+000	0.0000000E+000	0.0000000E+000	-68.6904	0.0000000E+000	0.0000000E+000	0.0000000E+000	-21.3096	0.0000000E+000	0.0000000E+000	0.0000000E+000	21.3096	2.5636	68.6904	6.82772e-06	4.12087e-07	121254
2155.69	4.85624	2.14043	5.30702	-23.786	8.65371	0.223533	0.00193287	34.4931	5.61092	1	10	0.00518079	0.000976215	0	8.69779e-05	0.172424	0.0759976	0.18843	23.786	5610.92	12730.1	13911.8	-66.214	0.0000000E+000	0.0000000E+000	0.0000000E+000	66.214	0.0000000E+000	0.0000000E+000	0.0000000E+000	-66.214	0.0000000E+000	0.0000000E+000	0.0000000E+000	-23.786	0.0000000E+000	0.0000000E+000	0.0000000E+000	23.786	2.26881	66.214	-5.05289e-07	4.32059e-07	115648
1000.32	5.89229	2.93899	6.58458	-26.5093	9.81271	0.223525	0.00202034	54.1357	10.7851	1	10	0.00518615	0.00078762	0	8.59011e-05	0.135903	0.0677862	0.15187	26.5093	10785.1	21622.6	24163.1	-63.4907	0.0000000E+000	0.0000000E+000	0.0000000E+000	63.4907	0.0000000E+000	0.0000000E+000	0.0000000E+000	-63.4907	0.0000000E+000	0.0000000E+000	0.0000000E+000	-26.5093	0.0000000E+000	0.0000000E+000	0.0000000E+000	26.5093	2.00487	63.4907	-3.72596e-07	4.51597e-07	110637
463.961	7.41334	4.0797	8.46177	-28.8248	10.7472	0.22353	0.00199614	84.0834	19.5454	1	10	0.00495455	0.000585521	0	8.61544e-05	0.103536	0.0569778	0.118179	28.8248	19545.4	35516.5	40539.4	-61.1752	0.0000000E+000	0.0000000E+000	0.0000000E+000	61.1752	0.0000000E+000	0.0000000E+000	0.0000000E+000	-61.1752	0.0000000E+000	0.0000000E+000	0.0000000E+000	-28.8248	0.0000000E+000	0.0000000E+000	0.0000000E+000	28.8248	1.81713	61.1752	3.05027e-07	4.46198e-07	111981
215.345	9.78049	5.45049	11.1967	-29.1302	11.6814	0.223526	0.00218041	135.597	32.1324	1	10	0.00480172	0.000428851	0	8.59503e-05	0.0780156	0.0434767	0.0893121	29.1302	32132.4	57659.1	66008	-60.8698	0.0000000E+000	0.0000000E+000	0.0000000E+000	60.8698	0.0000000E+000	0.0000000E+000	0.0000000E+000	-60.8698	0.0000000E+000	0.0000000E+000	0.0000000E+000	-29.1302	0.0000000E+000	0.0000000E+000	0.0000000E+000	29.1302	1.79442	60.8698	-1.7319e-07	4.8738e-07	102516
100.032	13.2275	6.45402	14.7181	-26.0088	12.6127	0.223524	0.00184722	246.519	47.4034	1	10	0.00473476	0.000321697	0	8.69301e-05	0.0610628	0.0297939	0.0679437	26.0088	47403.4	97153.3	108101	-63.9912	0.0000000E+000	0.0000000E+000	0.0000000E+000	63.9912	0.0000000E+000	0.0000000E+000	0.0000000E+000	-63.9912	0.0000000E+000	0.0000000E+000	0.0000000E+000	-26.0088	0.0000000E+000	0.0000000E+000	0.0000000E+000	26.0088	2.0495	63.9912	5.49739e-07	4.12899e-07	121006
46.4415	17.2523	6.23712	18.3451	-19.8761	13.5466	0.223519	0.00109336	549.452	63.5119	1	10	0.00471554	0.000257045	0	8.76891e-05	0.0512631	0.0185328	0.0545103	19.8761	63511.9	175679	186807	-70.1239	0.0000000E+000	0.0000000E+000	0.0000000E+000	70.1239	0.0000000E+000	0.0000000E+000	0.0000000E+000	-70.1239	0.0000000E+000	0.0000000E+000	0.0000000E+000	-19.8761	0.0000000E+000	0.0000000E+000	0.0000000E+000	19.8761	2.76607	70.1239	2.56737e-07	2.44387e-07	204433
[...]
1.00006	24.4799	2.12669	24.5721	-4.9651	22.8732	0.223548	-0.00169695	74832.3	560.547	1	12	0.00471602	0.000191926	0	7.711e-05	0.0405439	0.00352225	0.0406966	4.9651	560548	6.45235e+06	6.47665e+06	-85.0349	0.0000000E+000	0.0000000E+000	0.0000000E+000	85.0349	0.0000000E+000	0.0000000E+000	0.0000000E+000	-85.0349	0.0000000E+000	0.0000000E+000	0.0000000E+000	-4.9651	0.0000000E+000	0.0000000E+000	0.0000000E+000	4.9651	11.5108	85.0349	-8.73239e-06	-3.79352e-07	131735
0.464091	25.5179	2.41567	25.632	-5.40784	30.558	0.223552	-0.00226951	141964	1260.93	1	12	0.00471779	0.000184059	0	6.81529e-05	0.0388401	0.00367684	0.0390138	5.40784	1.26093e+06	1.33198e+07	1.33794e+07	-84.5922	0.0000000E+000	0.0000000E+000	0.0000000E+000	84.5922	0.0000000E+000	0.0000000E+000	0.0000000E+000	-84.5922	0.0000000E+000	0.0000000E+000	0.0000000E+000	-5.40784	0.0000000E+000	0.0000000E+000	0.0000000E+000	5.40784	10.5635	84.5922	-1.63906e-06	-5.07352e-07	98502.3
0.215268	26.5685	2.85248	26.7212	-6.12798	47.0381	0.223551	-0.00206858	259191	2953.6	1	12	0.00471772	0.000176554	0	9.51229e-05	0.0372097	0.00399495	0.0374235	6.12798	2.9536e+06	2.75104e+07	2.76685e+07	-83.872	0.0000000E+000	0.0000000E+000	0.0000000E+000	83.872	0.0000000E+000	0.0000000E+000	0.0000000E+000	-83.872	0.0000000E+000	0.0000000E+000	0.0000000E+000	-6.12798	0.0000000E+000	0.0000000E+000	0.0000000E+000	6.12798	9.31419	83.872	1.83145e-05	-4.62435e-07	108070
0.0999041	27.9423	3.67274	28.1827	-7.48803	82.4437	0.223553	-0.000106639	433757	7366.52	1	12	0.00471507	0.000167304	0	0.000124475	0.0351802	0.00462408	0.0354828	7.48803	7.36651e+06	5.60448e+07	5.65268e+07	-82.512	0.0000000E+000	0.0000000E+000	0.0000000E+000	82.512	0.0000000E+000	0.0000000E+000	0.0000000E+000	-82.512	0.0000000E+000	0.0000000E+000	0.0000000E+000	-7.48803	0.0000000E+000	0.0000000E+000	0.0000000E+000	7.48803	7.60804	82.512	8.13674e-06	-2.38395e-08	2.09635e+06
0.0464052	29.3999	5.04358	29.8294	-9.73438	158.679	0.223557	0.000665698	680009	19440.3	1	12	0.00471624	0.000158107	0	3.11894e-05	0.0330413	0.00566826	0.033524	9.73438	1.94403e+07	1.13321e+08	1.14976e+08	-80.2656	0.0000000E+000	0.0000000E+000	0.0000000E+000	80.2656	0.0000000E+000	0.0000000E+000	0.0000000E+000	-80.2656	0.0000000E+000	0.0000000E+000	0.0000000E+000	-9.73438	0.0000000E+000	0.0000000E+000	0.0000000E+000	9.73438	5.82918	80.2656	-7.48259e-05	1.48822e-07	335824
0.0215268	31.2956	7.56206	32.1963	-13.5842	322.91	0.223554	-0.000995569	977690	53934.8	1	12	0.00471455	0.000146431	0	-0.000252325	0.0301906	0.00729505	0.0310595	13.5842	5.39348e+07	2.2321e+08	2.29633e+08	-76.4158	0.0000000E+000	0.0000000E+000	0.0000000E+000	76.4158	0.0000000E+000	0.0000000E+000	0.0000000E+000	-76.4158	0.0000000E+000	0.0000000E+000	0.0000000E+000	-13.5842	0.0000000E+000	0.0000000E+000	0.0000000E+000	13.5842	4.13851	76.4158	-0.000151609	-2.22564e-07	224549
0.0100092	33.7761	12.8658	36.1435	-20.8525	676.127	0.223566	-0.000926246	1.23591e+06	156602	1	12	0.00471366	0.000130415	0	-0.0001546	0.0258553	0.00984864	0.0276675	20.8525	1.56602e+08	4.11123e+08	4.39939e+08	-69.1475	0.0000000E+000	0.0000000E+000	0.0000000E+000	69.1475	0.0000000E+000	0.0000000E+000	0.0000000E+000	-69.1475	0.0000000E+000	0.0000000E+000	0.0000000E+000	-20.8525	0.0000000E+000	0.0000000E+000	0.0000000E+000	20.8525	2.62526	69.1475	0.00016429	-2.07077e-07	241368

File: 17416_R282_UA652_SOC00_C01.mpt
EC-Lab ASCII FILE
Nb header lines : 63

Potentio Electrochemical Impedance Spectroscopy

Run on channel : 1 (SN 66354)
User :
CE vs. WE compliance from -10 V to 10 V
Electrode connection : standard
Potential control : Ewe
Ewe ctrl range : min = -10.00 V, max = 10.00 V
Safety Limits :
	Do not start on E overload
Acquisition started on : 09/08/2025 17:23:47.822
Loaded Setting File :  C:\Users\Celltest\OneDrive - store-dot.com\Documents\EC-Lab\Data\Gyutae\EIS_SOC0_C01.mpr
Saved on :
	File : 17416_C01.mpr
	Directory : C:\Users\Celltest\OneDrive - store-dot.com\Documents\EC-Lab\Data\Gyutae\R282\
	Host : 169.254.61.224
Device : VMP-3e (SN .003165)
Address : USB
EC-LAB for windows v11.62 (software)
Internet server v27.00 (firmware)
Command interpretor v12.03 (firmware)
Electrode material :
Initial state :
Electrolyte :
Comments :
Electrode surface area : 0.001 cm²
Characteristic mass : 0.001 g
Equivalent Weight : 0.000 g/eq.
Density : 0.000 g/cm3
Volume (V) : 0.001 cm³
Cycle Definition : Charge/Discharge alternance
Mode                Single sine
E (V)               0.0000
vs.                 Eoc
tE (h:m:s)          0:00:0.0000
record              0
dI                  0.000
unit dI             mA
dt (s)              0.000
fi                  100.000
unit fi             kHz
ff                  10.000
unit ff             mHz
Nd                  6
Points              per decade
spacing             Logarithmic
Va (mV)             5.0
pw                  0.10
Na                  2
corr                0
E range min (V)     -10.000
E range max (V)     10.000
I Range             Auto
Bandwidth           5
nc cycles           0
goto Ns'            0
nr cycles           0
inc. cycle          0

freq/Hz	Re(Z)/Ohm	-Im(Z)/Ohm	|Z|/Ohm	Phase(Z)/deg	time/s	<Ewe>/V	<I>/mA	Cs/µF	Cp/µF	cycle number	I Range	|Ewe|/V	|I|/A	Ns	(Q-Qo)/mA.h	Re(Y)/Ohm-1	Im(Y)/Ohm-1	|Y|/Ohm-1	Phase(Y)/deg	Re(C)/nF	Im(C)/nF	|C|/nF	Phase(C)/deg	Re(M)	Im(M)	|M|	Phase(M)/deg	Re(Permittivity)	Im(Permittivity)	|Permittivity|	Phase(Permittivity)/deg	Re(Resistivity)/Ohm.cm	Im(Resistivity)/Ohm.cm	|Resistivity|/Ohm.cm	Phase(Resistivity)/deg	Re(Conductivity)/mS/cm	Im(Conductivity)/mS/cm	|Conductivity|/mS/cm	Phase(Conductivity)/deg	Tan(Delta)	Loss Angle(Delta)/deg	dq/mA.h	Pwe/W	Rwe/Ohm
100004	1.27065	0.352566	1.31865	-15.5077	2.02549	0.271025	0.0526545	4.51402	0.322688	1	9	0.00494208	0.00374782	0	6.14091e-06	0.730741	0.202758	0.75835	15.5077	322.688	1162.97	1206.91	-74.4923	0.0000000E+000	0.0000000E+000	0.0000000E+000	74.4923	0.0000000E+000	0.0000000E+000	0.0000000E+000	-74.4923	0.0000000E+000	0.0000000E+000	0.0000000E+000	-15.5077	0.0000000E+000	0.0000000E+000	0.0000000E+000	15.5077	3.604	74.4923	6.14091e-06	1.42707e-05	5147.24
46420.4	1.45524	0.458341	1.52572	-17.4823	2.89949	0.271038	0.0556721	7.48037	0.675077	1	9	0.00545379	0.00357458	0	1.66718e-05	0.625156	0.196898	0.65543	17.4823	675.077	2143.38	2247.18	-72.5177	0.0000000E+000	0.0000000E+000	0.0000000E+000	72.5177	0.0000000E+000	0.0000000E+000	0.0000000E+000	-72.5177	0.0000000E+000	0.0000000E+000	0.0000000E+000	-17.4823	0.0000000E+000	0.0000000E+000	0.0000000E+000	17.4823	3.17502	72.5177	4.92629e-06	1.50893e-05	4868.48
21544.7	1.68098	0.591825	1.78212	-19.3957	3.7735	0.271045	0.0535113	12.4821	1.37658	1	9	0.00536966	0.00301308	0	3.90393e-05	0.529284	0.186346	0.56113	19.3957	1376.58	3909.93	4145.18	-70.6043	0.0000000E+000	0.0000000E+000	0.0000000E+000	70.6043	0.0000000E+000	0.0000000E+000	0.0000000E+000	-70.6043	0.0000000E+000	0.0000000E+000	0.0000000E+000	-19.3957	0.0000000E+000	0.0000000E+000	0.0000000E+000	19.3957	2.84033	70.6043	1.29403e-05	1.4504e-05	5065.2
10002.2	1.97573	0.759867	2.11682	-21.0367	4.64949	0.271039	0.0544054	20.9404	2.69832	1	9	0.00522883	0.00247014	0	5.21106e-05	0.440921	0.169578	0.472407	21.0367	2698.32	7015.92	7516.92	-68.9633	0.0000000E+000	0.0000000E+000	0.0000000E+000	68.9633	0.0000000E+000	0.0000000E+000	0.0000000E+000	-68.9633	0.0000000E+000	0.0000000E+000	0.0000000E+000	-21.0367	0.0000000E+000	0.0000000E+000	0.0000000E+000	21.0367	2.6001	68.9633	7.82812e-06	1.4746e-05	4981.84
4641.49	2.3595	0.977911	2.55413	-22.5119	5.89769	0.271025	0.0581867	35.0642	5.14017	1	9	0.00499576	0.00195596	0	7.56499e-05	0.361689	0.149905	0.391523	22.5119	5140.17	12402.2	13425.2	-67.4881	0.0000000E+000	0.0000000E+000	0.0000000E+000	67.4881	0.0000000E+000	0.0000000E+000	0.0000000E+000	-67.4881	0.0000000E+000	0.0000000E+000	0.0000000E+000	-22.5119	0.0000000E+000	0.0000000E+000	0.0000000E+000	22.5119	2.4128	67.4881	1.26572e-05	1.577e-05	4657.85
2155.69	2.8591	1.27157	3.12912	-23.9769	6.83071	0.271037	0.0639052	58.0621	9.58808	1	9	0.00492703	0.00157458	0	8.9004e-05	0.292002	0.129867	0.319579	23.9769	9588.08	21558.6	23594.6	-66.0231	0.0000000E+000	0.0000000E+000	0.0000000E+000	66.0231	0.0000000E+000	0.0000000E+000	0.0000000E+000	-66.0231	0.0000000E+000	0.0000000E+000	0.0000000E+000	-23.9769	0.0000000E+000	0.0000000E+000	0.0000000E+000	23.9769	2.24848	66.0231	7.20916e-06	1.73207e-05	4241.24
1000.32	3.55388	1.62996	3.90984	-24.6382	8.0207	0.271049	-0.0170568	97.612	16.9645	1	10	0.00486567	0.00124447	0	8.81442e-05	0.23248	0.106625	0.255765	24.6382	16964.5	36988.4	40693.2	-65.3618	0.0000000E+000	0.0000000E+000	0.0000000E+000	65.3618	0.0000000E+000	0.0000000E+000	0.0000000E+000	-65.3618	0.0000000E+000	0.0000000E+000	0.0000000E+000	-24.6382	0.0000000E+000	0.0000000E+000	0.0000000E+000	24.6382	2.18034	65.3618	-3.10829e-06	-4.62322e-06	15891
463.961	4.44681	2.01414	4.88169	-24.3677	8.95522	0.271046	-0.0173102	170.313	28.9927	1	10	0.00475507	0.000974061	0	8.35484e-05	0.186598	0.084518	0.204847	24.3677	28992.7	64009.9	70269.8	-65.6323	0.0000000E+000	0.0000000E+000	0.0000000E+000	65.6323	0.0000000E+000	0.0000000E+000	0.0000000E+000	-65.6323	0.0000000E+000	0.0000000E+000	0.0000000E+000	-24.3677	0.0000000E+000	0.0000000E+000	0.0000000E+000	24.3677	2.2078	65.6323	-1.96792e-06	-4.69185e-06	15658.1
215.345	5.56697	2.36501	6.04851	-23.0172	9.88941	0.271039	-0.0175655	312.502	47.7775	1	10	0.00471038	0.000778767	0	7.80715e-05	0.152168	0.0646453	0.16533	23.0172	47777.5	112463	122191	-66.9828	0.0000000E+000	0.0000000E+000	0.0000000E+000	66.9828	0.0000000E+000	0.0000000E+000	0.0000000E+000	-66.9828	0.0000000E+000	0.0000000E+000	0.0000000E+000	-23.0172	0.0000000E+000	0.0000000E+000	0.0000000E+000	23.0172	2.35389	66.9828	-2.80211e-06	-4.76094e-06	15430.2
100.032	6.89362	2.63504	7.38007	-20.919	10.8207	0.271052	-0.0169133	603.801	76.9746	1	10	0.00468827	0.00063526	0	7.49066e-05	0.126569	0.04838	0.1355	20.919	76974.6	201376	215586	-69.081	0.0000000E+000	0.0000000E+000	0.0000000E+000	69.081	0.0000000E+000	0.0000000E+000	0.0000000E+000	-69.081	0.0000000E+000	0.0000000E+000	0.0000000E+000	-20.919	0.0000000E+000	0.0000000E+000	0.0000000E+000	20.919	2.61613	69.081	-1.42614e-06	-4.58437e-06	16025.9
46.4415	8.37806	2.61258	8.77596	-17.3194	11.7545	0.27104	-0.019019	1311.73	116.25	1	10	0.0046873	0.000534107	0	7.15104e-05	0.108781	0.033922	0.113948	17.3194	116250	372793	390498	-72.6806	0.0000000E+000	0.0000000E+000	0.0000000E+000	72.6806	0.0000000E+000	0.0000000E+000	0.0000000E+000	-72.6806	0.0000000E+000	0.0000000E+000	0.0000000E+000	-17.3194	0.0000000E+000	0.0000000E+000	0.0000000E+000	17.3194	3.20681	72.6806	-1.94623e-06	-5.15491e-06	14251
[...]
1.00006	12.6393	0.971265	12.6766	-4.39424	19.9901	0.271077	-0.0136532	163853	961.891	1	11	0.00468769	0.000369792	0	5.43549e-05	0.0786538	0.00604413	0.0788857	4.39424	961891	1.25173e+07	1.25542e+07	-85.6058	0.0000000E+000	0.0000000E+000	0.0000000E+000	85.6058	0.0000000E+000	0.0000000E+000	0.0000000E+000	-85.6058	0.0000000E+000	0.0000000E+000	0.0000000E+000	-4.39424	0.0000000E+000	0.0000000E+000	0.0000000E+000	4.39424	13.0133	85.6058	1.34198e-06	-3.70108e-06	19854.4
0.464091	12.9772	0.964254	13.013	-4.24947	27.6747	0.271072	-0.0112069	355652	1952.78	1	11	0.00469037	0.000360437	0	1.37785e-05	0.0766349	0.00569425	0.0768462	4.24947	1.95278e+06	2.62811e+07	2.63536e+07	-85.7505	0.0000000E+000	0.0000000E+000	0.0000000E+000	85.7505	0.0000000E+000	0.0000000E+000	0.0000000E+000	-85.7505	0.0000000E+000	0.0000000E+000	0.0000000E+000	-4.24947	0.0000000E+000	0.0000000E+000	0.0000000E+000	4.24947	13.4583	85.7505	-3.07382e-05	-3.03789e-06	24187.9
0.215268	13.3278	1.17813	13.3797	-5.05165	44.1547	0.271076	-0.0116843	627547	4865.65	1	11	0.00468988	0.000350521	0	-0.000108909	0.0744496	0.00658113	0.0747399	5.05165	4.86565e+06	5.50432e+07	5.52578e+07	-84.9484	0.0000000E+000	0.0000000E+000	0.0000000E+000	84.9484	0.0000000E+000	0.0000000E+000	0.0000000E+000	-84.9484	0.0000000E+000	0.0000000E+000	0.0000000E+000	-5.05165	0.0000000E+000	0.0000000E+000	0.0000000E+000	5.05165	11.3126	84.9484	-6.91872e-05	-3.16734e-06	23200
0.0999041	13.8323	1.79291	13.948	-7.38537	79.5602	0.271073	-0.0141694	888542	14681.5	1	11	0.00468819	0.000336119	0	-0.000219561	0.0711	0.00921581	0.0716948	7.38537	1.46815e+07	1.13268e+08	1.14215e+08	-82.6146	0.0000000E+000	0.0000000E+000	0.0000000E+000	82.6146	0.0000000E+000	0.0000000E+000	0.0000000E+000	-82.6146	0.0000000E+000	0.0000000E+000	0.0000000E+000	-7.38537	0.0000000E+000	0.0000000E+000	0.0000000E+000	7.38537	7.715	82.6146	-4.2506e-05	-3.84094e-06	19130.9
0.0464052	14.5741	2.79648	14.84	-10.8619	155.797	0.271072	-0.0124565	1.22643e+06	43551.2	1	11	0.00468772	0.000315885	0	-0.000196029	0.0661784	0.0126983	0.0673857	10.8619	4.35512e+07	2.26971e+08	2.31111e+08	-79.1381	0.0000000E+000	0.0000000E+000	0.0000000E+000	79.1381	0.0000000E+000	0.0000000E+000	0.0000000E+000	-79.1381	0.0000000E+000	0.0000000E+000	0.0000000E+000	-10.8619	0.0000000E+000	0.0000000E+000	0.0000000E+000	10.8619	5.21158	79.1381	3.31476e-05	-3.37661e-06	21761.4
0.0215268	15.7673	4.69738	16.4521	-16.5898	366.581	0.271067	-0.0135943	1.57393e+06	128308	1	12	0.00469024	0.000285084	0	-0.000691331	0.0582523	0.0173545	0.0607825	16.5898	1.28308e+08	4.30679e+08	4.49386e+08	-73.4102	0.0000000E+000	0.0000000E+000	0.0000000E+000	73.4102	0.0000000E+000	0.0000000E+000	0.0000000E+000	-73.4102	0.0000000E+000	0.0000000E+000	0.0000000E+000	-16.5898	0.0000000E+000	0.0000000E+000	0.0000000E+000	16.5898	3.35661	73.4102	-0.000470542	-3.68497e-06	19939.7
0.0100092	17.4348	7.87856	19.1322	-24.3176	719.797	0.27107	-0.0152661	2.01825e+06	342245	1	12	0.00468796	0.000245029	0	-0.00312539	0.0476304	0.0215236	0.0522678	24.3176	3.42245e+08	7.57367e+08	8.31106e+08	-65.6824	0.0000000E+000	0.0000000E+000	0.0000000E+000	65.6824	0.0000000E+000	0.0000000E+000	0.0000000E+000	-65.6824	0.0000000E+000	0.0000000E+000	0.0000000E+000	-24.3176	0.0000000E+000	0.0000000E+000	0.0000000E+000	24.3176	2.21294	65.6824	-0.00157493	-4.1382e-06	17756.3