Folder: EIS/txt (part 133)

File: 18821_R307_UA701_3p84_SOC00_C08.mpt
EC-Lab ASCII FILE
Nb header lines : 65

Potentio Electrochemical Impedance Spectroscopy

Run on channel : 8 (SN 65398)
User :
CE vs. WE compliance from -10 V to 10 V
Electrode connection : standard
Potential control : Ewe
Ewe ctrl range : min = -10.00 V, max = 10.00 V
Safety Limits :
	Do not start on E overload
Acquisition started on : 11/03/2025 16:09:26.191
Technique started on : 11/03/2025 16:09:27.970
Loaded Setting File :  C:\Users\Celltest\OneDrive - store-dot.com\Documents\EC-Lab\Data\@Biologic Test Protocols\anode half cell EIS SOC00.mps
Saved on :
	File : 18821_R307_UA701_3p84_SOC00_C08.mpr
	Directory : C:\Users\Celltest\OneDrive - store-dot.com\Documents\EC-Lab\Data\Anna\
	Host : 169.254.61.224
Device : VMP-3e (SN .003165)
Address : USB
EC-LAB for windows v11.62 (software)
Internet server v27.00 (firmware)
Command interpretor v12.03 (firmware)
Electrode material :
Initial state :
Electrolyte :
Comments :
Electrode surface area : 0.001 cm²
Characteristic mass : 0.001 g
Equivalent Weight : 0.000 g/eq.
Density : 0.000 g/cm3
Volume (V) : 0.001 cm³
Record Ece
Cycle Definition : Charge/Discharge alternance
Mode                Single sine
E (V)               0.0000
vs.                 Eoc
tE (h:m:s)          0:00:0.0000
record              0
dI                  0.000
unit dI             mA
dt (s)              0.000
fi                  100.000
unit fi             kHz
ff                  10.000
unit ff             mHz
Nd                  6
Points              per decade
spacing             Logarithmic
Va (mV)             5.0
pw                  0.10
Na                  2
corr                0
E range min (V)     -10.000
E range max (V)     10.000
I Range             Auto
Bandwidth           5
nc cycles           0
goto Ns'            0
nr cycles           0
inc. cycle          0

freq/Hz	Re(Z)/Ohm	-Im(Z)/Ohm	|Z|/Ohm	Phase(Z)/deg	time/s	<Ewe>/V	<I>/mA	Cs/µF	Cp/µF	cycle number	I Range	|Ewe|/V	|I|/A	Ns	(Q-Qo)/mA.h	<Ece>/V	|Ece|/V	Phase(Zce)/deg	|Zce|/Ohm	Re(Zce)/Ohm	-Im(Zce)/Ohm	Phase(Zwe-ce)/deg	|Zwe-ce|/Ohm	Re(Zwe-ce)/Ohm	-Im(Zwe-ce)/Ohm	Re(Y)/Ohm-1	Im(Y)/Ohm-1	|Y|/Ohm-1	Phase(Y)/deg	Re(C)/nF	Im(C)/nF	|C|/nF	Phase(C)/deg	Re(M)	Im(M)	|M|	Phase(M)/deg	Re(Permittivity)	Im(Permittivity)	|Permittivity|	Phase(Permittivity)/deg	Re(Resistivity)/Ohm.cm	Im(Resistivity)/Ohm.cm	|Resistivity|/Ohm.cm	Phase(Resistivity)/deg	Re(Conductivity)/mS/cm	Im(Conductivity)/mS/cm	|Conductivity|/mS/cm	Phase(Conductivity)/deg	Tan(Delta)	Loss Angle(Delta)/deg	dq/mA.h	Pwe/W	Pce/W	Pwe-ce/W	<Ewe-Ece>/V	Rwe/Ohm	Rce/Ohm	Rwe-ce/Ohm		Ewe-Ece/V
100004	1.54397	0.312464	1.57527	-11.4408	1.77852	0.247448	0.0256719	5.09336	0.200397	1	9	0.00341913	0.0021705	0	-1.62939e-06	-1.2779e-05	2.80875e-05	69.0453	0.0129406	0.00462794	-0.0120847	-10.9772	1.57746	1.5486	0.300379	0.622197	0.125918	0.63481	11.4408	200.397	990.22	1010.29	-78.5592	0.0000000E+000	0.0000000E+000	0.0000000E+000	78.5592	0.0000000E+000	0.0000000E+000	0.0000000E+000	-78.5592	0.0000000E+000	0.0000000E+000	0.0000000E+000	-11.4408	0.0000000E+000	0.0000000E+000	0.0000000E+000	11.4408	4.94129	78.5592	-1.62939e-06	6.35248e-06	-3.28061e-10	6.35281e-06	0.247461	9638.87	0.497779	9639.37
31621.1	1.88381	0.644572	1.99103	-18.8891	3.29952	0.247448	-0.00810767	7.80856	0.818384	1	9	0.00543027	0.00272736	0	2.12537e-05	0.000139925	1.20777e-05	7.75827	0.00442832	0.00438779	-0.000597797	-18.8321	1.99499	1.8882	0.643974	0.475204	0.162598	0.502252	18.8891	818.384	2391.79	2527.92	-71.1109	0.0000000E+000	0.0000000E+000	0.0000000E+000	71.1109	0.0000000E+000	0.0000000E+000	0.0000000E+000	-71.1109	0.0000000E+000	0.0000000E+000	0.0000000E+000	-18.8891	0.0000000E+000	0.0000000E+000	0.0000000E+000	18.8891	2.92257	71.1109	-5.80858e-06	-2.00623e-06	-1.13447e-09	-2.00509e-06	0.247308	30520.3	17.2584	30503
10002.2	2.36754	0.804267	2.50042	-18.7629	4.32653	0.247445	-0.00859133	19.7844	2.0469	1	9	0.00499292	0.00199683	0	2.10119e-05	6.3091e-06	8.32275e-06	-103.161	0.00416798	-0.000949017	0.0040585	-18.8579	2.50083	2.3666	0.808325	0.378679	0.128639	0.399932	18.7629	2046.9	6025.52	6363.71	-71.2371	0.0000000E+000	0.0000000E+000	0.0000000E+000	71.2371	0.0000000E+000	0.0000000E+000	0.0000000E+000	-71.2371	0.0000000E+000	0.0000000E+000	0.0000000E+000	-18.7629	0.0000000E+000	0.0000000E+000	0.0000000E+000	18.7629	2.94373	71.2371	1.13083e-06	-2.12588e-06	-5.42035e-11	-2.12582e-06	0.247439	28801.7	0.734357	28801
3163.08	2.97805	1.14023	3.18887	-20.9508	5.22367	0.24728	-0.0434498	44.1282	5.64195	1	9	0.00474883	0.00148919	0	1.0389e-05	0.000235366	4.37563e-06	-72.3619	0.00293827	0.000890305	0.00280014	-20.9921	3.19071	2.97894	1.14303	0.292858	0.112129	0.31359	20.9508	5641.95	14735.6	15778.8	-69.0492	0.0000000E+000	0.0000000E+000	0.0000000E+000	69.0492	0.0000000E+000	0.0000000E+000	0.0000000E+000	-69.0492	0.0000000E+000	0.0000000E+000	0.0000000E+000	-20.9508	0.0000000E+000	0.0000000E+000	0.0000000E+000	20.9508	2.61179	69.0492	-4.32115e-06	-1.07443e-05	-1.02266e-08	-1.07341e-05	0.247045	5691.16	5.41695	5685.75
1000.32	3.80867	1.73337	4.18456	-24.4708	6.82283	0.247396	-0.0167731	91.7889	15.7497	1	10	0.00472222	0.00112849	0	1.25315e-05	0.000330806	3.67571e-06	-30.2314	0.00325721	0.00281423	0.00163998	-24.4753	4.1878	3.81149	1.73501	0.217507	0.0989898	0.238974	24.4708	15749.7	34606.3	38021.7	-65.5292	0.0000000E+000	0.0000000E+000	0.0000000E+000	65.5292	0.0000000E+000	0.0000000E+000	0.0000000E+000	-65.5292	0.0000000E+000	0.0000000E+000	0.0000000E+000	-24.4708	0.0000000E+000	0.0000000E+000	0.0000000E+000	24.4708	2.19727	65.5292	-1.16608e-06	-4.14958e-06	-5.54863e-09	-4.14404e-06	0.247065	14749.6	19.7225	14729.9
316.316	5.24643	2.93981	6.01394	-29.2638	8.17107	0.247381	-0.0167545	171.151	40.8978	1	10	0.00465671	0.00077432	0	6.20669e-06	0.000178102	1.11042e-06	37.5858	0.00143406	0.00113641	-0.000874705	-29.2513	6.0145	5.24756	2.93893	0.145059	0.0812832	0.16628	29.2638	40897.8	72986.9	83664.3	-60.7362	0.0000000E+000	0.0000000E+000	0.0000000E+000	60.7362	0.0000000E+000	0.0000000E+000	0.0000000E+000	-60.7362	0.0000000E+000	0.0000000E+000	0.0000000E+000	-29.2638	0.0000000E+000	0.0000000E+000	0.0000000E+000	29.2638	1.78462	60.7362	-1.38022e-06	-4.14474e-06	-2.984e-09	-4.14175e-06	0.247203	14765.1	10.6301	14754.4
100.032	8.23641	4.36907	9.32348	-27.9441	9.51781	0.247399	-0.0163602	364.16	79.9677	1	10	0.00462658	0.000496229	0	6.5913e-07	0.00048351	1.43449e-05	6.69224	0.0289078	0.0287108	-0.0033688	-27.8434	9.34727	8.26512	4.36571	0.0947506	0.0502613	0.107256	27.9441	79967.8	150752	170649	-62.0559	0.0000000E+000	0.0000000E+000	0.0000000E+000	62.0559	0.0000000E+000	0.0000000E+000	0.0000000E+000	-62.0559	0.0000000E+000	0.0000000E+000	0.0000000E+000	-27.9441	0.0000000E+000	0.0000000E+000	0.0000000E+000	27.9441	1.88516	62.0559	-2.47731e-06	-4.04748e-06	-7.91031e-09	-4.03957e-06	0.246915	15122	29.5541	15092.5
[...]
1.00006	17.9861	1.51487	18.0498	-4.81436	19.5849	0.247448	-0.00371586	105055	739.99	1	12	0.0046206	0.000255993	0	-2.81007e-05	0.000139925	1.6847e-06	57.7693	0.00658104	0.00350986	-0.00556695	-4.79582	18.0528	17.9896	1.5093	0.055207	0.00464979	0.0554024	4.81436	739990	8.7859e+06	8.81701e+06	-85.1856	0.0000000E+000	0.0000000E+000	0.0000000E+000	85.1856	0.0000000E+000	0.0000000E+000	0.0000000E+000	-85.1856	0.0000000E+000	0.0000000E+000	0.0000000E+000	-4.81436	0.0000000E+000	0.0000000E+000	0.0000000E+000	4.81436	11.873	85.1856	-1.20606e-05	-9.19483e-07	-5.19943e-10	-9.18964e-07	0.247309	66592.5	37.6563	66554.9
0.316193	18.6525	1.6238	18.723	-4.97537	33.9271	0.247437	-0.00574503	309981	2331.57	1	12	0.00461294	0.000246378	0	-3.89188e-05	0.000235366	1.64008e-06	37.1503	0.00665678	0.00530582	-0.00402008	-4.96171	18.728	18.6578	1.61978	0.0532089	0.00463213	0.0534102	4.97537	2.33157e+06	2.67826e+07	2.68839e+07	-85.0246	0.0000000E+000	0.0000000E+000	0.0000000E+000	85.0246	0.0000000E+000	0.0000000E+000	0.0000000E+000	-85.0246	0.0000000E+000	0.0000000E+000	0.0000000E+000	-4.97537	0.0000000E+000	0.0000000E+000	0.0000000E+000	4.97537	11.4869	85.0246	5.59555e-06	-1.42153e-06	-1.35218e-09	-1.42018e-06	0.247202	43069.7	40.9686	43028.8
0.0999041	19.6023	2.94243	19.8219	-8.53674	79.1362	0.24743	-0.0013722	541415	11930.3	1	12	0.00461359	0.000232752	0	9.69361e-06	0.000235366	2.21609e-06	-9.43209	0.00952125	0.00939253	0.00156033	-8.53717	19.8314	19.6117	2.94399	0.0498903	0.00748886	0.0504492	8.53674	1.19303e+07	7.94791e+07	8.03695e+07	-81.4633	0.0000000E+000	0.0000000E+000	0.0000000E+000	81.4633	0.0000000E+000	0.0000000E+000	0.0000000E+000	-81.4633	0.0000000E+000	0.0000000E+000	0.0000000E+000	-8.53674	0.0000000E+000	0.0000000E+000	0.0000000E+000	8.53674	6.66193	81.4633	7.11833e-06	-3.39524e-07	-3.22969e-10	-3.39201e-07	0.247194	180316	171.524	180144
0.0315922	21.4264	6.35914	22.3502	-16.5304	222.021	0.247438	-0.00214137	792212	64132.4	1	12	0.00461485	0.000206479	0	-0.000374939	0.000254454	2.04461e-06	-7.69568	0.00990225	0.00981306	0.00132602	-16.5265	22.3599	21.4362	6.36047	0.0428932	0.0127303	0.0447424	16.5304	6.41324e+07	2.16087e+08	2.25403e+08	-73.4696	0.0000000E+000	0.0000000E+000	0.0000000E+000	73.4696	0.0000000E+000	0.0000000E+000	0.0000000E+000	-73.4696	0.0000000E+000	0.0000000E+000	0.0000000E+000	-16.5304	0.0000000E+000	0.0000000E+000	0.0000000E+000	16.5304	3.36939	73.4696	-0.000224275	-5.29856e-07	-5.44879e-10	-5.29311e-07	0.247184	115551	118.828	115433
0.0100092	25.376	14.974	29.4646	-30.5441	673.244	0.247427	-0.00297385	1.0619e+06	274257	1	12	0.00461817	0.000156736	0	-0.000559884	6.3091e-06	3.05531e-06	10.7837	0.0194933	0.0191491	-0.00364722	-30.5191	29.4792	25.3952	14.9703	0.0292296	0.0172479	0.033939	30.5441	2.74257e+08	4.64777e+08	5.39662e+08	-59.4559	0.0000000E+000	0.0000000E+000	0.0000000E+000	59.4559	0.0000000E+000	0.0000000E+000	0.0000000E+000	-59.4559	0.0000000E+000	0.0000000E+000	0.0000000E+000	-30.5441	0.0000000E+000	0.0000000E+000	0.0000000E+000	30.5441	1.69468	59.4559	0.0001656	-7.35811e-07	-1.87623e-11	-7.35792e-07	0.247421	83200.9	2.12153	83198.8

File: 18822_R307_UA701_3p84_SOC00_C01.mpt
EC-Lab ASCII FILE
Nb header lines : 65

Potentio Electrochemical Impedance Spectroscopy

Run on channel : 1 (SN 66354)
User :
CE vs. WE compliance from -10 V to 10 V
Electrode connection : standard
Potential control : Ewe
Ewe ctrl range : min = -10.00 V, max = 10.00 V
Safety Limits :
	Do not start on E overload
Acquisition started on : 11/03/2025 17:10:35.419
Technique started on : 11/03/2025 17:10:37.331
Loaded Setting File :  C:\Users\Celltest\OneDrive - store-dot.com\Documents\EC-Lab\Data\@Biologic Test Protocols\anode half cell EIS SOC00.mps
Saved on :
	File : 18822_R307_UA701_3p84_SOC00_C01.mpr
	Directory : C:\Users\Celltest\OneDrive - store-dot.com\Documents\EC-Lab\Data\Anna\
	Host : 169.254.61.224
Device : VMP-3e (SN .003165)
Address : USB
EC-LAB for windows v11.62 (software)
Internet server v27.00 (firmware)
Command interpretor v12.03 (firmware)
Electrode material :
Initial state :
Electrolyte :
Comments :
Electrode surface area : 0.001 cm²
Characteristic mass : 0.001 g
Equivalent Weight : 0.000 g/eq.
Density : 0.000 g/cm3
Volume (V) : 0.001 cm³
Record Ece
Cycle Definition : Charge/Discharge alternance
Mode                Single sine
E (V)               0.0000
vs.                 Eoc
tE (h:m:s)          0:00:0.0000
record              0
dI                  0.000
unit dI             mA
dt (s)              0.000
fi                  100.000
unit fi             kHz
ff                  10.000
unit ff             mHz
Nd                  6
Points              per decade
spacing             Logarithmic
Va (mV)             5.0
pw                  0.10
Na                  2
corr                0
E range min (V)     -10.000
E range max (V)     10.000
I Range             Auto
Bandwidth           5
nc cycles           0
goto Ns'            0
nr cycles           0
inc. cycle          0

freq/Hz	Re(Z)/Ohm	-Im(Z)/Ohm	|Z|/Ohm	Phase(Z)/deg	time/s	<Ewe>/V	<I>/mA	Cs/µF	Cp/µF	cycle number	I Range	|Ewe|/V	|I|/A	Ns	(Q-Qo)/mA.h	<Ece>/V	|Ece|/V	Phase(Zce)/deg	|Zce|/Ohm	Re(Zce)/Ohm	-Im(Zce)/Ohm	Phase(Zwe-ce)/deg	|Zwe-ce|/Ohm	Re(Zwe-ce)/Ohm	-Im(Zwe-ce)/Ohm	Re(Y)/Ohm-1	Im(Y)/Ohm-1	|Y|/Ohm-1	Phase(Y)/deg	Re(C)/nF	Im(C)/nF	|C|/nF	Phase(C)/deg	Re(M)	Im(M)	|M|	Phase(M)/deg	Re(Permittivity)	Im(Permittivity)	|Permittivity|	Phase(Permittivity)/deg	Re(Resistivity)/Ohm.cm	Im(Resistivity)/Ohm.cm	|Resistivity|/Ohm.cm	Phase(Resistivity)/deg	Re(Conductivity)/mS/cm	Im(Conductivity)/mS/cm	|Conductivity|/mS/cm	Phase(Conductivity)/deg	Tan(Delta)	Loss Angle(Delta)/deg	dq/mA.h	Pwe/W	Pce/W	Pwe-ce/W	<Ewe-Ece>/V	Rwe/Ohm	Rce/Ohm	Rwe-ce/Ohm		Ewe-Ece/V
100004	1.14837	0.459586	1.23692	-21.8116	1.91153	0.253715	0.0686179	3.46288	0.478064	1	9	0.00479633	0.00387764	0	1.2871e-05	-7.39696e-05	4.12097e-05	97.2618	0.0106275	-0.00134335	-0.0105423	-21.3796	1.23179	1.14703	0.449043	0.750582	0.300388	0.808459	21.8116	478.064	1194.54	1286.65	-68.1884	0.0000000E+000	0.0000000E+000	0.0000000E+000	68.1884	0.0000000E+000	0.0000000E+000	0.0000000E+000	-68.1884	0.0000000E+000	0.0000000E+000	0.0000000E+000	-21.8116	0.0000000E+000	0.0000000E+000	0.0000000E+000	21.8116	2.49871	68.1884	1.2871e-05	1.74094e-05	-5.07564e-09	1.74145e-05	0.253789	3697.5	1.07799	3698.57
31621.1	1.557	0.662715	1.69217	-23.0564	3.43254	0.253712	0.0637003	7.59479	1.16488	1	9	0.00503672	0.00297649	0	1.12956e-05	0.000250345	1.66117e-05	35.7479	0.00558095	0.00452948	-0.0032605	-22.895	1.69507	1.56153	0.659454	0.543752	0.231441	0.590958	23.0564	1164.88	2736.8	2974.4	-66.9436	0.0000000E+000	0.0000000E+000	0.0000000E+000	66.9436	0.0000000E+000	0.0000000E+000	0.0000000E+000	-66.9436	0.0000000E+000	0.0000000E+000	0.0000000E+000	-23.0564	0.0000000E+000	0.0000000E+000	0.0000000E+000	23.0564	2.34942	66.9436	8.93177e-06	1.61616e-05	1.5947e-08	1.61456e-05	0.253462	3982.91	3.93004	3978.98
10002.2	2.08115	0.873102	2.25687	-22.7595	4.58155	0.253695	0.0712257	18.2246	2.72756	1	9	0.00498811	0.00221018	0	4.09488e-05	-0.000150279	1.5361e-05	-66.7802	0.00695011	0.00274015	0.00638715	-22.8818	2.26188	2.08389	0.87949	0.40859	0.171416	0.443091	22.7595	2727.56	6501.47	7050.44	-67.2405	0.0000000E+000	0.0000000E+000	0.0000000E+000	67.2405	0.0000000E+000	0.0000000E+000	0.0000000E+000	-67.2405	0.0000000E+000	0.0000000E+000	0.0000000E+000	-22.7595	0.0000000E+000	0.0000000E+000	0.0000000E+000	22.7595	2.38362	67.2405	5.75209e-06	1.80696e-05	-1.07037e-08	1.80803e-05	0.253846	3561.85	2.1099	3563.96
3163.08	2.73854	1.26031	3.01463	-24.7124	5.47967	0.253471	0.0089737	39.924	6.97781	1	9	0.00453327	0.00150376	0	5.26369e-05	0.000269422	9.34139e-06	-22.5789	0.00621203	0.00573589	0.00238515	-24.708	3.02083	2.74428	1.26269	0.301337	0.138679	0.331716	24.7124	6977.81	15162.2	16690.8	-65.2876	0.0000000E+000	0.0000000E+000	0.0000000E+000	65.2876	0.0000000E+000	0.0000000E+000	0.0000000E+000	-65.2876	0.0000000E+000	0.0000000E+000	0.0000000E+000	-24.7124	0.0000000E+000	0.0000000E+000	0.0000000E+000	24.7124	2.17292	65.2876	3.00227e-07	2.27457e-06	2.41771e-09	2.27215e-06	0.253201	28246	30.0235	28216
1000.32	3.65671	1.96938	4.15331	-28.3054	7.2918	0.253627	-0.0146212	80.7888	18.1644	1	10	0.00505115	0.00121617	0	8.24546e-05	-0.000245665	8.25779e-06	-66.9416	0.00678998	0.00265942	0.0062475	-28.3638	4.15862	3.65937	1.97563	0.211983	0.114167	0.240772	28.3054	18164.4	33727.4	38307.7	-61.6946	0.0000000E+000	0.0000000E+000	0.0000000E+000	61.6946	0.0000000E+000	0.0000000E+000	0.0000000E+000	-61.6946	0.0000000E+000	0.0000000E+000	0.0000000E+000	-28.3054	0.0000000E+000	0.0000000E+000	0.0000000E+000	28.3054	1.85678	61.6946	-6.08086e-07	-3.70834e-06	3.59193e-09	-3.71193e-06	0.253873	17346.5	16.802	17363.3
316.316	5.12106	3.54594	6.22889	-34.6996	8.642	0.253632	-0.0147889	141.895	45.9844	1	10	0.00496449	0.00079701	0	7.62893e-05	9.77262e-05	1.04376e-05	-9.53135	0.0130959	0.0129151	0.00216851	-34.6485	6.24074	5.13398	3.54811	0.13199	0.0913926	0.160542	34.6996	45984.4	66410.8	80777.2	-55.3004	0.0000000E+000	0.0000000E+000	0.0000000E+000	55.3004	0.0000000E+000	0.0000000E+000	0.0000000E+000	-55.3004	0.0000000E+000	0.0000000E+000	0.0000000E+000	-34.6996	0.0000000E+000	0.0000000E+000	0.0000000E+000	34.6996	1.4442	55.3004	-2.37805e-06	-3.75095e-06	-1.44527e-09	-3.74951e-06	0.253535	17150.1	6.60806	17143.5
100.032	8.6345	6.124	10.5857	-35.3461	9.98878	0.253642	-0.0146771	259.804	86.9508	1	10	0.00493983	0.00046665	0	7.08838e-05	0.000174035	1.22121e-05	98.6853	0.0261697	-0.00395181	-0.0258696	-35.2441	10.5676	8.63055	6.09813	0.0770538	0.0546503	0.0944666	35.3461	86950.8	122596	150300	-54.6539	0.0000000E+000	0.0000000E+000	0.0000000E+000	54.6539	0.0000000E+000	0.0000000E+000	0.0000000E+000	-54.6539	0.0000000E+000	0.0000000E+000	0.0000000E+000	-35.3461	0.0000000E+000	0.0000000E+000	0.0000000E+000	35.3461	1.40994	54.6539	-1.57568e-06	-3.72274e-06	-2.55434e-09	-3.72018e-06	0.253468	17281.4	11.8576	17269.6
[...]
1.00006	25.8203	2.94895	25.9882	-6.51556	20.04	0.253693	-0.00251293	53966.5	694.879	1	12	0.00493736	0.000189985	0	5.55583e-05	0.000174035	2.01595e-06	111.78	0.0106111	-0.00393722	-0.00985365	-6.49495	25.9831	25.8164	2.9391	0.0382305	0.00436633	0.0384791	6.51556	694879	6.08419e+06	6.12374e+06	-83.4844	0.0000000E+000	0.0000000E+000	0.0000000E+000	83.4844	0.0000000E+000	0.0000000E+000	0.0000000E+000	-83.4844	0.0000000E+000	0.0000000E+000	0.0000000E+000	-6.51556	0.0000000E+000	0.0000000E+000	0.0000000E+000	6.51556	8.75575	83.4844	-6.98579e-06	-6.37513e-07	-4.37338e-10	-6.37076e-07	0.253519	100955	69.2561	100886
0.316193	27.4273	2.51346	27.5423	-5.236	34.3819	0.253693	-0.00337861	200261	1667.79	1	12	0.00493704	0.000179253	0	3.09578e-05	7.86489e-05	2.89032e-06	0.649416	0.0161242	0.0161232	-0.000182755	-5.23256	27.5583	27.4435	2.51328	0.0361563	0.00331339	0.0363078	5.236	1.66779e+06	1.81992e+07	1.82754e+07	-84.764	0.0000000E+000	0.0000000E+000	0.0000000E+000	84.764	0.0000000E+000	0.0000000E+000	0.0000000E+000	-84.764	0.0000000E+000	0.0000000E+000	0.0000000E+000	-5.236	0.0000000E+000	0.0000000E+000	0.0000000E+000	5.236	10.9122	84.764	-4.18154e-06	-8.57132e-07	-2.65724e-10	-8.56866e-07	0.253615	75088	23.2784	75064.7
0.0999041	28.6424	3.40579	28.8442	-6.78104	79.59	0.253683	-0.00184762	467756	6521.36	1	12	0.00493462	0.000171078	0	8.62105e-05	0.000288499	1.38132e-06	-3.65667	0.00807419	0.00805775	0.000514952	-6.78017	28.8523	28.6505	3.40631	0.0344265	0.00409356	0.034669	6.78104	6.52136e+06	5.48441e+07	5.52304e+07	-83.219	0.0000000E+000	0.0000000E+000	0.0000000E+000	83.219	0.0000000E+000	0.0000000E+000	0.0000000E+000	-83.219	0.0000000E+000	0.0000000E+000	0.0000000E+000	-6.78104	0.0000000E+000	0.0000000E+000	0.0000000E+000	6.78104	8.40992	83.219	2.7519e-05	-4.68711e-07	-5.33038e-10	-4.68178e-07	0.253395	137303	156.146	137146
0.0315922	30.5789	7.26334	31.4296	-13.3617	222.474	0.253684	-0.000363318	693592	37042.3	1	12	0.00493535	0.000157028	0	-5.25577e-05	0.000250345	1.20707e-06	48.1387	0.00768698	0.00512975	-0.00572497	-13.3494	31.4333	30.584	7.25762	0.0309558	0.00735288	0.0318171	13.3617	3.70423e+07	1.55949e+08	1.60288e+08	-76.6383	0.0000000E+000	0.0000000E+000	0.0000000E+000	76.6383	0.0000000E+000	0.0000000E+000	0.0000000E+000	-76.6383	0.0000000E+000	0.0000000E+000	0.0000000E+000	-13.3617	0.0000000E+000	0.0000000E+000	0.0000000E+000	13.3617	4.21003	76.6383	-0.000125476	-9.21679e-08	-9.09546e-11	-9.20769e-08	0.253434	698243	689.052	697554
0.0100092	35.76	16.888	39.5472	-25.2795	673.696	0.253676	-0.00200045	941549	171700	1	12	0.00493745	0.000124849	0	-0.000634235	9.77262e-05	2.95601e-06	-7.02116	0.0236766	0.023499	0.00289413	-25.2688	39.5697	35.7835	16.8909	0.0228647	0.0107981	0.0252862	25.2795	1.717e+08	3.6357e+08	4.02074e+08	-64.7205	0.0000000E+000	0.0000000E+000	0.0000000E+000	64.7205	0.0000000E+000	0.0000000E+000	0.0000000E+000	-64.7205	0.0000000E+000	0.0000000E+000	0.0000000E+000	-25.2795	0.0000000E+000	0.0000000E+000	0.0000000E+000	25.2795	2.11747	64.7205	-0.000107461	-5.07468e-07	-1.95497e-10	-5.07272e-07	0.253579	126809	48.852	126761