Folder: EIS/txt (part 54)

File: 17695_R287_UA658_SOC00_C02.mpt
EC-Lab ASCII FILE
Nb header lines : 63

Potentio Electrochemical Impedance Spectroscopy

Run on channel : 2 (SN 66139)
User :
CE vs. WE compliance from -10 V to 10 V
Electrode connection : standard
Potential control : Ewe
Ewe ctrl range : min = -10.00 V, max = 10.00 V
Safety Limits :
	Do not start on E overload
Acquisition started on : 09/22/2025 09:03:30.551
Loaded Setting File :  C:\Users\Celltest\OneDrive - store-dot.com\Documents\EC-Lab\Data\Gyutae\17737_R277_UA674_SOC00_C01.mpr
Saved on :
	File : 17695_R287_UA658_SOC00_C02.mpr
	Directory : C:\Users\Celltest\OneDrive - store-dot.com\Documents\EC-Lab\Data\Charmaine\
	Host : 169.254.61.224
Device : VMP-3e (SN .003165)
Address : USB
EC-LAB for windows v11.62 (software)
Internet server v27.00 (firmware)
Command interpretor v12.03 (firmware)
Electrode material :
Initial state :
Electrolyte :
Comments :
Electrode surface area : 0.001 cm²
Characteristic mass : 0.001 g
Equivalent Weight : 0.000 g/eq.
Density : 0.000 g/cm3
Volume (V) : 0.001 cm³
Cycle Definition : Charge/Discharge alternance
Mode                Single sine
E (V)               0.0000
vs.                 Eoc
tE (h:m:s)          0:00:0.0000
record              0
dI                  0.000
unit dI             mA
dt (s)              0.000
fi                  100.000
unit fi             kHz
ff                  10.000
unit ff             mHz
Nd                  6
Points              per decade
spacing             Logarithmic
Va (mV)             5.0
pw                  0.10
Na                  2
corr                0
E range min (V)     -10.000
E range max (V)     10.000
I Range             Auto
Bandwidth           5
nc cycles           0
goto Ns'            0
nr cycles           0
inc. cycle          0

freq/Hz	Re(Z)/Ohm	-Im(Z)/Ohm	|Z|/Ohm	Phase(Z)/deg	time/s	<Ewe>/V	<I>/mA	Cs/µF	Cp/µF	cycle number	I Range	|Ewe|/V	|I|/A	Ns	(Q-Qo)/mA.h	Re(Y)/Ohm-1	Im(Y)/Ohm-1	|Y|/Ohm-1	Phase(Y)/deg	Re(C)/nF	Im(C)/nF	|C|/nF	Phase(C)/deg	Re(M)	Im(M)	|M|	Phase(M)/deg	Re(Permittivity)	Im(Permittivity)	|Permittivity|	Phase(Permittivity)/deg	Re(Resistivity)/Ohm.cm	Im(Resistivity)/Ohm.cm	|Resistivity|/Ohm.cm	Phase(Resistivity)/deg	Re(Conductivity)/mS/cm	Im(Conductivity)/mS/cm	|Conductivity|/mS/cm	Phase(Conductivity)/deg	Tan(Delta)	Loss Angle(Delta)/deg	dq/mA.h	Pwe/W	Rwe/Ohm
100004	0.755596	0.158735	0.77209	-11.8642	1.8655	0.275615	0.0158691	10.0261	0.423782	1	9	0.00478729	0.00620043	0	-1.48128e-05	1.26752	0.26628	1.29519	11.8642	423.782	2017.24	2061.28	-78.1358	0.0000000E+000	0.0000000E+000	0.0000000E+000	78.1358	0.0000000E+000	0.0000000E+000	0.0000000E+000	-78.1358	0.0000000E+000	0.0000000E+000	0.0000000E+000	-11.8642	0.0000000E+000	0.0000000E+000	0.0000000E+000	11.8642	4.7601	78.1358	-1.48128e-05	4.37378e-06	17368
46420.4	0.837495	0.19982	0.861003	-13.4195	2.74049	0.275598	0.013802	17.1582	0.92415	1	9	0.00536371	0.00622961	0	-1.77789e-05	1.12973	0.269545	1.16144	13.4195	924.15	3873.33	3982.05	-76.5805	0.0000000E+000	0.0000000E+000	0.0000000E+000	76.5805	0.0000000E+000	0.0000000E+000	0.0000000E+000	-76.5805	0.0000000E+000	0.0000000E+000	0.0000000E+000	-13.4195	0.0000000E+000	0.0000000E+000	0.0000000E+000	13.4195	4.19124	76.5805	-1.37561e-05	3.8038e-06	19968
21544.7	0.939893	0.259396	0.975031	-15.4287	3.89749	0.275586	0.0074888	28.4785	2.01561	1	9	0.00498615	0.00511384	0	-3.58226e-06	0.988648	0.272852	1.02561	15.4287	2015.61	7303.35	7576.38	-74.5713	0.0000000E+000	0.0000000E+000	0.0000000E+000	74.5713	0.0000000E+000	0.0000000E+000	0.0000000E+000	-74.5713	0.0000000E+000	0.0000000E+000	0.0000000E+000	-15.4287	0.0000000E+000	0.0000000E+000	0.0000000E+000	15.4287	3.62339	74.5713	7.48583e-07	2.06381e-06	36799.7
10002.2	1.06308	0.336851	1.11517	-17.5815	4.63048	0.275599	0.019482	47.2373	4.31002	1	9	0.00494423	0.00443361	0	-3.45444e-06	0.854837	0.270867	0.896724	17.5815	4310.02	13602.1	14268.6	-72.4185	0.0000000E+000	0.0000000E+000	0.0000000E+000	72.4185	0.0000000E+000	0.0000000E+000	0.0000000E+000	-72.4185	0.0000000E+000	0.0000000E+000	0.0000000E+000	-17.5815	0.0000000E+000	0.0000000E+000	0.0000000E+000	17.5815	3.15593	72.4185	7.75927e-07	5.3692e-06	14146.4
4641.49	1.23069	0.442178	1.30771	-19.763	5.70271	0.275492	-0.0495534	77.5473	8.86614	1	9	0.0049391	0.0037769	0	-3.04199e-05	0.719653	0.258566	0.764694	19.763	8866.15	24676.6	26221.1	-70.237	0.0000000E+000	0.0000000E+000	0.0000000E+000	70.237	0.0000000E+000	0.0000000E+000	0.0000000E+000	-70.237	0.0000000E+000	0.0000000E+000	0.0000000E+000	-19.763	0.0000000E+000	0.0000000E+000	0.0000000E+000	19.763	2.78324	70.237	-1.39237e-05	-1.36516e-05	5559.5
2155.69	1.44185	0.590464	1.55807	-22.27	6.63668	0.27549	-0.0514529	125.038	17.9578	1	9	0.00476007	0.00305511	0	-4.1937e-05	0.593946	0.243231	0.64182	22.27	17957.8	43851.1	47385.7	-67.73	0.0000000E+000	0.0000000E+000	0.0000000E+000	67.73	0.0000000E+000	0.0000000E+000	0.0000000E+000	-67.73	0.0000000E+000	0.0000000E+000	0.0000000E+000	-22.27	0.0000000E+000	0.0000000E+000	0.0000000E+000	22.27	2.44189	67.73	-7.6735e-06	-1.41748e-05	5354.22
1000.32	1.69615	0.817186	1.88274	-25.7243	7.57267	0.275487	-0.05298	194.697	36.6793	1	9	0.00470008	0.0024964	0	-5.37964e-05	0.478501	0.230537	0.531141	25.7243	36679.3	76131.5	84506.6	-64.2757	0.0000000E+000	0.0000000E+000	0.0000000E+000	64.2757	0.0000000E+000	0.0000000E+000	0.0000000E+000	-64.2757	0.0000000E+000	0.0000000E+000	0.0000000E+000	-25.7243	0.0000000E+000	0.0000000E+000	0.0000000E+000	25.7243	2.0756	64.2757	-4.25057e-06	-1.45953e-05	5199.83
463.961	2.06834	1.20031	2.39139	-30.1276	8.50719	0.275496	-0.0499818	285.79	71.9996	1	9	0.00467554	0.00195516	0	-6.54239e-05	0.361676	0.20989	0.418167	30.1276	71999.6	124068	143446	-59.8724	0.0000000E+000	0.0000000E+000	0.0000000E+000	59.8724	0.0000000E+000	0.0000000E+000	0.0000000E+000	-59.8724	0.0000000E+000	0.0000000E+000	0.0000000E+000	-30.1276	0.0000000E+000	0.0000000E+000	0.0000000E+000	30.1276	1.72317	59.8724	-6.0576e-06	-1.37698e-05	5511.94
215.345	2.69626	1.77013	3.22539	-33.2853	9.69445	0.275567	-0.0279966	417.525	125.755	1	10	0.00470162	0.00145769	0	-7.52492e-05	0.259177	0.170153	0.31004	33.2853	125755	191550	229141	-56.7147	0.0000000E+000	0.0000000E+000	0.0000000E+000	56.7147	0.0000000E+000	0.0000000E+000	0.0000000E+000	-56.7147	0.0000000E+000	0.0000000E+000	0.0000000E+000	-33.2853	0.0000000E+000	0.0000000E+000	0.0000000E+000	33.2853	1.5232	56.7147	-2.0682e-06	-7.71493e-06	9842.85
100.032	3.74247	2.44619	4.47101	-33.1699	10.6247	0.275569	-0.0277936	650.415	194.698	1	10	0.00467371	0.00104534	0	-8.35279e-05	0.187218	0.122371	0.223663	33.1699	194698	297871	355857	-56.8301	0.0000000E+000	0.0000000E+000	0.0000000E+000	56.8301	0.0000000E+000	0.0000000E+000	0.0000000E+000	-56.8301	0.0000000E+000	0.0000000E+000	0.0000000E+000	-33.1699	0.0000000E+000	0.0000000E+000	0.0000000E+000	33.1699	1.52991	56.8301	-4.2307e-06	-7.65904e-06	9914.82
46.4415	5.31796	2.94885	6.08083	-29.0087	11.5586	0.275568	-0.0296786	1162.15	273.301	1	10	0.00467389	0.000768628	0	-9.13224e-05	0.14382	0.0797494	0.164451	29.0087	273301	492872	563574	-60.9913	0.0000000E+000	0.0000000E+000	0.0000000E+000	60.9913	0.0000000E+000	0.0000000E+000	0.0000000E+000	-60.9913	0.0000000E+000	0.0000000E+000	0.0000000E+000	-29.0087	0.0000000E+000	0.0000000E+000	0.0000000E+000	29.0087	1.8034	60.9913	-3.97335e-06	-8.17847e-06	9285.09
[...]
1.00006	11.1177	1.32463	11.1963	-6.79457	19.8592	0.275597	-0.00939431	120143	1681.67	1	11	0.00466677	0.000416814	0	-0.000130175	0.088688	0.0105669	0.0893153	6.79457	1.68166e+06	1.41142e+07	1.42141e+07	-83.2054	0.0000000E+000	0.0000000E+000	0.0000000E+000	83.2054	0.0000000E+000	0.0000000E+000	0.0000000E+000	-83.2054	0.0000000E+000	0.0000000E+000	0.0000000E+000	-6.79457	0.0000000E+000	0.0000000E+000	0.0000000E+000	6.79457	8.39301	83.2054	-1.8572e-05	-2.58905e-06	29336.7
0.464091	11.6066	1.25018	11.6738	-6.14777	27.5439	0.275599	-0.00943733	274312	3146.07	1	11	0.00466781	0.000399855	0	-0.00018206	0.0851695	0.00917383	0.0856622	6.14777	3.14607e+06	2.9208e+07	2.93769e+07	-83.8522	0.0000000E+000	0.0000000E+000	0.0000000E+000	83.8522	0.0000000E+000	0.0000000E+000	0.0000000E+000	-83.8522	0.0000000E+000	0.0000000E+000	0.0000000E+000	-6.14777	0.0000000E+000	0.0000000E+000	0.0000000E+000	6.14777	9.28397	83.8522	-2.54482e-05	-2.60092e-06	29203.1
0.215268	12.0564	1.51415	12.1511	-7.15827	44.024	0.275599	-0.00934145	488282	7581.95	1	11	0.00466812	0.000384173	0	-0.000177326	0.0816557	0.0102551	0.0822971	7.15827	7.58195e+06	6.03709e+07	6.08451e+07	-82.8417	0.0000000E+000	0.0000000E+000	0.0000000E+000	82.8417	0.0000000E+000	0.0000000E+000	0.0000000E+000	-82.8417	0.0000000E+000	0.0000000E+000	0.0000000E+000	-7.15827	0.0000000E+000	0.0000000E+000	0.0000000E+000	7.15827	7.96245	82.8417	1.56257e-05	-2.5745e-06	29502.8
0.0999041	12.7131	2.09527	12.8846	-9.35888	79.4296	0.275598	-0.00377048	760319	20106.3	1	11	0.00466632	0.000362161	0	-8.31647e-05	0.0765787	0.0126211	0.0776117	9.35888	2.01063e+07	1.21996e+08	1.23642e+08	-80.6411	0.0000000E+000	0.0000000E+000	0.0000000E+000	80.6411	0.0000000E+000	0.0000000E+000	0.0000000E+000	-80.6411	0.0000000E+000	0.0000000E+000	0.0000000E+000	-9.35888	0.0000000E+000	0.0000000E+000	0.0000000E+000	9.35888	6.06753	80.6411	5.15166e-05	-1.03914e-06	73093.6
0.0464052	13.6691	3.27492	14.056	-13.4733	155.666	0.275592	0.000704313	1.04726e+06	56850.3	1	11	0.00466923	0.000332188	0	-0.000144469	0.0691862	0.016576	0.0711442	13.4733	5.68503e+07	2.37286e+08	2.44002e+08	-76.5267	0.0000000E+000	0.0000000E+000	0.0000000E+000	76.5267	0.0000000E+000	0.0000000E+000	0.0000000E+000	-76.5267	0.0000000E+000	0.0000000E+000	0.0000000E+000	-13.4733	0.0000000E+000	0.0000000E+000	0.0000000E+000	13.4733	4.17388	76.5267	-8.29706e-05	1.94103e-07	391292
0.0215268	14.9469	5.10052	15.7932	-18.8418	319.896	0.275591	-0.00101834	1.44953e+06	151186	1	11	0.00467082	0.000295748	0	-0.000805962	0.0599252	0.020449	0.0633182	18.8418	1.51186e+08	4.43048e+08	4.68133e+08	-71.1582	0.0000000E+000	0.0000000E+000	0.0000000E+000	71.1582	0.0000000E+000	0.0000000E+000	0.0000000E+000	-71.1582	0.0000000E+000	0.0000000E+000	0.0000000E+000	-18.8418	0.0000000E+000	0.0000000E+000	0.0000000E+000	18.8418	2.93047	71.1582	-0.000407619	-2.80646e-07	270627
0.0100092	16.7792	8.67941	18.8911	-27.3513	741.356	0.27559	-0.00195973	1.83203e+06	386721	1	12	0.00466763	0.000247081	0	-0.00126468	0.0470172	0.0243207	0.052935	27.3513	3.86721e+08	7.47617e+08	8.41715e+08	-62.6487	0.0000000E+000	0.0000000E+000	0.0000000E+000	62.6487	0.0000000E+000	0.0000000E+000	0.0000000E+000	-62.6487	0.0000000E+000	0.0000000E+000	0.0000000E+000	-27.3513	0.0000000E+000	0.0000000E+000	0.0000000E+000	27.3513	1.93322	62.6487	-4.04215e-05	-5.40081e-07	140627

File: 17696_R287_UA660_SOC00_C03.mpt
EC-Lab ASCII FILE

Nb header lines : 63

Potentio Electrochemical Impedance Spectroscopy

Run on channel : 3 (SN 65921)
User :
CE vs. WE compliance from -10 V to 10 V
Electrode connection : standard
Potential control : Ewe
Ewe ctrl range : min = -10.00 V, max = 10.00 V
Safety Limits :
	Do not start on E overload
Acquisition started on : 09/22/2025 09:03:57.388
Loaded Setting File :  C:\Users\Celltest\OneDrive - store-dot.com\Documents\EC-Lab\Data\Gyutae\17738_R277_UA674_SOC00_C02.mpr
Saved on :
	File : 17696_R287_UA660_SOC00_C03.mpr
	Directory : C:\Users\Celltest\OneDrive - store-dot.com\Documents\EC-Lab\Data\Charmaine\
	Host : 169.254.61.224
Device : VMP-3e (SN .003165)
Address : USB
EC-LAB for windows v11.62 (software)
Internet server v27.00 (firmware)
Command interpretor v12.03 (firmware)
Electrode material :
Initial state :
Electrolyte :
Comments :
Electrode surface area : 0.001 cm²
Characteristic mass : 0.001 g
Equivalent Weight : 0.000 g/eq.
Density : 0.000 g/cm3
Volume (V) : 0.001 cm³
Cycle Definition : Charge/Discharge alternance
Mode                Single sine
E (V)               0.0000
vs.                 Eoc
tE (h:m:s)          0:00:0.0000
record              0
dI                  0.000
unit dI             mA
dt (s)              0.000
fi                  100.000
unit fi             kHz
ff                  10.000
unit ff             mHz
Nd                  6
Points              per decade
spacing             Logarithmic
Va (mV)             5.0
pw                  0.10
Na                  2
corr                0
E range min (V)     -10.000
E range max (V)     10.000
I Range             Auto
Bandwidth           5
nc cycles           0
goto Ns'            0
nr cycles           0
inc. cycle          0

freq/Hz	Re(Z)/Ohm	-Im(Z)/Ohm	|Z|/Ohm	Phase(Z)/deg	time/s	<Ewe>/V	<I>/mA	Cs/µF	Cp/µF	cycle number	I Range	|Ewe|/V	|I|/A	Ns	(Q-Qo)/mA.h	Re(Y)/Ohm-1	Im(Y)/Ohm-1	|Y|/Ohm-1	Phase(Y)/deg	Re(C)/nF	Im(C)/nF	|C|/nF	Phase(C)/deg	Re(M)	Im(M)	|M|	Phase(M)/deg	Re(Permittivity)	Im(Permittivity)	|Permittivity|	Phase(Permittivity)/deg	Re(Resistivity)/Ohm.cm	Im(Resistivity)/Ohm.cm	|Resistivity|/Ohm.cm	Phase(Resistivity)/deg	Re(Conductivity)/mS/cm	Im(Conductivity)/mS/cm	|Conductivity|/mS/cm	Phase(Conductivity)/deg	Tan(Delta)	Loss Angle(Delta)/deg	dq/mA.h	Pwe/W	Rwe/Ohm
100004	1.2881	0.269096	1.31591	-11.7999	1.86448	0.270932	0.0360751	5.91421	0.247321	1	9	0.00458234	0.00348227	0	1.55005e-06	0.743873	0.155402	0.759932	11.7999	247.321	1183.87	1209.43	-78.2001	0.0000000E+000	0.0000000E+000	0.0000000E+000	78.2001	0.0000000E+000	0.0000000E+000	0.0000000E+000	-78.2001	0.0000000E+000	0.0000000E+000	0.0000000E+000	-11.7999	0.0000000E+000	0.0000000E+000	0.0000000E+000	11.7999	4.78676	78.2001	1.55005e-06	9.77392e-06	7510.23
46420.4	1.41483	0.295207	1.4453	-11.7858	3.0205	0.270943	0.0355344	11.6141	0.484532	1	9	0.00504107	0.00348791	0	3.42251e-05	0.677311	0.141322	0.691898	11.7858	484.532	2322.2	2372.21	-78.2142	0.0000000E+000	0.0000000E+000	0.0000000E+000	78.2142	0.0000000E+000	0.0000000E+000	0.0000000E+000	-78.2142	0.0000000E+000	0.0000000E+000	0.0000000E+000	-11.7858	0.0000000E+000	0.0000000E+000	0.0000000E+000	11.7858	4.79267	78.2142	1.50789e-05	9.62778e-06	7624.81
21544.7	1.54536	0.349547	1.5844	-12.7453	4.03549	0.270917	0.0375669	21.1336	1.02862	1	9	0.00523006	0.00330097	0	4.64741e-05	0.615602	0.139244	0.631153	12.7453	1028.62	4547.57	4662.46	-77.2547	0.0000000E+000	0.0000000E+000	0.0000000E+000	77.2547	0.0000000E+000	0.0000000E+000	0.0000000E+000	-77.2547	0.0000000E+000	0.0000000E+000	0.0000000E+000	-12.7453	0.0000000E+000	0.0000000E+000	0.0000000E+000	12.7453	4.42104	77.2547	1.40472e-06	1.01775e-05	7211.59
10002.2	1.69791	0.43889	1.75372	-14.4931	4.62749	0.270919	0.0388908	36.255	2.27071	1	9	0.0047076	0.00268436	0	5.3551e-05	0.552072	0.142705	0.570218	14.4931	2270.71	8784.55	9073.28	-75.5069	0.0000000E+000	0.0000000E+000	0.0000000E+000	75.5069	0.0000000E+000	0.0000000E+000	0.0000000E+000	-75.5069	0.0000000E+000	0.0000000E+000	0.0000000E+000	-14.4931	0.0000000E+000	0.0000000E+000	0.0000000E+000	14.4931	3.86864	75.5069	5.04703e-06	1.05363e-05	6966.16
4641.49	1.87843	0.608004	1.97438	-17.9355	5.69969	0.270937	0.0709819	56.397	5.34821	1	9	0.0049071	0.00248539	0	6.37644e-05	0.481874	0.155971	0.506488	17.9355	5348.21	16523.3	17367.3	-72.0645	0.0000000E+000	0.0000000E+000	0.0000000E+000	72.0645	0.0000000E+000	0.0000000E+000	0.0000000E+000	-72.0645	0.0000000E+000	0.0000000E+000	0.0000000E+000	-17.9355	0.0000000E+000	0.0000000E+000	0.0000000E+000	17.9355	3.0895	72.0645	1.46602e-05	1.92316e-05	3816.98
2155.69	2.12243	0.900075	2.30539	-22.9807	6.63269	0.270934	0.0664694	82.0267	12.5032	1	9	0.00479393	0.00207944	0	7.98321e-05	0.39934	0.169351	0.433765	22.9807	12503.2	29483.4	32025	-67.0193	0.0000000E+000	0.0000000E+000	0.0000000E+000	67.0193	0.0000000E+000	0.0000000E+000	0.0000000E+000	-67.0193	0.0000000E+000	0.0000000E+000	0.0000000E+000	-22.9807	0.0000000E+000	0.0000000E+000	0.0000000E+000	22.9807	2.35806	67.0193	9.50203e-06	1.80088e-05	4076.07
1000.32	2.48838	1.40617	2.85821	-29.4705	7.56971	0.27093	0.0688748	113.147	27.3862	1	9	0.00474954	0.00166172	0	9.67205e-05	0.3046	0.172128	0.34987	29.4705	27386.2	48463	55665.7	-60.5295	0.0000000E+000	0.0000000E+000	0.0000000E+000	60.5295	0.0000000E+000	0.0000000E+000	0.0000000E+000	-60.5295	0.0000000E+000	0.0000000E+000	0.0000000E+000	-29.4705	0.0000000E+000	0.0000000E+000	0.0000000E+000	29.4705	1.76962	60.5295	6.94104e-06	1.86603e-05	3933.66
463.961	3.09019	2.26312	3.83027	-36.2175	8.75819	0.270896	-0.0141424	151.576	52.9161	1	10	0.00478728	0.00124985	0	9.87351e-05	0.210633	0.154258	0.261078	36.2175	52916.1	72254.4	89559	-53.7825	0.0000000E+000	0.0000000E+000	0.0000000E+000	53.7825	0.0000000E+000	0.0000000E+000	0.0000000E+000	-53.7825	0.0000000E+000	0.0000000E+000	0.0000000E+000	-36.2175	0.0000000E+000	0.0000000E+000	0.0000000E+000	36.2175	1.36545	53.7825	-1.63331e-06	-3.83111e-06	19154.9
215.345	4.2085	3.59345	5.53393	-40.4925	9.69246	0.270917	-0.0130293	205.672	86.7222	1	10	0.00473957	0.000856457	0	9.42557e-05	0.137423	0.11734	0.180703	40.4925	86722.2	101566	133553	-49.5075	0.0000000E+000	0.0000000E+000	0.0000000E+000	49.5075	0.0000000E+000	0.0000000E+000	0.0000000E+000	-49.5075	0.0000000E+000	0.0000000E+000	0.0000000E+000	-40.4925	0.0000000E+000	0.0000000E+000	0.0000000E+000	40.4925	1.17116	49.5075	-2.2033e-06	-3.52987e-06	20792.8
100.032	6.20326	5.35534	8.19513	-40.8044	10.6237	0.270903	-0.0131804	297.094	126.869	1	10	0.00472001	0.000575953	0	9.20378e-05	0.0923652	0.0797398	0.122024	40.8044	126869	146957	194145	-49.1956	0.0000000E+000	0.0000000E+000	0.0000000E+000	49.1956	0.0000000E+000	0.0000000E+000	0.0000000E+000	-49.1956	0.0000000E+000	0.0000000E+000	0.0000000E+000	-40.8044	0.0000000E+000	0.0000000E+000	0.0000000E+000	40.8044	1.15833	49.1956	-9.77949e-07	-3.5706e-06	20553.5
46.4415	9.51092	7.21684	11.939	-37.191	11.5576	0.2709	-0.0152089	474.861	173.509	1	10	0.00471841	0.000395209	0	8.92886e-05	0.0667244	0.0506302	0.0837589	37.191	173509	228664	287041	-52.809	0.0000000E+000	0.0000000E+000	0.0000000E+000	52.809	0.0000000E+000	0.0000000E+000	0.0000000E+000	-52.809	0.0000000E+000	0.0000000E+000	0.0000000E+000	-37.191	0.0000000E+000	0.0000000E+000	0.0000000E+000	37.191	1.31788	52.809	-1.61725e-06	-4.12008e-06	17811.9
[...]
0.464091	30.5502	4.33228	30.8558	-8.07122	28.5639	0.270943	-0.00721613	79159.1	1560.49	1	12	0.00471904	0.000152938	0	6.02854e-05	0.0320878	0.00455033	0.0324088	8.07122	1.56049e+06	1.10042e+07	1.11143e+07	-81.9288	0.0000000E+000	0.0000000E+000	0.0000000E+000	81.9288	0.0000000E+000	0.0000000E+000	0.0000000E+000	-81.9288	0.0000000E+000	0.0000000E+000	0.0000000E+000	-8.07122	0.0000000E+000	0.0000000E+000	0.0000000E+000	8.07122	7.05175	81.9288	-5.30801e-06	-1.95516e-06	37546.9
0.215268	32.2115	3.97869	32.4563	-7.04137	45.0438	0.270929	-0.00584026	185824	2792.44	1	12	0.00471505	0.000145274	0	1.00247e-05	0.0305783	0.00377696	0.0308107	7.04137	2.79244e+06	2.26076e+07	2.27794e+07	-82.9586	0.0000000E+000	0.0000000E+000	0.0000000E+000	82.9586	0.0000000E+000	0.0000000E+000	0.0000000E+000	-82.9586	0.0000000E+000	0.0000000E+000	0.0000000E+000	-7.04137	0.0000000E+000	0.0000000E+000	0.0000000E+000	7.04137	8.09601	82.9586	-3.31125e-05	-1.58229e-06	46389.8
0.0999041	33.7692	4.20457	34.03	-7.0973	80.4492	0.270932	-0.00499686	378892	5784.09	1	12	0.00471337	0.000138507	0	-9.71574e-05	0.0291607	0.00363076	0.0293859	7.0973	5.78409e+06	4.64552e+07	4.68139e+07	-82.9027	0.0000000E+000	0.0000000E+000	0.0000000E+000	82.9027	0.0000000E+000	0.0000000E+000	0.0000000E+000	-82.9027	0.0000000E+000	0.0000000E+000	0.0000000E+000	-7.0973	0.0000000E+000	0.0000000E+000	0.0000000E+000	7.0973	8.03156	82.9027	-5.80156e-05	-1.35381e-06	54220.4
0.0464052	35.4017	5.62761	35.8462	-9.03241	156.685	0.270934	-0.00433264	609438	15020.7	1	12	0.00471756	0.000131606	0	-0.000168118	0.027551	0.00437963	0.0278969	9.03241	1.50207e+07	9.44911e+07	9.56776e+07	-80.9676	0.0000000E+000	0.0000000E+000	0.0000000E+000	80.9676	0.0000000E+000	0.0000000E+000	0.0000000E+000	-80.9676	0.0000000E+000	0.0000000E+000	0.0000000E+000	-9.03241	0.0000000E+000	0.0000000E+000	0.0000000E+000	9.03241	6.29072	80.9676	-1.95155e-05	-1.17386e-06	62533.2
0.0215268	37.5054	8.09138	38.3683	-12.1743	320.915	0.270935	-0.00205025	913731	40636.7	1	12	0.00471505	0.000122889	0	-3.4408e-05	0.025477	0.00549639	0.0260632	12.1743	4.06367e+07	1.88361e+08	1.92694e+08	-77.8257	0.0000000E+000	0.0000000E+000	0.0000000E+000	77.8257	0.0000000E+000	0.0000000E+000	0.0000000E+000	-77.8257	0.0000000E+000	0.0000000E+000	0.0000000E+000	-12.1743	0.0000000E+000	0.0000000E+000	0.0000000E+000	12.1743	4.63523	77.8257	9.40142e-05	-5.55484e-07	132147
0.0146812	39.1768	10.0875	40.4547	-14.4392	464.109	0.270932	-0.000979631	1.07467e+06	66819.7	1	12	0.00471647	0.000116587	0	5.35816e-05	0.0239382	0.00616375	0.024719	14.4392	6.68197e+07	2.59508e+08	2.67973e+08	-75.5608	0.0000000E+000	0.0000000E+000	0.0000000E+000	75.5608	0.0000000E+000	0.0000000E+000	0.0000000E+000	-75.5608	0.0000000E+000	0.0000000E+000	0.0000000E+000	-14.4392	0.0000000E+000	0.0000000E+000	0.0000000E+000	14.4392	3.88371	75.5608	8.79896e-05	-2.65413e-07	276565

0.0100092	40.991	12.8305	42.9521	-17.3805	674.129	0.270934	-0.000326332	1.23931e+06	110585	1	12	0.00471284	0.000109723	0	1.63234e-05	0.0222187	0.00695463	0.0232817	17.3805	1.10585e+08	3.53298e+08	3.70201e+08	-72.6195	0.0000000E+000	0.0000000E+000	0.0000000E+000	72.6195	0.0000000E+000	0.0000000E+000	0.0000000E+000	-72.6195	0.0000000E+000	0.0000000E+000	0.0000000E+000	-17.3805	0.0000000E+000	0.0000000E+000	0.0000000E+000	17.3805	3.19481	72.6195	-3.72582e-05	-8.84143e-08	830242