Folder: EIS/txt (part 49)

File: 17613_R291_UC85_SOC50_C08.mpt
EC-Lab ASCII FILE
Nb header lines : 64

Potentio Electrochemical Impedance Spectroscopy

Run on channel : 8 (SN 65398)
User :
CE vs. WE compliance from -10 V to 10 V
Electrode connection : standard
Potential control : Ewe
Ewe ctrl range : min = -10.00 V, max = 10.00 V
Safety Limits :
	Do not start on E overload
Acquisition started on : 09/17/2025 17:35:06.760
Loaded Setting File :  C:\Users\Celltest\OneDrive - store-dot.com\Documents\EC-Lab\Data\Michael\R290\17544_R290_UC82_50SOC.mps
Saved on :
	File : 17613_R291_UC85_SOC50_C08.mpr
	Directory : C:\Users\Celltest\OneDrive - store-dot.com\Documents\EC-Lab\Data\Gyutae\
	Host : 169.254.61.224
Device : VMP-3e (SN .003165)
Address : USB
EC-LAB for windows v11.62 (software)
Internet server v27.00 (firmware)
Command interpretor v12.03 (firmware)
Electrode material :
Initial state :
Electrolyte :
Comments :
Electrode surface area : 0.001 cm²
Characteristic mass : 0.001 g
Equivalent Weight : 0.000 g/eq.
Density : 0.000 g/cm3
Volume (V) : 0.001 cm³
Record Ece
Cycle Definition : Charge/Discharge alternance
Mode                Multi sine
E (V)               0.0000
vs.                 Eoc
tE (h:m:s)          0:00:0.0000
record              0
dI                  0.000
unit dI             mA
dt (s)              0.000
fi                  1.000
unit fi             MHz
ff                  0.100
unit ff             mHz
Nd                  10
Points              per decade
spacing             Logarithmic
Va (mV)             5.0
pw                  0.10
Na                  2
corr                0
E range min (V)     -10.000
E range max (V)     10.000
I Range             Auto
Bandwidth           5
nc cycles           0
goto Ns'            0
nr cycles           0
inc. cycle          0

freq/Hz	Re(Z)/Ohm	-Im(Z)/Ohm	|Z|/Ohm	Phase(Z)/deg	time/s	<Ewe>/V	<I>/mA	Cs/µF	Cp/µF	cycle number	I Range	|Ewe|/V	|I|/A	Ns	(Q-Qo)/mA.h	<Ece>/V	|Ece|/V	Phase(Zce)/deg	|Zce|/Ohm	Re(Zce)/Ohm	-Im(Zce)/Ohm	Phase(Zwe-ce)/deg	|Zwe-ce|/Ohm	Re(Zwe-ce)/Ohm	-Im(Zwe-ce)/Ohm	Re(Y)/Ohm-1	Im(Y)/Ohm-1	|Y|/Ohm-1	Phase(Y)/deg	Re(C)/nF	Im(C)/nF	|C|/nF	Phase(C)/deg	Re(M)	Im(M)	|M|	Phase(M)/deg	Re(Permittivity)	Im(Permittivity)	|Permittivity|	Phase(Permittivity)/deg	Re(Resistivity)/Ohm.cm	Im(Resistivity)/Ohm.cm	|Resistivity|/Ohm.cm	Phase(Resistivity)/deg	Re(Conductivity)/mS/cm	Im(Conductivity)/mS/cm	|Conductivity|/mS/cm	Phase(Conductivity)/deg	Tan(Delta)	Loss Angle(Delta)/deg	dq/mA.h	Pwe/W	Pce/W	Pwe-ce/W	<Ewe-Ece>/V	Rwe/Ohm	Rce/Ohm	Rwe-ce/Ohm		Ewe-Ece/V
1.00002e+06	2.49958	2.7224	3.69586	-47.4433	1.77353	3.78386	-0.0619707	0.0584602	0.03172	1	10	0.000249128	6.74074e-05	0	-3.51429e-05	8.26613e-05	0.00019466	-66.5912	2.88782	1.1473	2.65013	-55.8313	6.49336	3.64688	5.37253	0.182994	0.199306	0.270573	47.4433	31.72	29.1239	43.0623	-42.5567	0.0000000E+000	0.0000000E+000	0.0000000E+000	42.5567	0.0000000E+000	0.0000000E+000	0.0000000E+000	-42.5567	0.0000000E+000	0.0000000E+000	0.0000000E+000	-47.4433	0.0000000E+000	0.0000000E+000	0.0000000E+000	47.4433	0.918154	42.5567	-3.51429e-05	-0.000234489	-5.12258e-09	-0.000234483	3.78378	61059	1.33388	61057.6
251206	1.45926	0.310657	1.49196	-12.018	4.47756	3.78343	-0.0818425	2.03943	0.0884205	1	9	0.00405097	0.00271519	0	-9.08409e-05	-8.91312e-05	7.42302e-05	101.903	0.0273388	-0.00563881	-0.026751	-11.0512	1.48109	1.45363	0.283906	0.655566	0.139561	0.670257	12.018	88.4206	415.343	424.65	-77.9819	0.0000000E+000	0.0000000E+000	0.0000000E+000	77.9819	0.0000000E+000	0.0000000E+000	0.0000000E+000	-77.9819	0.0000000E+000	0.0000000E+000	0.0000000E+000	-12.018	0.0000000E+000	0.0000000E+000	0.0000000E+000	12.018	4.69735	77.9819	-5.85126e-06	-0.000309646	7.29472e-09	-0.000309653	3.78352	46228.2	1.08906	46229.3
63093.8	1.94945	0.481529	2.00804	-13.8748	6.77756	3.78341	-0.0492533	5.23855	0.301239	1	9	0.00540231	0.00269034	0	-0.000123276	-1.2779e-05	3.18561e-05	82.3542	0.0118409	0.00157542	-0.0117357	-13.5387	2.00679	1.95102	0.469793	0.483468	0.11942	0.497998	13.8748	301.239	1219.55	1256.21	-76.1252	0.0000000E+000	0.0000000E+000	0.0000000E+000	76.1252	0.0000000E+000	0.0000000E+000	0.0000000E+000	-76.1252	0.0000000E+000	0.0000000E+000	0.0000000E+000	-13.8748	0.0000000E+000	0.0000000E+000	0.0000000E+000	13.8748	4.04846	76.1252	-3.07871e-06	-0.000186346	6.29406e-10	-0.000186346	3.78343	76815.4	0.259454	76815.6
15847.7	2.35485	0.520494	2.41169	-12.4637	8.95755	3.78342	-0.0441195	19.2947	0.898728	1	9	0.00504594	0.00209229	0	-0.00015107	-0.000280012	7.42996e-05	28.4978	0.0355112	0.0312085	-0.0169433	-11.9168	2.43861	2.38606	0.50355	0.404876	0.0894899	0.414648	12.4637	898.729	4066.08	4164.22	-77.5363	0.0000000E+000	0.0000000E+000	0.0000000E+000	77.5363	0.0000000E+000	0.0000000E+000	0.0000000E+000	-77.5363	0.0000000E+000	0.0000000E+000	0.0000000E+000	-12.4637	0.0000000E+000	0.0000000E+000	0.0000000E+000	12.4637	4.52426	77.5363	-4.13549e-06	-0.000166922	1.2354e-08	-0.000166935	3.7837	85754	6.34667	85760.3
3983.6	2.82282	0.764213	2.92444	-15.1484	10.6821	3.78311	-0.12403	52.2793	3.57005	1	9	0.00469655	0.00160597	0	-0.000178754	6.35733e-05	4.14925e-06	-55.3593	0.00258365	0.00146862	0.00212565	-15.181	2.92641	2.82429	0.766339	0.330064	0.0893573	0.341946	15.1484	3570.05	13186.9	13661.6	-74.8516	0.0000000E+000	0.0000000E+000	0.0000000E+000	74.8516	0.0000000E+000	0.0000000E+000	0.0000000E+000	-74.8516	0.0000000E+000	0.0000000E+000	0.0000000E+000	-15.1484	0.0000000E+000	0.0000000E+000	0.0000000E+000	15.1484	3.69376	74.8516	-8.9632e-06	-0.000469219	-7.88498e-09	-0.000469211	3.78305	30501.6	0.512564	30501.1
1000.32	3.63099	1.22627	3.83247	-18.661	13.5559	3.78336	-0.0692469	129.746	13.2834	1	10	0.00468583	0.00122266	0	-0.00020058	-1.2779e-05	8.6545e-06	-39.0859	0.0070784	0.00549427	0.00446282	-18.6979	3.83911	3.63649	1.23073	0.247211	0.0834886	0.260928	18.661	13283.4	39332.2	41514.7	-71.339	0.0000000E+000	0.0000000E+000	0.0000000E+000	71.339	0.0000000E+000	0.0000000E+000	0.0000000E+000	-71.339	0.0000000E+000	0.0000000E+000	0.0000000E+000	-18.661	0.0000000E+000	0.0000000E+000	0.0000000E+000	18.661	2.96101	71.339	-7.48138e-06	-0.000261986	8.84903e-10	-0.000261987	3.78338	54635.9	0.184542	54636.1
251.044	5.1502	1.55557	5.37999	-16.8065	16.257	3.78336	-0.0672604	407.549	34.0719	1	10	0.00462446	0.000859566	0	-0.000250799	0.000407158	1.11678e-05	-21.5473	0.0129924	0.0120844	0.0047717	-16.8179	5.39294	5.16228	1.56034	0.177934	0.0537436	0.185874	16.8065	34071.9	112805	117839	-73.1935	0.0000000E+000	0.0000000E+000	0.0000000E+000	73.1935	0.0000000E+000	0.0000000E+000	0.0000000E+000	-73.1935	0.0000000E+000	0.0000000E+000	0.0000000E+000	-16.8065	0.0000000E+000	0.0000000E+000	0.0000000E+000	16.8065	3.3108	73.1935	-7.58338e-06	-0.00025447	-2.73856e-08	-0.000254443	3.78295	56249.4	6.05346	56243.3
63.0823	6.50011	0.96524	6.57139	-8.44646	18.9779	3.7834	-0.0605087	2613.83	56.394	1	10	0.00460573	0.000700876	0	-0.000297149	-5.09551e-05	6.28675e-06	34.058	0.00896986	0.00743127	-0.0050234	-8.39367	6.57801	6.50755	0.960216	0.150524	0.0223522	0.152175	8.44646	56394	379769	383933	-81.5535	0.0000000E+000	0.0000000E+000	0.0000000E+000	81.5535	0.0000000E+000	0.0000000E+000	0.0000000E+000	-81.5535	0.0000000E+000	0.0000000E+000	0.0000000E+000	-8.44646	0.0000000E+000	0.0000000E+000	0.0000000E+000	8.44646	6.7342	81.5535	-7.98493e-06	-0.000228928	3.08322e-09	-0.000228931	3.78345	62526.5	0.842112	62527.3
[...]
0.0602816	8.30088	1.52815	8.44037	-10.4311	239.736	3.7834	-0.0299262	1.7277e+06	56634.1	1	11	0.00521798	0.000618217	0	-0.00504052	0.000178102	9.72522e-07	-20.2145	0.00157311	0.00147621	0.000543566	-10.4329	8.44192	8.30236	1.5287	0.11652	0.0214508	0.118478	10.4311	5.66341e+07	3.07635e+08	3.12805e+08	-79.5689	0.0000000E+000	0.0000000E+000	0.0000000E+000	79.5689	0.0000000E+000	0.0000000E+000	0.0000000E+000	-79.5689	0.0000000E+000	0.0000000E+000	0.0000000E+000	-10.4311	0.0000000E+000	0.0000000E+000	0.0000000E+000	10.4311	5.43198	79.5689	0.000000000000000E+000	-0.000113223	-5.32991e-09	-0.000113218	3.78322	126424	5.95135	126418
0.00796479	12.885	4.02427	13.4988	-17.3448	20328.7	3.7834	0.000736236	4.96545e+06	441309	1	11	0.00521167	0.000386084	0	-0.0162041	-0.000165483	4.89072e-07	-58.1717	0.00126675	0.000668052	0.00107627	-17.3483	13.4998	12.8857	4.02535	0.0707121	0.022085	0.0740807	17.3448	4.41309e+08	1.41299e+09	1.4803e+09	-72.6552	0.0000000E+000	0.0000000E+000	0.0000000E+000	72.6552	0.0000000E+000	0.0000000E+000	0.0000000E+000	-72.6552	0.0000000E+000	0.0000000E+000	0.0000000E+000	-17.3448	0.0000000E+000	0.0000000E+000	0.0000000E+000	17.3448	3.20182	72.6552	-0.0111635	2.78548e-06	-1.21835e-10	2.7856e-06	3.78357	5.13884e+06	224.769	5.13907e+06
0.0019912	16.842	5.59583	17.7473	-18.3793	20328.7	3.7834	0.000736236	1.42837e+07	1.42006e+06	1	11	0.00522657	0.0002945	0	-0.0162041	-0.000165483	1.4676e-06	-82.5408	0.00498337	0.000646945	0.0049412	-18.3938	17.7495	16.8427	5.60077	0.0534724	0.0177664	0.0563466	18.3793	1.42006e+09	4.27401e+09	4.50374e+09	-71.6207	0.0000000E+000	0.0000000E+000	0.0000000E+000	71.6207	0.0000000E+000	0.0000000E+000	0.0000000E+000	-71.6207	0.0000000E+000	0.0000000E+000	0.0000000E+000	-18.3793	0.0000000E+000	0.0000000E+000	0.0000000E+000	18.3793	3.00974	71.6207	0.000000000000000E+000	2.78548e-06	-1.21835e-10	2.7856e-06	3.78357	5.13884e+06	224.769	5.13907e+06
0.000497799	19.7812	8.65139	21.5903	-23.6224	20328.7	3.7834	0.000736236	3.69556e+07	5.93382e+06	1	11	0.00522716	0.000242107	0	-0.0162041	-0.000165483	2.61485e-06	-80.1225	0.0108004	0.00185272	0.0106403	-23.6463	21.5963	19.783	8.66203	0.042436	0.0185596	0.0463171	23.6224	5.93382e+09	1.35675e+10	1.48084e+10	-66.3776	0.0000000E+000	0.0000000E+000	0.0000000E+000	66.3776	0.0000000E+000	0.0000000E+000	0.0000000E+000	-66.3776	0.0000000E+000	0.0000000E+000	0.0000000E+000	-23.6224	0.0000000E+000	0.0000000E+000	0.0000000E+000	23.6224	2.28647	66.3776	0.000000000000000E+000	2.78548e-06	-1.21835e-10	2.7856e-06	3.78357	5.13884e+06	224.769	5.13907e+06
9.95598e-05	24.1194	35.2736	42.7314	-55.6364	20328.7	3.7834	0.000736236	4.53196e+07	3.0881e+07	1	11	0.00522237	0.000122214	0	-0.0162041	-0.000165483	4.53569e-06	4.94698	0.0371127	0.0369744	-0.00320037	-55.5931	42.7496	24.1564	35.2704	0.0132091	0.0193177	0.023402	55.6364	3.0881e+10	2.11159e+10	3.74101e+10	-34.3636	0.0000000E+000	0.0000000E+000	0.0000000E+000	34.3636	0.0000000E+000	0.0000000E+000	0.0000000E+000	-34.3636	0.0000000E+000	0.0000000E+000	0.0000000E+000	-55.6364	0.0000000E+000	0.0000000E+000	0.0000000E+000	55.6364	0.683782	34.3636	0.000000000000000E+000	2.78548e-06	-1.21835e-10	2.7856e-06	3.78357	5.13884e+06	224.769	5.13907e+06

File: 17686_R288_UA670_SOC00_C01.mpt
EC-Lab ASCII FILE

Nb header lines : 63

Potentio Electrochemical Impedance Spectroscopy

Run on channel : 1 (SN 66354)
User :
CE vs. WE compliance from -10 V to 10 V
Electrode connection : standard
Potential control : Ewe
Ewe ctrl range : min = -10.00 V, max = 10.00 V
Safety Limits :
	Do not start on E overload
Acquisition started on : 09/22/2025 08:43:30.064
Loaded Setting File :  C:\Users\Celltest\OneDrive - store-dot.com\Documents\EC-Lab\Data\txt_done\14380_R229_UA592_SOC00_C01.mpr
Saved on :
	File : 17686_R288_UA670_SOC00_C01.mpr
	Directory : C:\Users\Celltest\OneDrive - store-dot.com\Documents\EC-Lab\Data\Charmaine\
	Host : 169.254.61.224
Device : VMP-3e (SN .003165)
Address : USB
EC-LAB for windows v11.62 (software)
Internet server v27.00 (firmware)
Command interpretor v12.03 (firmware)
Electrode material :
Initial state :
Electrolyte :
Comments :
Electrode surface area : 0.001 cm²
Characteristic mass : 0.001 g
Equivalent Weight : 0.000 g/eq.
Density : 0.000 g/cm3
Volume (V) : 0.001 cm³
Cycle Definition : Charge/Discharge alternance
Mode                Single sine
E (V)               0.0000
vs.                 Eoc
tE (h:m:s)          0:00:0.0000
record              0
dI                  0.000
unit dI             mA
dt (s)              0.000
fi                  100.000
unit fi             kHz
ff                  10.000
unit ff             mHz
Nd                  6
Points              per decade
spacing             Logarithmic
Va (mV)             5.0
pw                  0.10
Na                  2
corr                0
E range min (V)     -10.000
E range max (V)     10.000
I Range             Auto
Bandwidth           5
nc cycles           0
goto Ns'            0
nr cycles           0
inc. cycle          0

freq/Hz	Re(Z)/Ohm	-Im(Z)/Ohm	|Z|/Ohm	Phase(Z)/deg	time/s	<Ewe>/V	<I>/mA	Cs/µF	Cp/µF	cycle number	I Range	|Ewe|/V	|I|/A	Ns	(Q-Qo)/mA.h	Re(Y)/Ohm-1	Im(Y)/Ohm-1	|Y|/Ohm-1	Phase(Y)/deg	Re(C)/nF	Im(C)/nF	|C|/nF	Phase(C)/deg	Re(M)	Im(M)	|M|	Phase(M)/deg	Re(Permittivity)	Im(Permittivity)	|Permittivity|	Phase(Permittivity)/deg	Re(Resistivity)/Ohm.cm	Im(Resistivity)/Ohm.cm	|Resistivity|/Ohm.cm	Phase(Resistivity)/deg	Re(Conductivity)/mS/cm	Im(Conductivity)/mS/cm	|Conductivity|/mS/cm	Phase(Conductivity)/deg	Tan(Delta)	Loss Angle(Delta)/deg	dq/mA.h	Pwe/W	Rwe/Ohm
100004	1.01954	0.182655	1.03577	-10.1571	2.06749	0.268874	0.0677239	8.71309	0.270962	1	9	0.00464679	0.00448631	0	6.97729e-06	0.950334	0.170257	0.965465	10.1571	270.962	1512.45	1536.53	-79.8429	0.0000000E+000	0.0000000E+000	0.0000000E+000	79.8429	0.0000000E+000	0.0000000E+000	0.0000000E+000	-79.8429	0.0000000E+000	0.0000000E+000	0.0000000E+000	-10.1571	0.0000000E+000	0.0000000E+000	0.0000000E+000	10.1571	5.58177	79.8429	6.97729e-06	1.82092e-05	3970.16
46420.4	1.10749	0.225698	1.13025	-11.5187	3.0835	0.268867	0.0688229	15.1909	0.605741	1	9	0.00502246	0.00444365	0	3.29916e-05	0.866937	0.176675	0.884757	11.5187	605.741	2972.35	3033.44	-78.4813	0.0000000E+000	0.0000000E+000	0.0000000E+000	78.4813	0.0000000E+000	0.0000000E+000	0.0000000E+000	-78.4813	0.0000000E+000	0.0000000E+000	0.0000000E+000	-11.5187	0.0000000E+000	0.0000000E+000	0.0000000E+000	11.5187	4.90696	78.4813	9.94371e-06	1.85042e-05	3906.66
21544.7	1.21732	0.2945	1.25243	-13.6	3.95848	0.268863	0.0635514	25.0839	1.38694	1	9	0.00540856	0.00431844	0	4.37587e-05	0.776058	0.187748	0.798446	13.6	1386.94	5732.9	5898.28	-76.4	0.0000000E+000	0.0000000E+000	0.0000000E+000	76.4	0.0000000E+000	0.0000000E+000	0.0000000E+000	-76.4	0.0000000E+000	0.0000000E+000	0.0000000E+000	-13.6	0.0000000E+000	0.0000000E+000	0.0000000E+000	13.6	4.1335	76.4	2.80855e-06	1.70866e-05	4230.65
10002.2	1.35985	0.383283	1.41283	-15.7408	4.83348	0.268866	0.0628435	41.5149	3.05534	1	9	0.00515085	0.00364576	0	5.9225e-05	0.681254	0.192016	0.707797	15.7408	3055.34	10840.1	11262.4	-74.2592	0.0000000E+000	0.0000000E+000	0.0000000E+000	74.2592	0.0000000E+000	0.0000000E+000	0.0000000E+000	-74.2592	0.0000000E+000	0.0000000E+000	0.0000000E+000	-15.7408	0.0000000E+000	0.0000000E+000	0.0000000E+000	15.7408	3.54791	74.2592	9.43405e-06	1.68965e-05	4278.34
4641.49	1.54761	0.500851	1.62664	-17.9331	5.68267	0.268842	0.0544799	68.4628	6.49069	1	9	0.00534549	0.00328623	0	6.55619e-05	0.584898	0.18929	0.614766	17.9331	6490.69	20056	21080.1	-72.0669	0.0000000E+000	0.0000000E+000	0.0000000E+000	72.0669	0.0000000E+000	0.0000000E+000	0.0000000E+000	-72.0669	0.0000000E+000	0.0000000E+000	0.0000000E+000	-17.9331	0.0000000E+000	0.0000000E+000	0.0000000E+000	17.9331	3.08996	72.0669	4.17299e-06	1.46465e-05	4934.7
2155.69	1.78379	0.666917	1.90439	-20.4996	6.6167	0.268835	0.053027	110.704	13.5767	1	9	0.00522067	0.00274139	0	7.78854e-05	0.491851	0.183891	0.525103	20.4996	13576.7	36313.4	38768.5	-69.5004	0.0000000E+000	0.0000000E+000	0.0000000E+000	69.5004	0.0000000E+000	0.0000000E+000	0.0000000E+000	-69.5004	0.0000000E+000	0.0000000E+000	0.0000000E+000	-20.4996	0.0000000E+000	0.0000000E+000	0.0000000E+000	20.4996	2.67468	69.5004	6.6544e-06	1.42555e-05	5069.77
1000.32	2.08334	0.918951	2.27701	-23.802	7.55271	0.268833	0.0527848	173.136	28.1996	1	9	0.00513564	0.00225543	0	9.0976e-05	0.401818	0.17724	0.439172	23.802	28199.6	63930.9	69874	-66.198	0.0000000E+000	0.0000000E+000	0.0000000E+000	66.198	0.0000000E+000	0.0000000E+000	0.0000000E+000	-66.198	0.0000000E+000	0.0000000E+000	0.0000000E+000	-23.802	0.0000000E+000	0.0000000E+000	0.0000000E+000	23.802	2.26709	66.198	8.43372e-06	1.41903e-05	5093
463.961	2.50112	1.33928	2.83713	-28.1678	8.48722	0.26883	0.0571063	256.134	57.076	1	9	0.00509314	0.00179518	0	0.000105093	0.310726	0.166385	0.352469	28.1678	57076	106590	120909	-61.8322	0.0000000E+000	0.0000000E+000	0.0000000E+000	61.8322	0.0000000E+000	0.0000000E+000	0.0000000E+000	-61.8322	0.0000000E+000	0.0000000E+000	0.0000000E+000	-28.1678	0.0000000E+000	0.0000000E+000	0.0000000E+000	28.1678	1.86751	61.8322	7.21e-06	1.53519e-05	4707.54
215.345	3.20167	1.97066	3.75955	-31.6127	9.67446	0.268857	-0.00916497	375.038	103.045	1	10	0.0050949	0.00135519	0	0.000107577	0.22652	0.139425	0.26599	31.6127	103045	167414	196585	-58.3873	0.0000000E+000	0.0000000E+000	0.0000000E+000	58.3873	0.0000000E+000	0.0000000E+000	0.0000000E+000	-58.3873	0.0000000E+000	0.0000000E+000	0.0000000E+000	-31.6127	0.0000000E+000	0.0000000E+000	0.0000000E+000	31.6127	1.62467	58.3873	7.25741e-08	-2.46406e-06	29335.2
100.032	4.3627	2.75627	5.16045	-32.2839	10.6057	0.268849	-0.00927865	577.244	164.675	1	10	0.00507604	0.000983644	0	0.000103769	0.163825	0.103502	0.193782	32.2839	164675	260653	308314	-57.7161	0.0000000E+000	0.0000000E+000	0.0000000E+000	57.7161	0.0000000E+000	0.0000000E+000	0.0000000E+000	-57.7161	0.0000000E+000	0.0000000E+000	0.0000000E+000	-32.2839	0.0000000E+000	0.0000000E+000	0.0000000E+000	32.2839	1.58283	57.7161	-2.04982e-06	-2.49455e-06	28975
46.4415	6.16719	3.31542	7.00187	-28.2621	11.5395	0.268849	-0.0121875	1033.65	231.752	1	10	0.00505882	0.000722495	0	0.00010059	0.125794	0.0676255	0.142819	28.2621	231752	431094	489440	-61.7379	0.0000000E+000	0.0000000E+000	0.0000000E+000	61.7379	0.0000000E+000	0.0000000E+000	0.0000000E+000	-61.7379	0.0000000E+000	0.0000000E+000	0.0000000E+000	-28.2621	0.0000000E+000	0.0000000E+000	0.0000000E+000	28.2621	1.86015	61.7379	-1.72024e-06	-3.27661e-06	22059.3
[...]
0.464091	12.5774	1.25964	12.6403	-5.71917	27.4588	0.268903	-0.00190275	272252	2703.63	1	11	0.00506545	0.000400737	0	7.73445e-05	0.0787181	0.00788371	0.0791119	5.71917	2.70363e+06	2.69955e+07	2.71306e+07	-84.2808	0.0000000E+000	0.0000000E+000	0.0000000E+000	84.2808	0.0000000E+000	0.0000000E+000	0.0000000E+000	-84.2808	0.0000000E+000	0.0000000E+000	0.0000000E+000	-5.71917	0.0000000E+000	0.0000000E+000	0.0000000E+000	5.71917	9.98491	84.2808	1.03853e-05	-5.11655e-07	141324
0.215268	12.9816	1.48383	13.0661	-6.52075	43.9387	0.268894	-0.000884537	498260	6425.85	1	11	0.00506508	0.000387649	0	0.000154428	0.0760385	0.0086914	0.0765337	6.52075	6.42585e+06	5.62179e+07	5.6584e+07	-83.4792	0.0000000E+000	0.0000000E+000	0.0000000E+000	83.4792	0.0000000E+000	0.0000000E+000	0.0000000E+000	-83.4792	0.0000000E+000	0.0000000E+000	0.0000000E+000	-6.52075	0.0000000E+000	0.0000000E+000	0.0000000E+000	6.52075	8.74871	83.4792	4.6078e-05	-2.37847e-07	303994
0.0999041	13.554	2.19573	13.7307	-9.20192	79.3442	0.268898	0.0031666	725533	18553.8	1	11	0.00506405	0.000368812	0	0.000196172	0.0718923	0.0116465	0.0728296	9.20192	1.85538e+07	1.1453e+08	1.16023e+08	-80.7981	0.0000000E+000	0.0000000E+000	0.0000000E+000	80.7981	0.0000000E+000	0.0000000E+000	0.0000000E+000	-80.7981	0.0000000E+000	0.0000000E+000	0.0000000E+000	-9.20192	0.0000000E+000	0.0000000E+000	0.0000000E+000	9.20192	6.17287	80.7981	5.91514e-07	8.51491e-07	84917
0.0464052	14.3285	3.40052	14.7265	-13.3508	155.58	0.268897	0.00192549	1.00857e+06	53777.4	1	11	0.00506582	0.000343993	0	-5.46383e-05	0.0660696	0.01568	0.0679048	13.3508	5.37774e+07	2.26598e+08	2.32892e+08	-76.6492	0.0000000E+000	0.0000000E+000	0.0000000E+000	76.6492	0.0000000E+000	0.0000000E+000	0.0000000E+000	-76.6492	0.0000000E+000	0.0000000E+000	0.0000000E+000	-13.3508	0.0000000E+000	0.0000000E+000	0.0000000E+000	13.3508	4.21362	76.6492	-0.000185804	5.17757e-07	139652
0.0215268	15.6258	5.5487	16.5817	-19.5499	366.365	0.268897	-0.00119704	1.33245e+06	149201	1	12	0.00506191	0.00030527	0	-0.000476052	0.0568306	0.0201805	0.0603073	19.5499	1.49201e+08	4.20168e+08	4.45873e+08	-70.4501	0.0000000E+000	0.0000000E+000	0.0000000E+000	70.4501	0.0000000E+000	0.0000000E+000	0.0000000E+000	-70.4501	0.0000000E+000	0.0000000E+000	0.0000000E+000	-19.5499	0.0000000E+000	0.0000000E+000	0.0000000E+000	19.5499	2.81612	70.4501	-0.000175189	-3.2188e-07	224636
0.0146812	16.5273	7.19737	18.0264	-23.5324	509.561	0.268894	-0.002056	1.50621e+06	240111	1	12	0.0050634	0.000280887	0	-0.000320026	0.0508605	0.022149	0.055474	23.5324	2.40111e+08	5.51366e+08	6.0138e+08	-66.4676	0.0000000E+000	0.0000000E+000	0.0000000E+000	66.4676	0.0000000E+000	0.0000000E+000	0.0000000E+000	-66.4676	0.0000000E+000	0.0000000E+000	0.0000000E+000	-23.5324	0.0000000E+000	0.0000000E+000	0.0000000E+000	23.5324	2.29629	66.4676	0.000156026	-5.52846e-07	130785

0.0100092	17.4649	9.13797	19.7111	-27.6194	719.581	0.268897	-0.00101068	1.74009e+06	373983	1	12	0.00506213	0.000256816	0	0.000295376	0.0449517	0.0235196	0.0507329	27.6194	3.73983e+08	7.14774e+08	8.067e+08	-62.3806	0.0000000E+000	0.0000000E+000	0.0000000E+000	62.3806	0.0000000E+000	0.0000000E+000	0.0000000E+000	-62.3806	0.0000000E+000	0.0000000E+000	0.0000000E+000	-27.6194	0.0000000E+000	0.0000000E+000	0.0000000E+000	27.6194	1.91125	62.3806	0.000615402	-2.71769e-07	266055