Folder: EIS/txt (part 119)

File: 18725_R302_UA698_SOC00_C05.mpt
EC-Lab ASCII FILE
Nb header lines : 65

Potentio Electrochemical Impedance Spectroscopy

Run on channel : 5 (SN 65912)
User :
CE vs. WE compliance from -10 V to 10 V
Electrode connection : standard
Potential control : Ewe
Ewe ctrl range : min = -10.00 V, max = 10.00 V
Safety Limits :
	Do not start on E overload
Acquisition started on : 10/31/2025 10:59:58.272
Technique started on : 10/31/2025 11:00:00.184
Loaded Setting File :  C:\Users\Celltest\OneDrive - store-dot.com\Documents\EC-Lab\Data\@Biologic Test Protocols\anode half cell EIS SOC00.mps
Saved on :
	File : 18725_R302_UA698_SOC00_C05.mpr
	Directory : C:\Users\Celltest\OneDrive - store-dot.com\Documents\EC-Lab\Data\Charmaine\
	Host : 169.254.61.224
Device : VMP-3e (SN .003165)
Address : USB
EC-LAB for windows v11.62 (software)
Internet server v27.00 (firmware)
Command interpretor v12.03 (firmware)
Electrode material :
Initial state :
Electrolyte :
Comments :
Electrode surface area : 0.001 cm²
Characteristic mass : 0.001 g
Equivalent Weight : 0.000 g/eq.
Density : 0.000 g/cm3
Volume (V) : 0.001 cm³
Record Ece
Cycle Definition : Charge/Discharge alternance
Mode                Single sine
E (V)               0.0000
vs.                 Eoc
tE (h:m:s)          0:00:0.0000
record              0
dI                  0.000
unit dI             mA
dt (s)              0.000
fi                  100.000
unit fi             kHz
ff                  10.000
unit ff             mHz
Nd                  6
Points              per decade
spacing             Logarithmic
Va (mV)             5.0
pw                  0.10
Na                  2
corr                0
E range min (V)     -10.000
E range max (V)     10.000
I Range             Auto
Bandwidth           5
nc cycles           0
goto Ns'            0
nr cycles           0
inc. cycle          0

freq/Hz	Re(Z)/Ohm	-Im(Z)/Ohm	|Z|/Ohm	Phase(Z)/deg	time/s	<Ewe>/V	<I>/mA	Cs/µF	Cp/µF	cycle number	I Range	|Ewe|/V	|I|/A	Ns	(Q-Qo)/mA.h	<Ece>/V	|Ece|/V	Phase(Zce)/deg	|Zce|/Ohm	Re(Zce)/Ohm	-Im(Zce)/Ohm	Phase(Zwe-ce)/deg	|Zwe-ce|/Ohm	Re(Zwe-ce)/Ohm	-Im(Zwe-ce)/Ohm	Re(Y)/Ohm-1	Im(Y)/Ohm-1	|Y|/Ohm-1	Phase(Y)/deg	Re(C)/nF	Im(C)/nF	|C|/nF	Phase(C)/deg	Re(M)	Im(M)	|M|	Phase(M)/deg	Re(Permittivity)	Im(Permittivity)	|Permittivity|	Phase(Permittivity)/deg	Re(Resistivity)/Ohm.cm	Im(Resistivity)/Ohm.cm	|Resistivity|/Ohm.cm	Phase(Resistivity)/deg	Re(Conductivity)/mS/cm	Im(Conductivity)/mS/cm	|Conductivity|/mS/cm	Phase(Conductivity)/deg	Tan(Delta)	Loss Angle(Delta)/deg	dq/mA.h	Pwe/W	Pce/W	Pwe-ce/W	<Ewe-Ece>/V	Rwe/Ohm	Rce/Ohm	Rwe-ce/Ohm		Ewe-Ece/V
100004	1.2382	0.559995	1.35895	-24.3356	1.91152	0.268268	-0.0177477	2.84197	0.482595	1	9	0.00463628	0.00341167	0	-5.55284e-07	-0.00023237	4.04204e-05	93.5413	0.0118477	-0.000731815	-0.0118251	-23.8922	1.35345	1.23747	0.54817	0.67048	0.303234	0.735863	24.3356	482.595	1067.06	1171.12	-65.6644	0.0000000E+000	0.0000000E+000	0.0000000E+000	65.6644	0.0000000E+000	0.0000000E+000	0.0000000E+000	-65.6644	0.0000000E+000	0.0000000E+000	0.0000000E+000	-24.3356	0.0000000E+000	0.0000000E+000	0.0000000E+000	24.3356	2.21109	65.6644	-5.55284e-07	-4.76113e-06	4.12402e-09	-4.76525e-06	0.2685	15115.7	13.093	15128.8
31621.1	1.73731	0.756668	1.89494	-23.5351	3.43453	0.268231	-0.0136885	6.65177	1.06062	1	9	0.00513147	0.00270799	0	1.63659e-05	-0.000175096	1.61192e-05	-4.2288	0.00595245	0.00593625	0.000438931	-23.4757	1.90056	1.74324	0.757107	0.483824	0.210725	0.527722	23.5351	1060.62	2435.17	2656.12	-66.4649	0.0000000E+000	0.0000000E+000	0.0000000E+000	66.4649	0.0000000E+000	0.0000000E+000	0.0000000E+000	-66.4649	0.0000000E+000	0.0000000E+000	0.0000000E+000	-23.5351	0.0000000E+000	0.0000000E+000	0.0000000E+000	23.5351	2.296	66.4649	-4.43992e-07	-3.67169e-06	2.39681e-09	-3.67409e-06	0.268406	19595.3	12.7915	19608.1
10002.2	2.30381	0.994466	2.50929	-23.348	4.46152	0.268231	-0.0230357	16.0005	2.51312	1	9	0.00457189	0.00182199	0	1.48875e-05	0.000149454	1.55128e-05	-94.6109	0.00851419	-0.000684447	0.00848664	-23.5319	2.51203	2.30313	1.00295	0.365887	0.157939	0.39852	23.348	2513.12	5821.97	6341.23	-66.652	0.0000000E+000	0.0000000E+000	0.0000000E+000	66.652	0.0000000E+000	0.0000000E+000	0.0000000E+000	-66.652	0.0000000E+000	0.0000000E+000	0.0000000E+000	-23.348	0.0000000E+000	0.0000000E+000	0.0000000E+000	23.348	2.31663	66.652	-9.62716e-08	-6.17889e-06	-3.44279e-09	-6.17545e-06	0.268081	11644.1	6.48793	11637.6
3163.08	2.9381	1.55934	3.32626	-27.9562	5.48368	0.268004	-0.0651167	32.2679	7.0915	1	9	0.00474289	0.00142589	0	-2.05475e-07	-7.96403e-05	1.02183e-05	-83.6442	0.00716623	0.000793311	0.00712218	-28.058	3.3303	2.9389	1.56646	0.265556	0.140938	0.300638	27.9562	7091.5	13361.8	15127	-62.0438	0.0000000E+000	0.0000000E+000	0.0000000E+000	62.0438	0.0000000E+000	0.0000000E+000	0.0000000E+000	-62.0438	0.0000000E+000	0.0000000E+000	0.0000000E+000	-27.9562	0.0000000E+000	0.0000000E+000	0.0000000E+000	27.9562	1.8842	62.0438	-6.24484e-06	-1.74515e-05	5.18592e-09	-1.74567e-05	0.268084	4115.75	1.22304	4116.97
1000.32	3.84954	3.03079	4.89945	-38.2138	7.0818	0.26817	-0.0140431	52.4958	20.0882	1	10	0.0047688	0.000973332	0	-2.30953e-06	0.000130363	1.46827e-05	-47.0788	0.015085	0.0102728	0.0110466	-38.2409	4.91436	3.85981	3.04184	0.160366	0.126259	0.204104	38.2138	20088.2	25514.9	32473.8	-51.7862	0.0000000E+000	0.0000000E+000	0.0000000E+000	51.7862	0.0000000E+000	0.0000000E+000	0.0000000E+000	-51.7862	0.0000000E+000	0.0000000E+000	0.0000000E+000	-38.2138	0.0000000E+000	0.0000000E+000	0.0000000E+000	38.2138	1.27014	51.7862	-2.32427e-06	-3.76593e-06	-1.8307e-09	-3.7641e-06	0.268039	19096.2	9.28306	19086.9
316.316	6.1146	6.61474	9.00795	-47.25	8.43201	0.268163	-0.0143633	76.0652	41.0166	1	10	0.00466751	0.000518154	0	-6.6186e-06	0.000111272	5.7587e-06	11.6326	0.0111139	0.0108856	-0.00224096	-47.1895	9.0137	6.12549	6.6125	0.0753557	0.0815194	0.111013	47.25	41016.6	37915.4	55856.4	-42.75	0.0000000E+000	0.0000000E+000	0.0000000E+000	42.75	0.0000000E+000	0.0000000E+000	0.0000000E+000	-42.75	0.0000000E+000	0.0000000E+000	0.0000000E+000	-47.25	0.0000000E+000	0.0000000E+000	0.0000000E+000	47.25	0.92439	42.75	-1.27712e-06	-3.85172e-06	-1.59824e-09	-3.85013e-06	0.268052	18670	7.74693	18662.2
100.032	13.3026	12.6581	18.3626	-43.5781	9.77984	0.268158	-0.0143373	125.693	59.7284	1	10	0.00463144	0.000252221	0	-1.20066e-05	0.000111272	1.83046e-05	-1.24828	0.0725737	0.0725565	0.00158101	-43.426	18.4164	13.3751	12.6597	0.0394516	0.0375405	0.0544584	43.5781	59728.4	62769.1	86645.5	-46.4219	0.0000000E+000	0.0000000E+000	0.0000000E+000	46.4219	0.0000000E+000	0.0000000E+000	0.0000000E+000	-46.4219	0.0000000E+000	0.0000000E+000	0.0000000E+000	-43.5781	0.0000000E+000	0.0000000E+000	0.0000000E+000	43.5781	1.05091	46.4219	-1.40365e-06	-3.84466e-06	-1.59534e-09	-3.84307e-06	0.268047	18703.6	7.76101	18695.8
[...]
1.00006	42.2106	4.14717	42.4138	-5.61127	19.5288	0.268204	-0.00205153	38374.3	366.885	1	12	0.00463289	0.000109231	0	-1.69522e-05	-0.000156005	1.52531e-06	-12.4608	0.0139641	0.0136351	0.00301304	-5.61352	42.4277	42.2242	4.15018	0.0234643	0.00230535	0.0235772	5.61127	366885	3.73421e+06	3.75219e+06	-84.3887	0.0000000E+000	0.0000000E+000	0.0000000E+000	84.3887	0.0000000E+000	0.0000000E+000	0.0000000E+000	-84.3887	0.0000000E+000	0.0000000E+000	0.0000000E+000	-5.61127	0.0000000E+000	0.0000000E+000	0.0000000E+000	5.61127	10.1782	84.3887	-1.0998e-06	-5.50227e-07	3.20049e-10	-5.50548e-07	0.26836	130733	76.0434	130809
0.316193	44.8743	4.27624	45.0776	-5.44349	33.872	0.268216	-0.00142761	117708	1059.27	1	12	0.0046313	0.000102741	0	-4.08138e-05	-6.05491e-05	2.09207e-06	-3.88327	0.0203627	0.0203159	0.00137904	-5.44278	45.0979	44.8946	4.27762	0.0220839	0.00210446	0.022184	5.44349	1.05927e+06	1.11159e+07	1.11662e+07	-84.5565	0.0000000E+000	0.0000000E+000	0.0000000E+000	84.5565	0.0000000E+000	0.0000000E+000	0.0000000E+000	-84.5565	0.0000000E+000	0.0000000E+000	0.0000000E+000	-5.44349	0.0000000E+000	0.0000000E+000	0.0000000E+000	5.44349	10.4939	84.5565	-1.05985e-05	-3.82907e-07	8.64404e-11	-3.82994e-07	0.268276	187878	42.4129	187920
0.0999041	47.6339	5.48799	47.949	-6.57218	79.0798	0.268212	-0.00129035	290284	3802.69	1	12	0.00463651	9.66967e-05	0	-3.1304e-05	0.000130363	1.67836e-06	26.1152	0.0173569	0.015585	-0.00764012	-6.56098	47.9636	47.6495	5.48035	0.0207184	0.00238701	0.0208555	6.57218	3.80269e+06	3.30061e+07	3.32244e+07	-83.4278	0.0000000E+000	0.0000000E+000	0.0000000E+000	83.4278	0.0000000E+000	0.0000000E+000	0.0000000E+000	-83.4278	0.0000000E+000	0.0000000E+000	0.0000000E+000	-6.57218	0.0000000E+000	0.0000000E+000	0.0000000E+000	6.57218	8.67966	83.4278	1.62031e-05	-3.46087e-07	-1.68214e-10	-3.45919e-07	0.268082	207860	101.029	207759
0.0315922	51.1852	9.16438	51.9991	-10.1509	221.963	0.268209	0.00119562	549714	17074.6	1	12	0.00463526	8.91412e-05	0	6.29698e-05	5.39982e-05	1.27998e-06	2.26367	0.014359	0.0143478	-0.000567154	-10.1475	52.0131	51.1995	9.16382	0.0189301	0.00338931	0.0192311	10.1509	1.70746e+07	9.53658e+07	9.68823e+07	-79.8491	0.0000000E+000	0.0000000E+000	0.0000000E+000	79.8491	0.0000000E+000	0.0000000E+000	0.0000000E+000	-79.8491	0.0000000E+000	0.0000000E+000	0.0000000E+000	-10.1509	0.0000000E+000	0.0000000E+000	0.0000000E+000	10.1509	5.58523	79.8491	2.48128e-05	3.20676e-07	6.45611e-11	3.20611e-07	0.268155	224327	45.1635	224282
0.0100092	56.9894	18.1604	59.813	-17.6751	673.186	0.268206	0.00116628	875583	80715.3	1	12	0.00463065	7.74188e-05	0	-0.00018121	-2.23667e-05	1.36861e-06	-98.0747	0.017678	-0.00248314	0.0175028	-17.6918	59.8159	56.9869	18.1779	0.0159295	0.00507614	0.0167188	17.6751	8.07153e+07	2.53294e+08	2.65844e+08	-72.3249	0.0000000E+000	0.0000000E+000	0.0000000E+000	72.3249	0.0000000E+000	0.0000000E+000	0.0000000E+000	-72.3249	0.0000000E+000	0.0000000E+000	0.0000000E+000	-17.6751	0.0000000E+000	0.0000000E+000	0.0000000E+000	17.6751	3.13812	72.3249	-0.00013125	3.12802e-07	-2.60857e-11	3.12828e-07	0.268228	229968	19.1779	229987

File: 18726_R302_UA699_SOC00_C01.mpt
EC-Lab ASCII FILE
Nb header lines : 65

Potentio Electrochemical Impedance Spectroscopy

Run on channel : 1 (SN 66354)
User :
CE vs. WE compliance from -10 V to 10 V
Electrode connection : standard
Potential control : Ewe
Ewe ctrl range : min = -10.00 V, max = 10.00 V
Safety Limits :
	Do not start on E overload
Acquisition started on : 10/31/2025 11:23:47.789
Technique started on : 10/31/2025 11:23:49.701
Loaded Setting File :  C:\Users\Celltest\OneDrive - store-dot.com\Documents\EC-Lab\Data\@Biologic Test Protocols\anode half cell EIS SOC00.mps
Saved on :
	File : 18726_R302_UA699_SOC00_C01.mpr
	Directory : C:\Users\Celltest\OneDrive - store-dot.com\Documents\EC-Lab\Data\Charmaine\
	Host : 169.254.61.224
Device : VMP-3e (SN .003165)
Address : USB
EC-LAB for windows v11.62 (software)
Internet server v27.00 (firmware)
Command interpretor v12.03 (firmware)
Electrode material :
Initial state :
Electrolyte :
Comments :
Electrode surface area : 0.001 cm²
Characteristic mass : 0.001 g
Equivalent Weight : 0.000 g/eq.
Density : 0.000 g/cm3
Volume (V) : 0.001 cm³
Record Ece
Cycle Definition : Charge/Discharge alternance
Mode                Single sine
E (V)               0.0000
vs.                 Eoc
tE (h:m:s)          0:00:0.0000
record              0
dI                  0.000
unit dI             mA
dt (s)              0.000
fi                  100.000
unit fi             kHz
ff                  10.000
unit ff             mHz
Nd                  6
Points              per decade
spacing             Logarithmic
Va (mV)             5.0
pw                  0.10
Na                  2
corr                0
E range min (V)     -10.000
E range max (V)     10.000
I Range             Auto
Bandwidth           5
nc cycles           0
goto Ns'            0
nr cycles           0
inc. cycle          0

freq/Hz	Re(Z)/Ohm	-Im(Z)/Ohm	|Z|/Ohm	Phase(Z)/deg	time/s	<Ewe>/V	<I>/mA	Cs/µF	Cp/µF	cycle number	I Range	|Ewe|/V	|I|/A	Ns	(Q-Qo)/mA.h	<Ece>/V	|Ece|/V	Phase(Zce)/deg	|Zce|/Ohm	Re(Zce)/Ohm	-Im(Zce)/Ohm	Phase(Zwe-ce)/deg	|Zwe-ce|/Ohm	Re(Zwe-ce)/Ohm	-Im(Zwe-ce)/Ohm	Re(Y)/Ohm-1	Im(Y)/Ohm-1	|Y|/Ohm-1	Phase(Y)/deg	Re(C)/nF	Im(C)/nF	|C|/nF	Phase(C)/deg	Re(M)	Im(M)	|M|	Phase(M)/deg	Re(Permittivity)	Im(Permittivity)	|Permittivity|	Phase(Permittivity)/deg	Re(Resistivity)/Ohm.cm	Im(Resistivity)/Ohm.cm	|Resistivity|/Ohm.cm	Phase(Resistivity)/deg	Re(Conductivity)/mS/cm	Im(Conductivity)/mS/cm	|Conductivity|/mS/cm	Phase(Conductivity)/deg	Tan(Delta)	Loss Angle(Delta)/deg	dq/mA.h	Pwe/W	Pce/W	Pwe-ce/W	<Ewe-Ece>/V	Rwe/Ohm	Rce/Ohm	Rwe-ce/Ohm		Ewe-Ece/V
100004	1.42063	0.740612	1.60209	-27.5342	1.91154	0.27113	0.0648552	2.14889	0.459219	1	9	0.0047094	0.00293953	0	2.12268e-06	0.00021219	4.28974e-05	91.7955	0.0145933	-0.000457247	-0.0145861	-27.0772	1.59499	1.42017	0.726026	0.553486	0.288547	0.624184	27.5342	459.219	880.867	993.383	-62.4658	0.0000000E+000	0.0000000E+000	0.0000000E+000	62.4658	0.0000000E+000	0.0000000E+000	0.0000000E+000	-62.4658	0.0000000E+000	0.0000000E+000	0.0000000E+000	-27.5342	0.0000000E+000	0.0000000E+000	0.0000000E+000	27.5342	1.91818	62.4658	2.12268e-06	1.75842e-05	1.37616e-08	1.75704e-05	0.270917	4180.54	3.27175	4177.26
31621.1	2.13107	1.03069	2.36723	-25.8106	3.43256	0.271126	0.0704061	4.88333	0.925739	1	9	0.00510232	0.0021554	0	2.1333e-05	4.04943e-05	7.94125e-06	1.50809	0.00368436	0.00368308	-9.69652e-05	-25.7697	2.3705	2.13475	1.03059	0.380292	0.183927	0.422435	25.8106	925.739	1914.08	2126.19	-64.1894	0.0000000E+000	0.0000000E+000	0.0000000E+000	64.1894	0.0000000E+000	0.0000000E+000	0.0000000E+000	-64.1894	0.0000000E+000	0.0000000E+000	0.0000000E+000	-25.8106	0.0000000E+000	0.0000000E+000	0.0000000E+000	25.8106	2.06762	64.1894	4.74672e-06	1.90889e-05	2.85104e-09	1.90861e-05	0.271086	3850.89	0.575153	3850.31
10002.2	2.93573	1.23328	3.18425	-22.7869	4.58156	0.27112	0.0519652	12.9022	1.93539	1	9	0.00494987	0.00155448	0	3.96508e-05	0.000402963	1.06903e-05	-80.969	0.00687708	0.00107948	0.00679183	-22.8919	3.18788	2.93681	1.24007	0.289535	0.121631	0.314045	22.7869	1935.39	4607.06	4997.07	-67.2131	0.0000000E+000	0.0000000E+000	0.0000000E+000	67.2131	0.0000000E+000	0.0000000E+000	0.0000000E+000	-67.2131	0.0000000E+000	0.0000000E+000	0.0000000E+000	-22.7869	0.0000000E+000	0.0000000E+000	0.0000000E+000	22.7869	2.38043	67.2131	7.4683e-06	1.40888e-05	2.09401e-08	1.40678e-05	0.270717	5217.33	7.75448	5209.58
3163.08	3.79216	1.6468	4.1343	-23.4735	5.68968	0.271048	-0.0167828	30.5541	4.84781	1	10	0.00479882	0.00116073	0	4.99432e-05	0.000441118	7.34911e-06	4.38719	0.00633143	0.00631288	-0.000484331	-23.4326	4.1399	3.79848	1.64631	0.221862	0.0963465	0.241879	23.4735	4847.81	11163.3	12170.5	-66.5265	0.0000000E+000	0.0000000E+000	0.0000000E+000	66.5265	0.0000000E+000	0.0000000E+000	0.0000000E+000	-66.5265	0.0000000E+000	0.0000000E+000	0.0000000E+000	-23.4735	0.0000000E+000	0.0000000E+000	0.0000000E+000	23.4735	2.30275	66.5265	3.2642e-06	-4.54895e-06	-7.40321e-09	-4.54155e-06	0.270607	16150.3	26.2839	16124
1000.32	4.83166	2.74918	5.55904	-29.6395	7.04179	0.271038	-0.00958613	57.8733	14.1542	1	10	0.00464462	0.000835508	0	4.63586e-05	2.1417e-05	9.97798e-06	-62.1741	0.0119424	0.00557455	0.0105615	-29.7056	5.56911	4.83723	2.75974	0.15635	0.0889618	0.179887	29.6395	14154.2	24875.9	28620.8	-60.3605	0.0000000E+000	0.0000000E+000	0.0000000E+000	60.3605	0.0000000E+000	0.0000000E+000	0.0000000E+000	-60.3605	0.0000000E+000	0.0000000E+000	0.0000000E+000	-29.6395	0.0000000E+000	0.0000000E+000	0.0000000E+000	29.6395	1.75749	60.3605	-1.56962e-06	-2.59821e-06	-2.05306e-10	-2.598e-06	0.271017	28274	2.23416	28271.8
316.316	6.89887	5.44477	8.78862	-38.2814	8.39204	0.271042	-0.0114794	92.4101	35.468	1	10	0.00458366	0.000521545	0	4.24306e-05	5.95716e-05	1.05543e-05	-32.1524	0.0202366	0.017133	0.0107694	-38.2674	8.80874	6.916	5.45554	0.0893174	0.0704917	0.113783	38.2814	35468	44940.2	57250.4	-51.7186	0.0000000E+000	0.0000000E+000	0.0000000E+000	51.7186	0.0000000E+000	0.0000000E+000	0.0000000E+000	-51.7186	0.0000000E+000	0.0000000E+000	0.0000000E+000	-38.2814	0.0000000E+000	0.0000000E+000	0.0000000E+000	38.2814	1.26706	51.7186	-1.53154e-06	-3.1114e-06	-6.83847e-10	-3.11072e-06	0.270982	23611.1	5.18942	23605.9
100.032	12.6305	9.85435	16.0199	-37.9615	9.73878	0.271037	-0.00958242	161.456	61.0926	1	10	0.00456484	0.000284948	0	3.83263e-05	-0.000131202	1.23774e-05	4.98495	0.0434375	0.0432732	-0.00377446	-37.8558	16.0517	12.6738	9.85058	0.0492153	0.0383979	0.0624223	37.9615	61092.6	78303.5	99316.4	-52.0385	0.0000000E+000	0.0000000E+000	0.0000000E+000	52.0385	0.0000000E+000	0.0000000E+000	0.0000000E+000	-52.0385	0.0000000E+000	0.0000000E+000	0.0000000E+000	-37.9615	0.0000000E+000	0.0000000E+000	0.0000000E+000	37.9615	1.28172	52.0385	-7.43156e-07	-2.59719e-06	1.25723e-09	-2.59845e-06	0.271168	28284.8	13.6919	28298.5
[...]
1.00006	37.9574	5.61494	38.3704	-8.4146	19.4786	0.271103	-0.00247816	28343.1	606.938	1	12	0.00456333	0.000118928	0	3.12143e-05	0.00021219	4.03203e-06	58.1998	0.033903	0.0178655	-0.0288139	-8.36815	38.3839	37.9752	5.58613	0.0257812	0.00381375	0.0260617	8.4146	606938	4.10294e+06	4.14759e+06	-81.5854	0.0000000E+000	0.0000000E+000	0.0000000E+000	81.5854	0.0000000E+000	0.0000000E+000	0.0000000E+000	-81.5854	0.0000000E+000	0.0000000E+000	0.0000000E+000	-8.4146	0.0000000E+000	0.0000000E+000	0.0000000E+000	8.4146	6.76006	81.5854	-3.72071e-06	-6.71835e-07	-5.25841e-10	-6.7131e-07	0.27089	109397	85.624	109311
0.316193	41.9063	5.53323	42.27	-7.52171	33.823	0.271109	-0.00234817	90968.1	1558.77	1	12	0.00456593	0.000108018	0	7.40639e-06	7.86489e-05	2.60571e-06	19.9952	0.0241229	0.0226688	-0.0082486	-7.50661	42.2914	41.929	5.52498	0.0234539	0.0030968	0.0236574	7.52171	1.55877e+06	1.18054e+07	1.19079e+07	-82.4783	0.0000000E+000	0.0000000E+000	0.0000000E+000	82.4783	0.0000000E+000	0.0000000E+000	0.0000000E+000	-82.4783	0.0000000E+000	0.0000000E+000	0.0000000E+000	-7.52171	0.0000000E+000	0.0000000E+000	0.0000000E+000	7.52171	7.57358	82.4783	-7.53168e-06	-6.3661e-07	-1.84681e-10	-6.36425e-07	0.271031	115456	33.4937	115422
0.0999041	45.4884	6.49158	45.9493	-8.12175	79.0308	0.271109	-0.00175402	245407	4898.12	1	12	0.00456147	9.92717e-05	0	3.08552e-05	-9.30469e-05	2.10148e-06	-49.931	0.021169	0.0136267	0.0162	-8.13934	45.9651	45.5021	6.50778	0.0215448	0.00307463	0.0217631	8.12175	4.89812e+06	3.43226e+07	3.46703e+07	-81.8782	0.0000000E+000	0.0000000E+000	0.0000000E+000	81.8782	0.0000000E+000	0.0000000E+000	0.0000000E+000	-81.8782	0.0000000E+000	0.0000000E+000	0.0000000E+000	-8.12175	0.0000000E+000	0.0000000E+000	0.0000000E+000	8.12175	7.0073	81.8782	1.66907e-05	-4.75532e-07	1.63207e-10	-4.75695e-07	0.271202	154564	53.0476	154617
0.0315922	49.8154	9.92651	50.7948	-11.2695	221.914	0.271111	0.00016124	507509	19382	1	12	0.00456759	8.99223e-05	0	9.83478e-06	2.1417e-05	2.33192e-06	26.3296	0.0259326	0.0232423	-0.011502	-11.2516	50.8154	49.8387	9.91501	0.0193075	0.00384731	0.019687	11.2695	1.9382e+07	9.7267e+07	9.91792e+07	-78.7305	0.0000000E+000	0.0000000E+000	0.0000000E+000	78.7305	0.0000000E+000	0.0000000E+000	0.0000000E+000	-78.7305	0.0000000E+000	0.0000000E+000	0.0000000E+000	-11.2695	0.0000000E+000	0.0000000E+000	0.0000000E+000	11.2695	5.01843	78.7305	-4.07036e-05	4.37139e-08	3.45327e-12	4.37105e-08	0.27109	1.68142e+06	132.827	1.68128e+06
0.0100092	56.4395	18.6102	59.4286	-18.2493	673.135	0.271102	-0.000630843	854421	83787.9	1	12	0.00456378	7.67943e-05	0	-0.000405413	0.000135881	2.59458e-06	2.34005	0.0337861	0.0337579	-0.00137949	-18.2378	59.4602	56.4733	18.6088	0.0159806	0.00526937	0.0168269	18.2493	8.37878e+07	2.54106e+08	2.67563e+08	-71.7507	0.0000000E+000	0.0000000E+000	0.0000000E+000	71.7507	0.0000000E+000	0.0000000E+000	0.0000000E+000	-71.7507	0.0000000E+000	0.0000000E+000	0.0000000E+000	-18.2493	0.0000000E+000	0.0000000E+000	0.0000000E+000	18.2493	3.03273	71.7507	-0.000150101	-1.71023e-07	-8.57195e-11	-1.70937e-07	0.270966	429746	215.396	429530