Folder: EIS/txt (part 102)

File: 18606_R301_UA696_SOC00_C01.mpt
EC-Lab ASCII FILE
Nb header lines : 65

Potentio Electrochemical Impedance Spectroscopy

Run on channel : 1 (SN 66354)
User :
CE vs. WE compliance from -10 V to 10 V
Electrode connection : standard
Potential control : Ewe
Ewe ctrl range : min = -10.00 V, max = 10.00 V
Safety Limits :
	Do not start on E overload
Acquisition started on : 10/27/2025 16:34:52.191
Technique started on : 10/27/2025 16:34:54.103
Loaded Setting File :  C:\Users\Celltest\OneDrive - store-dot.com\Documents\EC-Lab\Data\@Biologic Test Protocols\anode half cell EIS SOC00.mps
Saved on :
	File : 18606_R301_UA696_SOC00_C01.mpr
	Directory : C:\Users\Celltest\OneDrive - store-dot.com\Documents\EC-Lab\Data\Gyutae\
	Host : 169.254.61.224
Device : VMP-3e (SN .003165)
Address : USB
EC-LAB for windows v11.62 (software)
Internet server v27.00 (firmware)
Command interpretor v12.03 (firmware)
Electrode material :
Initial state :
Electrolyte :
Comments :
Electrode surface area : 0.001 cm²
Characteristic mass : 0.001 g
Equivalent Weight : 0.000 g/eq.
Density : 0.000 g/cm3
Volume (V) : 0.001 cm³
Record Ece
Cycle Definition : Charge/Discharge alternance
Mode                Single sine
E (V)               0.0000
vs.                 Eoc
tE (h:m:s)          0:00:0.0000
record              0
dI                  0.000
unit dI             mA
dt (s)              0.000
fi                  100.000
unit fi             kHz
ff                  10.000
unit ff             mHz
Nd                  6
Points              per decade
spacing             Logarithmic
Va (mV)             5.0
pw                  0.10
Na                  2
corr                0
E range min (V)     -10.000
E range max (V)     10.000
I Range             Auto
Bandwidth           5
nc cycles           0
goto Ns'            0
nr cycles           0
inc. cycle          0

freq/Hz	Re(Z)/Ohm	-Im(Z)/Ohm	|Z|/Ohm	Phase(Z)/deg	time/s	<Ewe>/V	<I>/mA	Cs/µF	Cp/µF	cycle number	I Range	|Ewe|/V	|I|/A	Ns	(Q-Qo)/mA.h	<Ece>/V	|Ece|/V	Phase(Zce)/deg	|Zce|/Ohm	Re(Zce)/Ohm	-Im(Zce)/Ohm	Phase(Zwe-ce)/deg	|Zwe-ce|/Ohm	Re(Zwe-ce)/Ohm	-Im(Zwe-ce)/Ohm	Re(Y)/Ohm-1	Im(Y)/Ohm-1	|Y|/Ohm-1	Phase(Y)/deg	Re(C)/nF	Im(C)/nF	|C|/nF	Phase(C)/deg	Re(M)	Im(M)	|M|	Phase(M)/deg	Re(Permittivity)	Im(Permittivity)	|Permittivity|	Phase(Permittivity)/deg	Re(Resistivity)/Ohm.cm	Im(Resistivity)/Ohm.cm	|Resistivity|/Ohm.cm	Phase(Resistivity)/deg	Re(Conductivity)/mS/cm	Im(Conductivity)/mS/cm	|Conductivity|/mS/cm	Phase(Conductivity)/deg	Tan(Delta)	Loss Angle(Delta)/deg	dq/mA.h	Pwe/W	Pce/W	Pwe-ce/W	<Ewe-Ece>/V	Rwe/Ohm	Rce/Ohm	Rwe-ce/Ohm		Ewe-Ece/V
100004	1.18308	0.484595	1.27848	-22.2742	1.91153	0.223165	0.056622	3.28417	0.471839	1	9	0.00481282	0.00376448	0	1.52274e-05	-0.000112124	3.91641e-05	100.205	0.0104036	-0.00184318	-0.010239	-21.8792	1.27293	1.18124	0.474356	0.723812	0.296476	0.782178	22.2742	471.839	1151.94	1244.83	-67.7258	0.0000000E+000	0.0000000E+000	0.0000000E+000	67.7258	0.0000000E+000	0.0000000E+000	0.0000000E+000	-67.7258	0.0000000E+000	0.0000000E+000	0.0000000E+000	-22.2742	0.0000000E+000	0.0000000E+000	0.0000000E+000	22.2742	2.44138	67.7258	1.52274e-05	1.26361e-05	-6.3487e-09	1.26424e-05	0.223277	3941.31	1.98022	3943.29
31621.1	1.60291	0.658794	1.73302	-22.3425	3.43453	0.22316	0.0665689	7.63999	1.10405	1	9	0.00514494	0.00296878	0	5.00839e-05	0.000269422	1.42869e-05	47.1012	0.00481237	0.00327581	-0.00352533	-22.1937	1.73471	1.60619	0.655269	0.53371	0.219354	0.577029	22.3425	1104.05	2686.26	2904.29	-67.6574	0.0000000E+000	0.0000000E+000	0.0000000E+000	67.6574	0.0000000E+000	0.0000000E+000	0.0000000E+000	-67.6574	0.0000000E+000	0.0000000E+000	0.0000000E+000	-22.3425	0.0000000E+000	0.0000000E+000	0.0000000E+000	22.3425	2.4331	67.6574	-3.20148e-06	1.48555e-05	1.79351e-08	1.48376e-05	0.222891	3352.32	4.04726	3348.27
10002.2	2.10819	0.877096	2.28336	-22.5894	4.45952	0.223166	0.06072	18.1416	2.67683	1	9	0.00495224	0.00216883	0	6.63757e-05	0.000326654	1.41688e-05	-99.9377	0.00653292	-0.00112743	0.0064349	-22.7493	2.2848	2.10706	0.883531	0.404351	0.168228	0.43795	22.5894	2676.83	6434.02	6968.65	-67.4106	0.0000000E+000	0.0000000E+000	0.0000000E+000	67.4106	0.0000000E+000	0.0000000E+000	0.0000000E+000	-67.4106	0.0000000E+000	0.0000000E+000	0.0000000E+000	-22.5894	0.0000000E+000	0.0000000E+000	0.0000000E+000	22.5894	2.4036	67.4106	4.78913e-06	1.35506e-05	1.98344e-08	1.35308e-05	0.222839	3675.32	5.37967	3669.94
3163.08	2.6932	1.31179	2.99568	-25.9695	5.35763	0.222924	0.0130344	38.3571	7.355	1	9	0.00452242	0.00150964	0	7.46349e-05	-0.000188433	4.06878e-06	36.521	0.00269519	0.00216596	-0.00160395	-25.9238	2.99693	2.69537	1.31019	0.300107	0.146175	0.333814	25.9695	7355	15100.3	16796.3	-64.0305	0.0000000E+000	0.0000000E+000	0.0000000E+000	64.0305	0.0000000E+000	0.0000000E+000	0.0000000E+000	-64.0305	0.0000000E+000	0.0000000E+000	0.0000000E+000	-25.9695	0.0000000E+000	0.0000000E+000	0.0000000E+000	25.9695	2.05307	64.0305	5.4177e-07	2.90568e-06	-2.45612e-09	2.90814e-06	0.223112	17102.7	14.4566	17117.1
1000.32	3.4928	2.43548	4.25807	-34.8875	7.17085	0.223079	-0.0160486	65.3277	21.3717	1	10	0.0050637	0.0011892	0	0.0001034	-7.39696e-05	6.88093e-06	48.4106	0.00578619	0.0038408	-0.00432761	-34.8102	4.25875	3.49664	2.43115	0.19264	0.134325	0.234848	34.8875	21371.7	30649.9	37365.3	-55.1125	0.0000000E+000	0.0000000E+000	0.0000000E+000	55.1125	0.0000000E+000	0.0000000E+000	0.0000000E+000	-55.1125	0.0000000E+000	0.0000000E+000	0.0000000E+000	-34.8875	0.0000000E+000	0.0000000E+000	0.0000000E+000	34.8875	1.43413	55.1125	-2.25403e-06	-3.58012e-06	1.18711e-09	-3.58131e-06	0.223153	13900.2	4.60909	13904.8
316.316	5.42903	5.19966	7.51737	-43.7638	8.52	0.223081	-0.0164661	96.7663	46.2959	1	10	0.00496279	0.000660177	0	9.869e-05	0.000326654	8.02462e-06	-19.5743	0.0121552	0.0114528	0.00407236	-43.7258	7.52846	5.44048	5.20373	0.0960706	0.0920118	0.133025	43.7638	46295.9	48338.1	66931.9	-46.2362	0.0000000E+000	0.0000000E+000	0.0000000E+000	46.2362	0.0000000E+000	0.0000000E+000	0.0000000E+000	-46.2362	0.0000000E+000	0.0000000E+000	0.0000000E+000	-43.7638	0.0000000E+000	0.0000000E+000	0.0000000E+000	43.7638	1.04411	46.2362	-2.19613e-06	-3.67327e-06	-5.3787e-09	-3.66789e-06	0.222754	13547.9	19.838	13528.1
100.032	11.2987	9.01347	14.4535	-38.581	9.86784	0.223089	-0.0159368	176.518	68.6483	1	10	0.00493791	0.000341642	0	9.22583e-05	0.000231267	1.3173e-05	-51.9482	0.0385577	0.023766	0.0303625	-38.6162	14.491	11.3224	9.04383	0.0540858	0.0431468	0.0691876	38.581	68648.3	86052.8	110080	-51.419	0.0000000E+000	0.0000000E+000	0.0000000E+000	51.419	0.0000000E+000	0.0000000E+000	0.0000000E+000	-51.419	0.0000000E+000	0.0000000E+000	0.0000000E+000	-38.581	0.0000000E+000	0.0000000E+000	0.0000000E+000	38.581	1.25353	51.419	-1.42572e-06	-3.55533e-06	-3.68567e-09	-3.55165e-06	0.222858	13998.3	14.5115	13983.8
[...]
1.00006	28.7518	2.61271	28.8703	-5.19227	19.9227	0.223142	-0.00352683	60911.7	498.863	1	12	0.00493482	0.000170931	0	8.40885e-05	0.000193113	5.72325e-06	2.45112	0.0334828	0.0334522	-0.00143196	-5.18345	28.9035	28.7853	2.61128	0.0344955	0.00313465	0.0346377	5.19227	498863	5.48978e+06	5.5124e+06	-84.8077	0.0000000E+000	0.0000000E+000	0.0000000E+000	84.8077	0.0000000E+000	0.0000000E+000	0.0000000E+000	-84.8077	0.0000000E+000	0.0000000E+000	0.0000000E+000	-5.19227	0.0000000E+000	0.0000000E+000	0.0000000E+000	5.19227	11.0046	84.8077	-4.07951e-06	-7.86983e-07	-6.81075e-10	-7.86302e-07	0.222949	63269.9	54.7554	63215.2
0.316193	30.3015	3.36165	30.4874	-6.33052	34.2659	0.223144	-0.00458337	149732	1820.46	1	12	0.00493626	0.000161912	0	4.49745e-05	0.000307577	2.15065e-06	1.18315	0.0132828	0.01328	-0.000274268	-6.32725	30.5005	30.3148	3.36138	0.0326005	0.0036167	0.0328005	6.33052	1.82046e+06	1.64094e+07	1.651e+07	-83.6695	0.0000000E+000	0.0000000E+000	0.0000000E+000	83.6695	0.0000000E+000	0.0000000E+000	0.0000000E+000	-83.6695	0.0000000E+000	0.0000000E+000	0.0000000E+000	-6.33052	0.0000000E+000	0.0000000E+000	0.0000000E+000	6.33052	9.01387	83.6695	-1.50402e-05	-1.02275e-06	-1.40974e-09	-1.02134e-06	0.222837	48685.6	67.107	48618.5
0.0999041	32.3516	6.15185	32.9314	-10.7666	79.4739	0.223138	-0.00543987	258959	9036.99	1	12	0.00493732	0.000149928	0	4.87156e-05	0.000174035	1.2385e-06	22.9062	0.00826062	0.00760922	-0.00321523	-10.7586	32.9382	32.3593	6.14864	0.0298316	0.00567266	0.0303662	10.7666	9.03699e+06	4.75241e+07	4.83757e+07	-79.2334	0.0000000E+000	0.0000000E+000	0.0000000E+000	79.2334	0.0000000E+000	0.0000000E+000	0.0000000E+000	-79.2334	0.0000000E+000	0.0000000E+000	0.0000000E+000	-10.7666	0.0000000E+000	0.0000000E+000	0.0000000E+000	10.7666	5.25884	79.2334	1.14088e-05	-1.21384e-06	-9.4673e-10	-1.2129e-06	0.222964	41019	31.9926	40987
0.0315922	36.9615	13.53	39.3601	-20.1056	222.357	0.223137	-0.00584618	372341	43997.5	1	12	0.00493445	0.000125367	0	-0.000159336	-0.000226588	2.95935e-06	-4.42765	0.0236055	0.0235351	0.00182235	-20.0963	39.3828	36.985	13.5319	0.0238582	0.00873349	0.0254065	20.1056	4.39975e+07	1.20193e+08	1.27993e+08	-69.8944	0.0000000E+000	0.0000000E+000	0.0000000E+000	69.8944	0.0000000E+000	0.0000000E+000	0.0000000E+000	-69.8944	0.0000000E+000	0.0000000E+000	0.0000000E+000	-20.1056	0.0000000E+000	0.0000000E+000	0.0000000E+000	20.1056	2.73181	69.8944	-0.000163003	-1.3045e-06	1.32467e-09	-1.30582e-06	0.223364	38168	38.7583	38206.8
0.0100092	47.5728	27.5185	54.9585	-30.0473	673.58	0.223139	-0.00845911	577825	144870	1	12	0.00493265	8.97521e-05	0	-0.00158669	0.000269422	2.3158e-06	18.2965	0.0258022	0.0244977	-0.00810019	-30.0272	54.9757	47.5973	27.5104	0.0157503	0.00911077	0.0181955	30.0473	1.4487e+08	2.50444e+08	2.89326e+08	-59.9527	0.0000000E+000	0.0000000E+000	0.0000000E+000	59.9527	0.0000000E+000	0.0000000E+000	0.0000000E+000	-59.9527	0.0000000E+000	0.0000000E+000	0.0000000E+000	-30.0473	0.0000000E+000	0.0000000E+000	0.0000000E+000	30.0473	1.72875	59.9527	-0.000608319	-1.88756e-06	-2.27907e-09	-1.88528e-06	0.22287	26378.6	31.8499	26346.7

File: 18607_R301_UA697_SOC00_C05.mpt
EC-Lab ASCII FILE
Nb header lines : 65

Potentio Electrochemical Impedance Spectroscopy

Run on channel : 5 (SN 65912)
User :
CE vs. WE compliance from -10 V to 10 V
Electrode connection : standard
Potential control : Ewe
Ewe ctrl range : min = -10.00 V, max = 10.00 V
Safety Limits :
	Do not start on E overload
Acquisition started on : 10/27/2025 16:24:30.053
Technique started on : 10/27/2025 16:24:31.833
Loaded Setting File :  C:\Users\Celltest\OneDrive - store-dot.com\Documents\EC-Lab\Data\@Biologic Test Protocols\anode half cell EIS SOC00.mps
Saved on :
	File : 18607_R301_UA697_SOC00_C05.mpr
	Directory : C:\Users\Celltest\OneDrive - store-dot.com\Documents\EC-Lab\Data\Gyutae\
	Host : 169.254.61.224
Device : VMP-3e (SN .003165)
Address : USB
EC-LAB for windows v11.62 (software)
Internet server v27.00 (firmware)
Command interpretor v12.03 (firmware)
Electrode material :
Initial state :
Electrolyte :
Comments :
Electrode surface area : 0.001 cm²
Characteristic mass : 0.001 g
Equivalent Weight : 0.000 g/eq.
Density : 0.000 g/cm3
Volume (V) : 0.001 cm³
Record Ece
Cycle Definition : Charge/Discharge alternance
Mode                Single sine
E (V)               0.0000
vs.                 Eoc
tE (h:m:s)          0:00:0.0000
record              0
dI                  0.000
unit dI             mA
dt (s)              0.000
fi                  100.000
unit fi             kHz
ff                  10.000
unit ff             mHz
Nd                  6
Points              per decade
spacing             Logarithmic
Va (mV)             5.0
pw                  0.10
Na                  2
corr                0
E range min (V)     -10.000
E range max (V)     10.000
I Range             Auto
Bandwidth           5
nc cycles           0
goto Ns'            0
nr cycles           0
inc. cycle          0

freq/Hz	Re(Z)/Ohm	-Im(Z)/Ohm	|Z|/Ohm	Phase(Z)/deg	time/s	<Ewe>/V	<I>/mA	Cs/µF	Cp/µF	cycle number	I Range	|Ewe|/V	|I|/A	Ns	(Q-Qo)/mA.h	<Ece>/V	|Ece|/V	Phase(Zce)/deg	|Zce|/Ohm	Re(Zce)/Ohm	-Im(Zce)/Ohm	Phase(Zwe-ce)/deg	|Zwe-ce|/Ohm	Re(Zwe-ce)/Ohm	-Im(Zwe-ce)/Ohm	Re(Y)/Ohm-1	Im(Y)/Ohm-1	|Y|/Ohm-1	Phase(Y)/deg	Re(C)/nF	Im(C)/nF	|C|/nF	Phase(C)/deg	Re(M)	Im(M)	|M|	Phase(M)/deg	Re(Permittivity)	Im(Permittivity)	|Permittivity|	Phase(Permittivity)/deg	Re(Resistivity)/Ohm.cm	Im(Resistivity)/Ohm.cm	|Resistivity|/Ohm.cm	Phase(Resistivity)/deg	Re(Conductivity)/mS/cm	Im(Conductivity)/mS/cm	|Conductivity|/mS/cm	Phase(Conductivity)/deg	Tan(Delta)	Loss Angle(Delta)/deg	dq/mA.h	Pwe/W	Pce/W	Pwe-ce/W	<Ewe-Ece>/V	Rwe/Ohm	Rce/Ohm	Rwe-ce/Ohm		Ewe-Ece/V
100004	0.919278	0.282558	0.961723	-17.0858	1.77957	0.212002	0.00418666	5.63244	0.486196	1	9	0.00564831	0.00587311	0	1.40029e-06	-4.14579e-05	3.42319e-05	58.4905	0.00582857	0.00304624	-0.00496917	-16.75	0.963192	0.922325	0.277589	0.993909	0.305497	1.0398	17.0858	486.196	1581.8	1654.83	-72.9142	0.0000000E+000	0.0000000E+000	0.0000000E+000	72.9142	0.0000000E+000	0.0000000E+000	0.0000000E+000	-72.9142	0.0000000E+000	0.0000000E+000	0.0000000E+000	-17.0858	0.0000000E+000	0.0000000E+000	0.0000000E+000	17.0858	3.25341	72.9142	1.40029e-06	8.87579e-07	-1.7357e-10	8.87753e-07	0.212043	50637.4	9.90237	50647.3
31621.1	1.15559	0.395118	1.22127	-18.8766	3.17655	0.211886	-0.0124596	12.7384	1.33335	1	9	0.00550016	0.00450364	0	-1.40806e-05	-6.05491e-05	5.48979e-06	37.0939	0.00121897	0.000972308	-0.000735188	-18.8292	1.22195	1.15656	0.394383	0.774781	0.264913	0.818819	18.8766	1333.35	3899.61	4121.26	-71.1235	0.0000000E+000	0.0000000E+000	0.0000000E+000	71.1235	0.0000000E+000	0.0000000E+000	0.0000000E+000	-71.1235	0.0000000E+000	0.0000000E+000	0.0000000E+000	-18.8766	0.0000000E+000	0.0000000E+000	0.0000000E+000	18.8766	2.92467	71.1235	2.70132e-06	-2.64001e-06	7.54416e-10	-2.64077e-06	0.211947	17005.9	4.85964	17010.7
10002.2	1.45665	0.551962	1.55772	-20.753	4.44952	0.211863	-0.0125713	28.828	3.61955	1	9	0.00545743	0.00350348	0	4.49284e-06	0.000302184	6.92026e-06	-112.459	0.00197526	-0.000754597	0.00182544	-20.8256	1.55766	1.45589	0.553788	0.600311	0.227474	0.641964	20.753	3619.55	9552.13	10214.9	-69.247	0.0000000E+000	0.0000000E+000	0.0000000E+000	69.247	0.0000000E+000	0.0000000E+000	0.0000000E+000	-69.247	0.0000000E+000	0.0000000E+000	0.0000000E+000	-20.753	0.0000000E+000	0.0000000E+000	0.0000000E+000	20.753	2.63904	69.247	3.49244e-06	-2.6634e-06	-3.79885e-09	-2.6596e-06	0.211561	16852.9	24.0376	16828.9
3163.08	1.88356	0.821374	2.05486	-23.5609	5.77662	0.211837	-0.0357717	61.2589	9.78786	1	9	0.0052475	0.0025537	0	3.67493e-06	0.000187637	8.68626e-06	6.30519	0.00340144	0.00338086	-0.000373561	-23.5137	2.05781	1.88694	0.821001	0.446083	0.194526	0.486652	23.5609	9787.86	22445.3	24486.6	-66.4391	0.0000000E+000	0.0000000E+000	0.0000000E+000	66.4391	0.0000000E+000	0.0000000E+000	0.0000000E+000	-66.4391	0.0000000E+000	0.0000000E+000	0.0000000E+000	-23.5609	0.0000000E+000	0.0000000E+000	0.0000000E+000	23.5609	2.29318	66.4391	-9.85523e-06	-7.57778e-06	-6.71209e-09	-7.57107e-06	0.211649	5921.91	5.24539	5916.67
1000.32	2.48545	1.33192	2.81984	-28.1863	7.34578	0.211864	-0.0163326	119.455	26.6509	1	9	0.00535438	0.00189883	0	-7.20769e-09	-3.27544e-06	8.63446e-06	-24.7103	0.00454726	0.00413088	0.00190089	-28.1807	2.82438	2.48958	1.33382	0.312577	0.167506	0.35463	28.1863	26650.9	49732.3	56423.1	-61.8137	0.0000000E+000	0.0000000E+000	0.0000000E+000	61.8137	0.0000000E+000	0.0000000E+000	0.0000000E+000	-61.8137	0.0000000E+000	0.0000000E+000	0.0000000E+000	-28.1863	0.0000000E+000	0.0000000E+000	0.0000000E+000	28.1863	1.86607	61.8137	-2.99738e-07	-3.46028e-06	5.34964e-11	-3.46033e-06	0.211867	12971.8	0.200546	12972
316.316	3.65476	2.37773	4.36015	-33.0475	8.94104	0.211866	-0.0128702	211.61	62.9303	1	10	0.00505605	0.00115961	0	-5.92877e-06	9.21806e-05	6.67146e-06	29.9559	0.00575321	0.00498464	-0.00287277	-32.9801	4.36276	3.65974	2.37486	0.192246	0.125072	0.22935	33.0475	62930.3	96728.7	115398	-56.9525	0.0000000E+000	0.0000000E+000	0.0000000E+000	56.9525	0.0000000E+000	0.0000000E+000	0.0000000E+000	-56.9525	0.0000000E+000	0.0000000E+000	0.0000000E+000	-33.0475	0.0000000E+000	0.0000000E+000	0.0000000E+000	33.0475	1.53708	56.9525	-2.19342e-06	-2.72676e-06	-1.18639e-09	-2.72558e-06	0.211774	16461.7	7.16232	16454.6
100.032	6.31887	3.09832	7.03759	-26.12	10.2888	0.211865	-0.0142107	513.517	99.5312	1	10	0.00490427	0.000696868	0	-1.01504e-05	0.000187637	6.04769e-06	-113.894	0.00867839	-0.00351521	0.00793459	-26.1906	7.03794	6.31536	3.10626	0.127583	0.0625573	0.142094	26.12	99531.2	202989	226077	-63.88	0.0000000E+000	0.0000000E+000	0.0000000E+000	63.88	0.0000000E+000	0.0000000E+000	0.0000000E+000	-63.88	0.0000000E+000	0.0000000E+000	0.0000000E+000	-26.12	0.0000000E+000	0.0000000E+000	0.0000000E+000	26.12	2.03945	63.88	-2.62352e-06	-3.01075e-06	-2.66645e-09	-3.00809e-06	0.211678	14908.9	13.2039	14895.7
[...]
1.00006	10.7256	0.88414	10.762	-4.71238	19.3216	0.211865	-0.0185455	179999	1214.86	1	11	0.00487737	0.000453203	0	-5.23928e-05	0.000225819	2.40587e-06	-11.832	0.0053086	0.00519581	0.00108849	-4.71588	10.7673	10.7308	0.885229	0.0926054	0.0076337	0.0929195	4.71238	1.21486e+06	1.47377e+07	1.47877e+07	-85.2876	0.0000000E+000	0.0000000E+000	0.0000000E+000	85.2876	0.0000000E+000	0.0000000E+000	0.0000000E+000	-85.2876	0.0000000E+000	0.0000000E+000	0.0000000E+000	-4.71238	0.0000000E+000	0.0000000E+000	0.0000000E+000	4.71238	12.1311	85.2876	-1.14651e-07	-3.92915e-06	-4.18793e-09	-3.92496e-06	0.21164	11424.1	12.1765	11411.9
0.316193	11.2504	1.32451	11.3281	-6.71452	33.6621	0.211862	-0.0161293	380026	5195.27	1	11	0.00487718	0.000430538	0	-7.59585e-05	0.000302184	2.50636e-06	9.51267	0.00582145	0.0057414	-0.000962087	-6.70629	11.3337	11.2562	1.32355	0.0876705	0.0103214	0.088276	6.71452	5.19527e+06	4.41287e+07	4.44335e+07	-83.2855	0.0000000E+000	0.0000000E+000	0.0000000E+000	83.2855	0.0000000E+000	0.0000000E+000	0.0000000E+000	-83.2855	0.0000000E+000	0.0000000E+000	0.0000000E+000	-6.71452	0.0000000E+000	0.0000000E+000	0.0000000E+000	6.71452	8.49402	83.2855	-2.58853e-05	-3.41719e-06	-4.87403e-09	-3.41232e-06	0.21156	13135.2	18.7351	13116.5
0.0999041	12.1174	2.72991	12.4211	-12.6961	78.8712	0.211866	-0.0244682	583564	28188	1	11	0.0048779	0.000392711	0	-0.000547921	0.00024491	2.19365e-06	11.6458	0.00558591	0.00547092	-0.00112758	-12.6855	12.4262	12.1229	2.72878	0.0785396	0.0176941	0.0805081	12.6961	2.8188e+07	1.2512e+08	1.28256e+08	-77.3039	0.0000000E+000	0.0000000E+000	0.0000000E+000	77.3039	0.0000000E+000	0.0000000E+000	0.0000000E+000	-77.3039	0.0000000E+000	0.0000000E+000	0.0000000E+000	-12.6961	0.0000000E+000	0.0000000E+000	0.0000000E+000	12.6961	4.43875	77.3039	-0.000242048	-5.18398e-06	-5.99251e-09	-5.17799e-06	0.211621	8658.83	10.0093	8648.82
0.0315922	14.1683	6.27817	15.497	-23.8988	221.755	0.211863	-0.0323834	802430	131698	1	11	0.00487529	0.000314596	0	-0.00153562	-0.000156005	1.51517e-06	-30.3306	0.00481624	0.00415702	0.00243215	-23.9008	15.5018	14.1725	6.2806	0.0589962	0.026142	0.0645287	23.8988	1.31698e+08	2.9721e+08	3.25082e+08	-66.1012	0.0000000E+000	0.0000000E+000	0.0000000E+000	66.1012	0.0000000E+000	0.0000000E+000	0.0000000E+000	-66.1012	0.0000000E+000	0.0000000E+000	0.0000000E+000	-23.8988	0.0000000E+000	0.0000000E+000	0.0000000E+000	23.8988	2.25676	66.1012	-0.00034479	-6.86085e-06	5.05198e-09	-6.8659e-06	0.212019	6542.32	4.81744	6547.14
0.0146812	17.2891	10.6324	20.2969	-31.5905	509.402	0.211863	-0.0339646	1.0196e+06	279790	1	12	0.00487478	0.000240174	0	-0.00352283	0.000149454	3.18327e-06	10.0015	0.013254	0.0130526	-0.00230187	-31.5657	20.3068	17.3022	10.6301	0.0419678	0.0258091	0.0492687	31.5905	2.7979e+08	4.54962e+08	5.3411e+08	-58.4095	0.0000000E+000	0.0000000E+000	0.0000000E+000	58.4095	0.0000000E+000	0.0000000E+000	0.0000000E+000	-58.4095	0.0000000E+000	0.0000000E+000	0.0000000E+000	-31.5905	0.0000000E+000	0.0000000E+000	0.0000000E+000	31.5905	1.62608	58.4095	-0.00104395	-7.19584e-06	-5.07616e-09	-7.19076e-06	0.211713	6237.74	4.40029	6233.34