Folder: EIS/txt (part 180)

File: 19320_R313_UC98_SOC50_C04.mpt
EC-Lab ASCII FILE
Nb header lines : 65

Potentio Electrochemical Impedance Spectroscopy

Run on channel : 4 (SN 66756)
User :
CE vs. WE compliance from -10 V to 10 V
Electrode connection : standard
Potential control : Ewe
Ewe ctrl range : min = -10.00 V, max = 10.00 V
Safety Limits :
	Do not start on E overload
Acquisition started on : 11/18/2025 16:32:44.421
Technique started on : 11/18/2025 16:32:46.655
Loaded Setting File :  C:\Users\Celltest\OneDrive - store-dot.com\Documents\EC-Lab\Data\txt_done\19191_R297_UC94_SOC50_C08.mpr
Saved on :
	File : 19320_R313_UC98_SOC50_C04.mpr
	Directory : C:\Users\Celltest\OneDrive - store-dot.com\Documents\EC-Lab\Data\Michael\
	Host : 169.254.61.224
Device : VMP-3e (SN .003165)
Address : USB
EC-LAB for windows v11.62 (software)
Internet server v27.00 (firmware)
Command interpretor v12.03 (firmware)
Electrode material :
Initial state :
Electrolyte :
Comments :
Electrode surface area : 0.001 cm²
Characteristic mass : 0.001 g
Equivalent Weight : 0.000 g/eq.
Density : 0.000 g/cm3
Volume (V) : 0.001 cm³
Record Ece
Cycle Definition : Charge/Discharge alternance
Mode                Multi sine
E (V)               0.0000
vs.                 Eoc
tE (h:m:s)          0:00:0.0000
record              0
dI                  0.000
unit dI             mA
dt (s)              0.000
fi                  1.000
unit fi             MHz
ff                  0.100
unit ff             mHz
Nd                  10
Points              per decade
spacing             Logarithmic
Va (mV)             5.0
pw                  0.10
Na                  2
corr                0
E range min (V)     -10.000
E range max (V)     10.000
I Range             Auto
Bandwidth           5
nc cycles           0
goto Ns'            0
nr cycles           0
inc. cycle          0

freq/Hz	Re(Z)/Ohm	-Im(Z)/Ohm	|Z|/Ohm	Phase(Z)/deg	time/s	<Ewe>/V	<I>/mA	Cs/µF	Cp/µF	cycle number	I Range	|Ewe|/V	|I|/A	Ns	(Q-Qo)/mA.h	<Ece>/V	|Ece|/V	Phase(Zce)/deg	|Zce|/Ohm	Re(Zce)/Ohm	-Im(Zce)/Ohm	Phase(Zwe-ce)/deg	|Zwe-ce|/Ohm	Re(Zwe-ce)/Ohm	-Im(Zwe-ce)/Ohm	Re(Y)/Ohm-1	Im(Y)/Ohm-1	|Y|/Ohm-1	Phase(Y)/deg	Re(C)/nF	Im(C)/nF	|C|/nF	Phase(C)/deg	Re(M)	Im(M)	|M|	Phase(M)/deg	Re(Permittivity)	Im(Permittivity)	|Permittivity|	Phase(Permittivity)/deg	Re(Resistivity)/Ohm.cm	Im(Resistivity)/Ohm.cm	|Resistivity|/Ohm.cm	Phase(Resistivity)/deg	Re(Conductivity)/mS/cm	Im(Conductivity)/mS/cm	|Conductivity|/mS/cm	Phase(Conductivity)/deg	Tan(Delta)	Loss Angle(Delta)/deg	dq/mA.h	Pwe/W	Pce/W	Pwe-ce/W	<Ewe-Ece>/V	Rwe/Ohm	Rce/Ohm	Rwe-ce/Ohm		Ewe-Ece/V
1.00002e+06	0.929294	-0.121457	0.937197	7.44626	2.23353	3.87656	0.177289	-1.31035	-0.0220076	1	9	0.000190277	0.000203027	0	3.14692e-06	-0.000216013	0.000189937	5.44461	0.935523	0.931303	-0.0887657	6.44633	1.87244	1.8606	-0.210223	1.05801	-0.138281	1.06701	-7.44626	-22.0076	168.385	169.817	-97.4463	0.0000000E+000	0.0000000E+000	0.0000000E+000	97.4463	0.0000000E+000	0.0000000E+000	0.0000000E+000	-97.4463	0.0000000E+000	0.0000000E+000	0.0000000E+000	7.44626	0.0000000E+000	0.0000000E+000	0.0000000E+000	-7.44626	7.6512	82.5537	3.14692e-06	0.00068727	-3.82966e-08	0.000687309	3.87678	21865.8	1.21842	21867
251206	0.677201	0.234303	0.716588	-19.085	4.53356	3.87518	-0.0769669	2.70403	0.289087	1	9	0.00183377	0.00255903	0	-1.41407e-05	-0.000120463	4.40665e-05	77.2457	0.01722	0.00380165	-0.0167951	-17.7132	0.714894	0.681002	0.217508	1.3188	0.456288	1.3955	19.085	289.087	835.541	884.138	-70.915	0.0000000E+000	0.0000000E+000	0.0000000E+000	70.915	0.0000000E+000	0.0000000E+000	0.0000000E+000	-70.915	0.0000000E+000	0.0000000E+000	0.0000000E+000	-19.085	0.0000000E+000	0.0000000E+000	0.0000000E+000	19.085	2.89027	70.915	-6.47313e-06	-0.000298261	9.27168e-09	-0.00029827	3.8753	50348.7	1.56513	50350.2
63093.8	1.03889	0.340898	1.09339	-18.1665	6.83153	3.87503	-0.0779739	7.3996	0.719291	1	9	0.00530124	0.00484842	0	-6.98872e-05	-0.000254233	1.66427e-05	89.6627	0.00343261	2.02101e-05	-0.00343255	-17.9951	1.09235	1.03891	0.337466	0.868995	0.285149	0.914583	18.1665	719.291	2192.05	2307.05	-71.8335	0.0000000E+000	0.0000000E+000	0.0000000E+000	71.8335	0.0000000E+000	0.0000000E+000	0.0000000E+000	-71.8335	0.0000000E+000	0.0000000E+000	0.0000000E+000	-18.1665	0.0000000E+000	0.0000000E+000	0.0000000E+000	18.1665	3.04752	71.8335	-3.58369e-06	-0.000302151	1.98235e-08	-0.000302171	3.87529	49696.5	3.26049	49699.8
15847.7	1.32026	0.397235	1.37873	-16.7453	9.12956	3.87505	-0.0591388	25.2817	2.09867	1	9	0.0051458	0.00373228	0	-9.53554e-05	-8.22432e-05	5.9802e-06	-102.059	0.00160229	-0.000334763	0.00156693	-16.8116	1.37886	1.31993	0.398802	0.694549	0.208973	0.725306	16.7453	2098.67	6975.21	7284.09	-73.2547	0.0000000E+000	0.0000000E+000	0.0000000E+000	73.2547	0.0000000E+000	0.0000000E+000	0.0000000E+000	-73.2547	0.0000000E+000	0.0000000E+000	0.0000000E+000	-16.7453	0.0000000E+000	0.0000000E+000	0.0000000E+000	16.7453	3.32363	73.2547	-5.74799e-06	-0.000229166	4.86376e-09	-0.000229171	3.87514	65524.7	1.39068	65526.1
3983.6	1.6793	0.590537	1.78011	-19.3745	10.8541	3.87493	-0.151673	67.6546	7.44557	1	9	0.00525696	0.00295317	0	-0.000131798	-4.40233e-05	8.15865e-06	-89.3706	0.00276268	3.03473e-05	0.00276251	-19.4581	1.78106	1.67933	0.593299	0.529951	0.18636	0.561763	19.3745	7445.57	21172.9	22443.9	-70.6255	0.0000000E+000	0.0000000E+000	0.0000000E+000	70.6255	0.0000000E+000	0.0000000E+000	0.0000000E+000	-70.6255	0.0000000E+000	0.0000000E+000	0.0000000E+000	-19.3745	0.0000000E+000	0.0000000E+000	0.0000000E+000	19.3745	2.84369	70.6255	-1.30343e-05	-0.000587724	6.67716e-09	-0.000587731	3.87498	25547.9	0.29025	25548.2
1000.32	2.27903	1.01531	2.49496	-24.013	13.4828	3.87492	-0.114376	156.705	25.9508	1	9	0.00504942	0.00202384	0	-0.000212677	-4.40233e-05	1.15051e-05	-17.3235	0.00568476	0.0054269	0.00169273	-23.9978	2.50061	2.28446	1.017	0.366119	0.163106	0.400808	24.013	25950.8	58251	63770.1	-65.987	0.0000000E+000	0.0000000E+000	0.0000000E+000	65.987	0.0000000E+000	0.0000000E+000	0.0000000E+000	-65.987	0.0000000E+000	0.0000000E+000	0.0000000E+000	-24.013	0.0000000E+000	0.0000000E+000	0.0000000E+000	24.013	2.24467	65.987	-1.12011e-05	-0.000443199	5.03521e-09	-0.000443204	3.87497	33878.8	0.384899	33879.2
251.044	3.59666	1.54804	3.91566	-23.2876	16.429	3.87495	-0.0691411	409.531	64.0092	1	10	0.00502348	0.00128292	0	-0.000282074	1.33066e-05	8.75081e-06	-75.2167	0.00682101	0.00174047	0.00659522	-23.3661	3.91987	3.5984	1.55464	0.234579	0.100965	0.255385	23.2876	64009.2	148716	161907	-66.7124	0.0000000E+000	0.0000000E+000	0.0000000E+000	66.7124	0.0000000E+000	0.0000000E+000	0.0000000E+000	-66.7124	0.0000000E+000	0.0000000E+000	0.0000000E+000	-23.2876	0.0000000E+000	0.0000000E+000	0.0000000E+000	23.2876	2.32336	66.7124	-8.78229e-06	-0.000267918	-9.20032e-10	-0.000267917	3.87494	56044.1	0.192456	56043.9
[...]
0.0602816	6.77336	1.21243	6.88101	-10.1484	239.984	3.87496	-0.0418832	2.17761e+06	67606.1	1	11	0.00508261	0.000738642	0	-0.00638467	-0.000139573	6.72121e-07	31.6541	0.000909941	0.000774571	-0.000477527	-10.1434	6.88169	6.77413	1.21195	0.143054	0.0256065	0.145327	10.1484	6.76061e+07	3.77689e+08	3.83692e+08	-79.8516	0.0000000E+000	0.0000000E+000	0.0000000E+000	79.8516	0.0000000E+000	0.0000000E+000	0.0000000E+000	-79.8516	0.0000000E+000	0.0000000E+000	0.0000000E+000	-10.1484	0.0000000E+000	0.0000000E+000	0.0000000E+000	10.1484	5.58661	79.8516	0.000000000000000E+000	-0.000162296	5.84576e-09	-0.000162301	3.8751	92518.3	3.33244	92521.7
0.00796479	8.64004	2.50744	8.99653	-16.1834	20328.9	3.87496	-0.00129625	7.96921e+06	619052	1	11	0.00507532	0.000564142	0	-0.0712528	-0.000273343	5.16612e-07	-33.7007	0.000915748	0.000761854	0.000508106	-16.1851	8.9974	8.6408	2.50795	0.106749	0.03098	0.111154	16.1834	6.19052e+08	2.1331e+09	2.22112e+09	-73.8166	0.0000000E+000	0.0000000E+000	0.0000000E+000	73.8166	0.0000000E+000	0.0000000E+000	0.0000000E+000	-73.8166	0.0000000E+000	0.0000000E+000	0.0000000E+000	-16.1834	0.0000000E+000	0.0000000E+000	0.0000000E+000	16.1834	3.44576	73.8166	-0.0648681	-5.02292e-06	3.5432e-10	-5.02327e-06	3.87523	2.98936e+06	210.872	2.98957e+06
0.0019912	10.4373	4.0046	11.1792	-20.991	20328.9	3.87496	-0.00129625	1.99594e+07	2.56122e+06	1	11	0.00508807	0.000455139	0	-0.0712528	-0.000273343	4.02192e-07	41.8364	0.000883669	0.000658379	-0.000589412	-20.9869	11.1796	10.4379	4.00401	0.0835159	0.0320436	0.0894522	20.991	2.56122e+09	6.67537e+09	7.14985e+09	-69.009	0.0000000E+000	0.0000000E+000	0.0000000E+000	69.009	0.0000000E+000	0.0000000E+000	0.0000000E+000	-69.009	0.0000000E+000	0.0000000E+000	0.0000000E+000	-20.991	0.0000000E+000	0.0000000E+000	0.0000000E+000	20.991	2.60632	69.009	0.000000000000000E+000	-5.02292e-06	3.5432e-10	-5.02327e-06	3.87523	2.98936e+06	210.872	2.98957e+06
0.000497799	10.9504	10.4131	15.1111	-43.5593	20328.9	3.87496	-0.00129625	3.07033e+07	1.458e+07	1	11	0.00509165	0.000336948	0	-0.0712528	-0.000273343	1.30162e-06	-54.5742	0.00386297	0.00223916	0.0031478	-43.5621	15.1149	10.9527	10.4163	0.0479557	0.0456027	0.0661767	43.5593	1.458e+10	1.53323e+10	2.11578e+10	-46.4407	0.0000000E+000	0.0000000E+000	0.0000000E+000	46.4407	0.0000000E+000	0.0000000E+000	0.0000000E+000	-46.4407	0.0000000E+000	0.0000000E+000	0.0000000E+000	-43.5593	0.0000000E+000	0.0000000E+000	0.0000000E+000	43.5593	1.0516	46.4407	0.000000000000000E+000	-5.02292e-06	3.5432e-10	-5.02327e-06	3.87523	2.98936e+06	210.872	2.98957e+06
9.95598e-05	9.58521	70.8007	71.4466	-82.29	20328.9	3.87496	-0.00129625	2.25787e+07	2.21723e+07	1	11	0.0050913	7.12603e-05	0	-0.0712528	-0.000273343	5.46492e-06	94.2534	0.0766896	-0.00568793	-0.0764783	-82.2863	71.37	9.57952	70.7242	0.00187776	0.0138699	0.0139965	82.29	2.21723e+10	3.00175e+09	2.23746e+10	-7.71	0.0000000E+000	0.0000000E+000	0.0000000E+000	7.71	0.0000000E+000	0.0000000E+000	0.0000000E+000	-7.71	0.0000000E+000	0.0000000E+000	0.0000000E+000	-82.29	0.0000000E+000	0.0000000E+000	0.0000000E+000	82.29	0.135383	7.70999	0.000000000000000E+000	-5.02292e-06	3.5432e-10	-5.02327e-06	3.87523	2.98936e+06	210.872	2.98957e+06

File: 19321_R313_UC98_SOC50_C05.mpt
EC-Lab ASCII FILE
Nb header lines : 65

Potentio Electrochemical Impedance Spectroscopy

Run on channel : 5 (SN 65912)
User :
CE vs. WE compliance from -10 V to 10 V
Electrode connection : standard
Potential control : Ewe
Ewe ctrl range : min = -10.00 V, max = 10.00 V
Safety Limits :
	Do not start on E overload
Acquisition started on : 11/18/2025 16:33:09.639
Technique started on : 11/18/2025 16:33:10.525
Loaded Setting File :  C:\Users\Celltest\OneDrive - store-dot.com\Documents\EC-Lab\Data\txt_done\19191_R297_UC94_SOC50_C08.mpr
Saved on :
	File : 19321_R313_UC98_SOC50_C05.mpr
	Directory : C:\Users\Celltest\OneDrive - store-dot.com\Documents\EC-Lab\Data\Michael\
	Host : 169.254.61.224
Device : VMP-3e (SN .003165)
Address : USB
EC-LAB for windows v11.62 (software)
Internet server v27.00 (firmware)
Command interpretor v12.03 (firmware)
Electrode material :
Initial state :
Electrolyte :
Comments :
Electrode surface area : 0.001 cm²
Characteristic mass : 0.001 g
Equivalent Weight : 0.000 g/eq.
Density : 0.000 g/cm3
Volume (V) : 0.001 cm³
Record Ece
Cycle Definition : Charge/Discharge alternance
Mode                Multi sine
E (V)               0.0000
vs.                 Eoc
tE (h:m:s)          0:00:0.0000
record              0
dI                  0.000
unit dI             mA
dt (s)              0.000
fi                  1.000
unit fi             MHz
ff                  0.100
unit ff             mHz
Nd                  10
Points              per decade
spacing             Logarithmic
Va (mV)             5.0
pw                  0.10
Na                  2
corr                0
E range min (V)     -10.000
E range max (V)     10.000
I Range             Auto
Bandwidth           5
nc cycles           0
goto Ns'            0
nr cycles           0
inc. cycle          0

freq/Hz	Re(Z)/Ohm	-Im(Z)/Ohm	|Z|/Ohm	Phase(Z)/deg	time/s	<Ewe>/V	<I>/mA	Cs/µF	Cp/µF	cycle number	I Range	|Ewe|/V	|I|/A	Ns	(Q-Qo)/mA.h	<Ece>/V	|Ece|/V	Phase(Zce)/deg	|Zce|/Ohm	Re(Zce)/Ohm	-Im(Zce)/Ohm	Phase(Zwe-ce)/deg	|Zwe-ce|/Ohm	Re(Zwe-ce)/Ohm	-Im(Zwe-ce)/Ohm	Re(Y)/Ohm-1	Im(Y)/Ohm-1	|Y|/Ohm-1	Phase(Y)/deg	Re(C)/nF	Im(C)/nF	|C|/nF	Phase(C)/deg	Re(M)	Im(M)	|M|	Phase(M)/deg	Re(Permittivity)	Im(Permittivity)	|Permittivity|	Phase(Permittivity)/deg	Re(Resistivity)/Ohm.cm	Im(Resistivity)/Ohm.cm	|Resistivity|/Ohm.cm	Phase(Resistivity)/deg	Re(Conductivity)/mS/cm	Im(Conductivity)/mS/cm	|Conductivity|/mS/cm	Phase(Conductivity)/deg	Tan(Delta)	Loss Angle(Delta)/deg	dq/mA.h	Pwe/W	Pce/W	Pwe-ce/W	<Ewe-Ece>/V	Rwe/Ohm	Rce/Ohm	Rwe-ce/Ohm		Ewe-Ece/V
1.00002e+06	-67.6433	-357.159	363.508	100.724	0.88553	3.87553	-0.0771111	-0.000445606	-0.000430175	1	12	0.000169932	4.67478e-07	0	-7.71296e-06	-0.000181206	0.000174195	96.8113	372.626	-44.1934	-369.996	98.7436	735.705	-111.837	-727.155	-0.000511913	-0.00270292	0.00275097	-100.724	-0.430175	-0.081472	0.437822	169.276	0.0000000E+000	0.0000000E+000	0.0000000E+000	-169.276	0.0000000E+000	0.0000000E+000	0.0000000E+000	169.276	0.0000000E+000	0.0000000E+000	0.0000000E+000	100.724	0.0000000E+000	0.0000000E+000	0.0000000E+000	-100.724	0.189393	10.7244	-7.71296e-06	-0.000298847	1.3973e-08	-0.000298861	3.87571	50259.1	2.34993	50261.4
251206	0.69551	0.259669	0.742403	-20.4731	4.52255	3.87586	-0.0174497	2.43989	0.29849	1	9	0.0020291	0.00273315	0	9.88876e-06	0.000238801	5.05236e-05	100.001	0.0184855	-0.0032103	-0.0182046	-19.228	0.733201	0.692299	0.241464	1.2619	0.47113	1.34698	20.4731	298.491	799.492	853.395	-69.5269	0.0000000E+000	0.0000000E+000	0.0000000E+000	69.5269	0.0000000E+000	0.0000000E+000	0.0000000E+000	-69.5269	0.0000000E+000	0.0000000E+000	0.0000000E+000	-20.4731	0.0000000E+000	0.0000000E+000	0.0000000E+000	20.4731	2.67845	69.5269	1.43363e-06	-6.76328e-05	-4.16702e-09	-6.76286e-05	3.87562	222115	13.6851	222102
63093.8	1.12397	0.42883	1.203	-20.8834	6.82453	3.8756	-0.0430707	5.88231	0.747462	1	9	0.00535295	0.00444968	0	-1.71478e-05	-0.000181206	2.51685e-05	81.2017	0.00565625	0.000865164	-0.00558969	-20.6198	1.20183	1.12484	0.423241	0.776649	0.296316	0.831257	20.8834	747.461	1959.11	2096.85	-69.1166	0.0000000E+000	0.0000000E+000	0.0000000E+000	69.1166	0.0000000E+000	0.0000000E+000	0.0000000E+000	-69.1166	0.0000000E+000	0.0000000E+000	0.0000000E+000	-20.8834	0.0000000E+000	0.0000000E+000	0.0000000E+000	20.8834	2.62101	69.1166	1.13454e-06	-0.000166925	7.80465e-09	-0.000166932	3.87578	89982.2	4.20717	89986.4
15847.7	1.50352	0.424259	1.56223	-15.7579	8.99854	3.87557	-0.0413205	23.6714	1.7458	1	9	0.00474271	0.00303585	0	-3.51522e-05	0.000162436	9.54529e-06	-1.58369	0.00314419	0.00314299	8.68959e-05	-15.7297	1.56528	1.50666	0.424346	0.616054	0.173836	0.64011	15.7579	1745.8	6186.9	6428.49	-74.2421	0.0000000E+000	0.0000000E+000	0.0000000E+000	74.2421	0.0000000E+000	0.0000000E+000	0.0000000E+000	-74.2421	0.0000000E+000	0.0000000E+000	0.0000000E+000	-15.7579	0.0000000E+000	0.0000000E+000	0.0000000E+000	15.7579	3.54387	74.2421	-2.67377e-06	-0.00016014	-6.71194e-09	-0.000160134	3.87541	93793.1	3.93113	93789.1
3983.6	1.84345	0.530305	1.91821	-16.049	10.845	3.87541	-0.135835	75.3388	5.75809	1	9	0.00490865	0.00255898	0	-5.89977e-05	0.000143345	6.90866e-06	-13.5094	0.00269977	0.00262508	0.00063068	-16.0454	1.92091	1.84607	0.530936	0.501002	0.144123	0.52132	16.049	5758.09	20016.3	20828	-73.951	0.0000000E+000	0.0000000E+000	0.0000000E+000	73.951	0.0000000E+000	0.0000000E+000	0.0000000E+000	-73.951	0.0000000E+000	0.0000000E+000	0.0000000E+000	-16.049	0.0000000E+000	0.0000000E+000	0.0000000E+000	16.049	3.4762	73.951	-8.27585e-06	-0.000526417	-1.94713e-08	-0.000526397	3.87527	28530.2	1.05529	28529.2
1000.32	2.32446	0.921713	2.50053	-21.6298	13.4738	3.87551	-0.0181201	172.618	23.4538	1	9	0.00477432	0.00190932	0	-8.46024e-05	-0.000333935	5.77088e-06	152.429	0.00302248	-0.00267922	-0.00139897	-21.6226	2.49752	2.32178	0.920314	0.371755	0.147412	0.399915	21.6298	23453.8	59147.8	63628.1	-68.3702	0.0000000E+000	0.0000000E+000	0.0000000E+000	68.3702	0.0000000E+000	0.0000000E+000	0.0000000E+000	-68.3702	0.0000000E+000	0.0000000E+000	0.0000000E+000	-21.6298	0.0000000E+000	0.0000000E+000	0.0000000E+000	21.6298	2.52188	68.3702	-4.58252e-06	-7.02245e-05	6.05094e-09	-7.02306e-05	3.87584	213879	18.429	213897
251.044	3.52986	1.54512	3.85322	-23.6404	16.421	3.8755	-0.059774	410.306	65.9758	1	10	0.00477586	0.00123945	0	-0.00011958	0.000143345	2.493e-06	83.7038	0.00201139	0.000220584	-0.00199925	-23.6118	3.85262	3.53008	1.54312	0.237744	0.104067	0.259523	23.6404	65975.8	150723	164530	-66.3596	0.0000000E+000	0.0000000E+000	0.0000000E+000	66.3596	0.0000000E+000	0.0000000E+000	0.0000000E+000	-66.3596	0.0000000E+000	0.0000000E+000	0.0000000E+000	-23.6404	0.0000000E+000	0.0000000E+000	0.0000000E+000	23.6404	2.28452	66.3596	-7.23935e-06	-0.000231654	-8.56831e-09	-0.000231646	3.87535	64835.8	2.39812	64833.4
[...]
0.0602816	6.87251	1.14679	6.96753	-9.47346	239.973	3.8755	-0.0335911	2.30224e+06	62367.9	1	11	0.00509452	0.000731179	0	-0.0055557	-0.000162114	8.70272e-07	-32.0873	0.00119023	0.00100841	0.000632264	-9.47722	6.96863	6.87352	1.14742	0.141565	0.0236225	0.143523	9.47346	6.23679e+07	3.7376e+08	3.78927e+08	-80.5265	0.0000000E+000	0.0000000E+000	0.0000000E+000	80.5265	0.0000000E+000	0.0000000E+000	0.0000000E+000	-80.5265	0.0000000E+000	0.0000000E+000	0.0000000E+000	-9.47346	0.0000000E+000	0.0000000E+000	0.0000000E+000	9.47346	5.99282	80.5265	0.000000000000000E+000	-0.000130182	5.4456e-09	-0.000130188	3.87566	115373	4.82611	115378
0.00796479	8.61937	2.31001	8.92355	-15.0029	20328.9	3.87552	-0.00161753	8.6503e+06	579676	1	11	0.00508803	0.00057018	0	-0.0752399	4.7889e-05	1.33889e-07	48.5423	0.000234819	0.000155466	-0.000175984	-15.0015	8.92365	8.61952	2.30984	0.108243	0.0290095	0.112063	15.0029	5.79676e+08	2.16295e+09	2.23928e+09	-74.9971	0.0000000E+000	0.0000000E+000	0.0000000E+000	74.9971	0.0000000E+000	0.0000000E+000	0.0000000E+000	-74.9971	0.0000000E+000	0.0000000E+000	0.0000000E+000	-15.0029	0.0000000E+000	0.0000000E+000	0.0000000E+000	15.0029	3.73131	74.9971	-0.0696842	-6.26876e-06	-7.74617e-11	-6.26868e-06	3.87548	2.39596e+06	29.6063	2.39593e+06
0.0019912	10.1648	3.88818	10.8831	-20.9325	20328.9	3.87552	-0.00161753	2.0557e+07	2.6239e+06	1	11	0.00510061	0.000468673	0	-0.0752399	4.7889e-05	6.78168e-07	-52.2916	0.001447	0.000885046	0.00114477	-20.9365	10.8843	10.1657	3.88933	0.0858213	0.0328278	0.0918856	20.9325	2.6239e+09	6.85964e+09	7.34435e+09	-69.0675	0.0000000E+000	0.0000000E+000	0.0000000E+000	69.0675	0.0000000E+000	0.0000000E+000	0.0000000E+000	-69.0675	0.0000000E+000	0.0000000E+000	0.0000000E+000	-20.9325	0.0000000E+000	0.0000000E+000	0.0000000E+000	20.9325	2.61429	69.0675	0.000000000000000E+000	-6.26876e-06	-7.74617e-11	-6.26868e-06	3.87548	2.39596e+06	29.6063	2.39593e+06
0.000497799	10.617	10.7118	15.0819	-45.2547	20328.9	3.87552	-0.00161753	2.98471e+07	1.50563e+07	1	11	0.00510113	0.000338228	0	-0.0752399	4.7889e-05	3.89082e-07	-124.688	0.00115035	-0.000654672	0.000945894	-45.259	15.0821	10.6163	10.7128	0.0466755	0.0470924	0.0663046	45.2547	1.50563e+10	1.4923e+10	2.11987e+10	-44.7453	0.0000000E+000	0.0000000E+000	0.0000000E+000	44.7453	0.0000000E+000	0.0000000E+000	0.0000000E+000	-44.7453	0.0000000E+000	0.0000000E+000	0.0000000E+000	-45.2547	0.0000000E+000	0.0000000E+000	0.0000000E+000	45.2547	0.991147	44.7453	0.000000000000000E+000	-6.26876e-06	-7.74617e-11	-6.26868e-06	3.87548	2.39596e+06	29.6063	2.39593e+06
9.95598e-05	7.3221	75.412	75.7666	-84.4543	20328.9	3.87552	-0.00161753	2.1198e+07	2.10001e+07	1	11	0.00509763	6.72806e-05	0	-0.0752399	4.7889e-05	1.54146e-06	70.7399	0.0229109	0.00755731	-0.0216286	-84.447	75.7458	7.32966	75.3904	0.0012755	0.0131366	0.0131984	84.4543	2.10001e+10	2.03899e+09	2.10988e+10	-5.54573	0.0000000E+000	0.0000000E+000	0.0000000E+000	5.54573	0.0000000E+000	0.0000000E+000	0.0000000E+000	-5.54573	0.0000000E+000	0.0000000E+000	0.0000000E+000	-84.4543	0.0000000E+000	0.0000000E+000	0.0000000E+000	84.4543	0.0970946	5.54573	0.000000000000000E+000	-6.26876e-06	-7.74617e-11	-6.26868e-06	3.87548	2.39596e+06	29.6063	2.39593e+06