Folder: EIS/txt (part 90)

File: 18444_R297_UC61_11mm_SOC50_C04.mpt
EC-Lab ASCII FILE
Nb header lines : 65

Potentio Electrochemical Impedance Spectroscopy

Run on channel : 4 (SN 66756)
User :
CE vs. WE compliance from -10 V to 10 V
Electrode connection : standard
Potential control : Ewe
Ewe ctrl range : min = -10.00 V, max = 10.00 V
Safety Limits :
	Do not start on E overload
Acquisition started on : 10/16/2025 15:32:35.564
Technique started on : 10/16/2025 15:32:38.259
Loaded Setting File :  C:\Users\Celltest\OneDrive - store-dot.com\Documents\EC-Lab\Data\txt_done\UC80_17231_EIS_50SOC.mps
Saved on :
	File : 18444_R297_UC61_11mm_SOC50_C04.mpr
	Directory : C:\Users\Celltest\OneDrive - store-dot.com\Documents\EC-Lab\Data\Michael\
	Host : 169.254.61.224
Device : VMP-3e (SN .003165)
Address : USB
EC-LAB for windows v11.62 (software)
Internet server v27.00 (firmware)
Command interpretor v12.03 (firmware)
Electrode material :
Initial state :
Electrolyte :
Comments :
Electrode surface area : 0.001 cm²
Characteristic mass : 0.001 g
Equivalent Weight : 0.000 g/eq.
Density : 0.000 g/cm3
Volume (V) : 0.001 cm³
Record Ece
Cycle Definition : Charge/Discharge alternance
Mode                Multi sine
E (V)               0.0000
vs.                 Eoc
tE (h:m:s)          0:00:0.0000
record              0
dI                  0.000
unit dI             mA
dt (s)              0.000
fi                  1.000
unit fi             MHz
ff                  0.100
unit ff             mHz
Nd                  10
Points              per decade
spacing             Logarithmic
Va (mV)             5.0
pw                  0.10
Na                  2
corr                0
E range min (V)     -10.000
E range max (V)     10.000
I Range             Auto
Bandwidth           5
nc cycles           0
goto Ns'            0
nr cycles           0
inc. cycle          0

freq/Hz	Re(Z)/Ohm	-Im(Z)/Ohm	|Z|/Ohm	Phase(Z)/deg	time/s	<Ewe>/V	<I>/mA	Cs/µF	Cp/µF	cycle number	I Range	|Ewe|/V	|I|/A	Ns	(Q-Qo)/mA.h	<Ece>/V	|Ece|/V	Phase(Zce)/deg	|Zce|/Ohm	Re(Zce)/Ohm	-Im(Zce)/Ohm	Phase(Zwe-ce)/deg	|Zwe-ce|/Ohm	Re(Zwe-ce)/Ohm	-Im(Zwe-ce)/Ohm	Re(Y)/Ohm-1	Im(Y)/Ohm-1	|Y|/Ohm-1	Phase(Y)/deg	Re(C)/nF	Im(C)/nF	|C|/nF	Phase(C)/deg	Re(M)	Im(M)	|M|	Phase(M)/deg	Re(Permittivity)	Im(Permittivity)	|Permittivity|	Phase(Permittivity)/deg	Re(Resistivity)/Ohm.cm	Im(Resistivity)/Ohm.cm	|Resistivity|/Ohm.cm	Phase(Resistivity)/deg	Re(Conductivity)/mS/cm	Im(Conductivity)/mS/cm	|Conductivity|/mS/cm	Phase(Conductivity)/deg	Tan(Delta)	Loss Angle(Delta)/deg	dq/mA.h	Pwe/W	Pce/W	Pwe-ce/W	<Ewe-Ece>/V	Rwe/Ohm	Rce/Ohm	Rwe-ce/Ohm		Ewe-Ece/V
1.00002e+06	0.933909	-0.0811225	0.937425	4.96444	2.69456	3.82488	0.0220573	-1.96187	-0.014692	1	9	0.000195171	0.000208199	0	2.65696e-05	3.60827e-06	0.00018183	4.5145	0.873347	0.870637	-0.0687423	4.74743	1.81076	1.80455	-0.149865	1.06275	-0.092314	1.06675	-4.96444	-14.692	169.139	169.776	-94.9644	0.0000000E+000	0.0000000E+000	0.0000000E+000	94.9644	0.0000000E+000	0.0000000E+000	0.0000000E+000	-94.9644	0.0000000E+000	0.0000000E+000	0.0000000E+000	4.96444	0.0000000E+000	0.0000000E+000	0.0000000E+000	-4.96444	11.5123	85.0356	2.65696e-05	8.43667e-05	7.95888e-11	8.43666e-05	3.82488	173406	0.163586	173406
251206	0.684822	0.197416	0.712709	-16.0809	4.99252	3.82347	-0.0420567	3.20928	0.246234	1	9	0.00176948	0.00248275	0	8.93143e-06	-0.000187491	3.97462e-05	75.4071	0.0160089	0.00403343	-0.0154925	-14.7938	0.712473	0.688855	0.181923	1.3482	0.388649	1.4031	16.0809	246.234	854.167	888.95	-73.9191	0.0000000E+000	0.0000000E+000	0.0000000E+000	73.9191	0.0000000E+000	0.0000000E+000	0.0000000E+000	-73.9191	0.0000000E+000	0.0000000E+000	0.0000000E+000	-16.0809	0.0000000E+000	0.0000000E+000	0.0000000E+000	16.0809	3.46893	73.9191	-4.21101e-06	-0.000160802	7.88526e-09	-0.00016081	3.82366	90912.3	4.45806	90916.8
63093.8	0.992613	0.533803	1.12704	-28.2703	7.29255	3.82338	-0.0327695	4.72555	1.06007	1	9	0.00533607	0.00473458	0	1.36024e-05	0.000156488	1.78514e-05	84.6564	0.00377043	0.00035113	-0.00375404	-28.0935	1.12558	0.992964	0.530049	0.781446	0.420243	0.887278	28.2703	1060.07	1971.21	2238.17	-61.7297	0.0000000E+000	0.0000000E+000	0.0000000E+000	61.7297	0.0000000E+000	0.0000000E+000	0.0000000E+000	-61.7297	0.0000000E+000	0.0000000E+000	0.0000000E+000	-28.2703	0.0000000E+000	0.0000000E+000	0.0000000E+000	28.2703	1.85951	61.7297	6.73101e-07	-0.00012529	-5.12804e-09	-0.000125285	3.82322	116675	4.77541	116670
15847.7	1.57226	0.98452	1.85507	-32.0541	9.59453	3.82338	-0.020275	10.2007	2.87316	1	9	0.0045233	0.00243835	0	3.28867e-06	0.000156488	9.00396e-06	-130.515	0.00369265	-0.00239892	0.00280728	-32.1669	1.85453	1.56986	0.987327	0.456882	0.286092	0.539064	32.0541	2873.16	4588.37	5413.71	-57.9459	0.0000000E+000	0.0000000E+000	0.0000000E+000	57.9459	0.0000000E+000	0.0000000E+000	0.0000000E+000	-57.9459	0.0000000E+000	0.0000000E+000	0.0000000E+000	-32.0541	0.0000000E+000	0.0000000E+000	0.0000000E+000	32.0541	1.59698	57.9459	1.33917e-06	-7.75191e-05	-3.1728e-09	-7.7516e-05	3.82322	188576	7.71825	188568
3983.6	2.56028	1.67243	3.05811	-33.1534	11.5671	3.82322	-0.0736475	23.8889	7.14471	1	9	0.00482433	0.00157755	0	-9.83177e-06	-0.000397701	9.61611e-06	-37.8727	0.00609559	0.00481172	0.00374214	-33.1628	3.06419	2.56509	1.67617	0.273767	0.17883	0.326999	33.1534	7144.71	10937.7	13064.4	-56.8466	0.0000000E+000	0.0000000E+000	0.0000000E+000	56.8466	0.0000000E+000	0.0000000E+000	0.0000000E+000	-56.8466	0.0000000E+000	0.0000000E+000	0.0000000E+000	-33.1534	0.0000000E+000	0.0000000E+000	0.0000000E+000	33.1534	1.53088	56.8466	-5.43444e-06	-0.000281571	2.92897e-08	-0.0002816	3.82362	51912.4	5.40006	51917.8
1000.32	4.39397	2.96041	5.2982	-33.9699	14.4408	3.82325	-0.0135465	53.744	16.7794	1	10	0.00472164	0.000891179	0	-3.13912e-05	-0.000130161	6.09973e-06	-31.848	0.00684457	0.00581412	0.00361166	-33.9671	5.30504	4.39978	2.96402	0.156531	0.105462	0.188743	33.9699	16779.4	24904.7	30029.8	-56.0301	0.0000000E+000	0.0000000E+000	0.0000000E+000	56.0301	0.0000000E+000	0.0000000E+000	0.0000000E+000	-56.0301	0.0000000E+000	0.0000000E+000	0.0000000E+000	-33.9699	0.0000000E+000	0.0000000E+000	0.0000000E+000	33.9699	1.48424	56.0302	-2.89107e-06	-5.17917e-05	1.76323e-09	-5.17934e-05	3.82338	282232	9.60849	282241
251.044	8.19841	4.15402	9.19075	-26.8707	17.141	3.82328	-0.0539108	152.616	31.1772	1	10	0.00462555	0.000503284	0	-4.49006e-05	6.09381e-05	1.24481e-05	57.415	0.0247337	0.0133204	-0.0208405	-26.7173	9.19324	8.21173	4.13318	0.0970572	0.0491776	0.108805	26.8707	31177.2	61531.5	68979.3	-63.1293	0.0000000E+000	0.0000000E+000	0.0000000E+000	63.1293	0.0000000E+000	0.0000000E+000	0.0000000E+000	-63.1293	0.0000000E+000	0.0000000E+000	0.0000000E+000	-26.8707	0.0000000E+000	0.0000000E+000	0.0000000E+000	26.8707	1.97361	63.1293	-4.15245e-06	-0.000206116	-3.28522e-09	-0.000206112	3.82322	70918.6	1.13035	70917.5
[...]
0.0602816	16.2575	2.5785	16.4607	-9.01225	240.533	3.82327	-0.00363512	1.02392e+06	25124.9	1	11	0.00508036	0.000308635	0	-0.0014513	-5.37216e-05	5.11539e-07	-24.2101	0.00165742	0.00151165	0.000679684	-9.01376	16.4623	16.259	2.57918	0.0600006	0.00951631	0.0607506	9.01225	2.51249e+07	1.58413e+08	1.60393e+08	-80.9878	0.0000000E+000	0.0000000E+000	0.0000000E+000	80.9878	0.0000000E+000	0.0000000E+000	0.0000000E+000	-80.9878	0.0000000E+000	0.0000000E+000	0.0000000E+000	-9.01225	0.0000000E+000	0.0000000E+000	0.0000000E+000	9.01225	6.30503	80.9878	0.000000000000000E+000	-1.3898e-05	1.95284e-10	-1.38982e-05	3.82333	1.05176e+06	14.7785	1.05178e+06
0.00796479	21.4786	4.3683	21.9183	-11.496	20329.4	3.82327	-0.00153611	4.57439e+06	181696	1	11	0.005072	0.000231405	0	-0.0273626	-0.000187491	6.65089e-07	7.81247	0.00287413	0.00284746	-0.000390684	-11.4935	21.921	21.4814	4.36791	0.0447087	0.00909284	0.045624	11.496	1.81696e+08	8.93384e+08	9.11674e+08	-78.504	0.0000000E+000	0.0000000E+000	0.0000000E+000	78.504	0.0000000E+000	0.0000000E+000	0.0000000E+000	-78.504	0.0000000E+000	0.0000000E+000	0.0000000E+000	-11.496	0.0000000E+000	0.0000000E+000	0.0000000E+000	11.496	4.91692	78.504	-0.0259113	-5.87298e-06	2.88008e-10	-5.87327e-06	3.82346	2.48893e+06	122.056	2.48905e+06
0.0019912	24.6773	6.93448	25.6331	-15.6957	20329.4	3.82327	-0.00153611	1.15264e+07	843566	1	11	0.00508695	0.000198453	0	-0.0273626	-0.000187491	7.32697e-07	4.96163	0.00369205	0.00367821	-0.00031932	-15.6928	25.6365	24.6809	6.93416	0.0375574	0.0105539	0.0390121	15.6957	8.43566e+08	3.00194e+09	3.11821e+09	-74.3043	0.0000000E+000	0.0000000E+000	0.0000000E+000	74.3043	0.0000000E+000	0.0000000E+000	0.0000000E+000	-74.3043	0.0000000E+000	0.0000000E+000	0.0000000E+000	-15.6957	0.0000000E+000	0.0000000E+000	0.0000000E+000	15.6957	3.55863	74.3043	0.000000000000000E+000	-5.87298e-06	2.88008e-10	-5.87327e-06	3.82346	2.48893e+06	122.056	2.48905e+06
0.000497799	26.1184	17.8817	31.6532	-34.3972	20329.4	3.82327	-0.00153611	1.78795e+07	5.7061e+06	1	11	0.00508632	0.000160689	0	-0.0273626	-0.000187491	1.18813e-06	-27.2647	0.00739399	0.00657251	0.0033872	-34.3955	31.6606	26.125	17.8851	0.0260682	0.0178473	0.0315923	34.3972	5.7061e+09	8.33444e+09	1.01006e+10	-55.6028	0.0000000E+000	0.0000000E+000	0.0000000E+000	55.6028	0.0000000E+000	0.0000000E+000	0.0000000E+000	-55.6028	0.0000000E+000	0.0000000E+000	0.0000000E+000	-34.3972	0.0000000E+000	0.0000000E+000	0.0000000E+000	34.3972	1.46062	55.6028	0.000000000000000E+000	-5.87298e-06	2.88008e-10	-5.87327e-06	3.82346	2.48893e+06	122.056	2.48905e+06
9.95598e-05	33.8179	93.1759	99.1232	-70.0518	20329.5	3.82327	-0.00153611	1.71566e+07	1.51597e+07	1	11	0.00508929	5.13431e-05	0	-0.0273626	-0.000187491	5.60442e-06	7.4728	0.109156	0.108229	-0.0141964	-69.9902	99.1468	33.9262	93.1617	0.00344189	0.00948316	0.0100885	70.0518	1.51596e+10	5.50215e+09	1.61273e+10	-19.9482	0.0000000E+000	0.0000000E+000	0.0000000E+000	19.9482	0.0000000E+000	0.0000000E+000	0.0000000E+000	-19.9482	0.0000000E+000	0.0000000E+000	0.0000000E+000	-70.0518	0.0000000E+000	0.0000000E+000	0.0000000E+000	70.0518	0.362947	19.9482	0.000000000000000E+000	-5.87298e-06	2.88008e-10	-5.87327e-06	3.82346	2.48893e+06	122.056	2.48905e+06

File: 18445_R297_UC61_11mm_SOC50_C05.mpt
EC-Lab ASCII FILE
Nb header lines : 65

Potentio Electrochemical Impedance Spectroscopy

Run on channel : 5 (SN 65912)
User :
CE vs. WE compliance from -10 V to 10 V
Electrode connection : standard
Potential control : Ewe
Ewe ctrl range : min = -10.00 V, max = 10.00 V
Safety Limits :
	Do not start on E overload
Acquisition started on : 10/16/2025 15:32:51.809
Technique started on : 10/16/2025 15:32:54.504
Loaded Setting File :  C:\Users\Celltest\OneDrive - store-dot.com\Documents\EC-Lab\Data\txt_done\UC80_17231_EIS_50SOC.mps
Saved on :
	File : 18445_R297_UC61_11mm_SOC50_C05.mpr
	Directory : C:\Users\Celltest\OneDrive - store-dot.com\Documents\EC-Lab\Data\Michael\
	Host : 169.254.61.224
Device : VMP-3e (SN .003165)
Address : USB
EC-LAB for windows v11.62 (software)
Internet server v27.00 (firmware)
Command interpretor v12.03 (firmware)
Electrode material :
Initial state :
Electrolyte :
Comments :
Electrode surface area : 0.001 cm²
Characteristic mass : 0.001 g
Equivalent Weight : 0.000 g/eq.
Density : 0.000 g/cm3
Volume (V) : 0.001 cm³
Record Ece
Cycle Definition : Charge/Discharge alternance
Mode                Multi sine
E (V)               0.0000
vs.                 Eoc
tE (h:m:s)          0:00:0.0000
record              0
dI                  0.000
unit dI             mA
dt (s)              0.000
fi                  1.000
unit fi             MHz
ff                  0.100
unit ff             mHz
Nd                  10
Points              per decade
spacing             Logarithmic
Va (mV)             5.0
pw                  0.10
Na                  2
corr                0
E range min (V)     -10.000
E range max (V)     10.000
I Range             Auto
Bandwidth           5
nc cycles           0
goto Ns'            0
nr cycles           0
inc. cycle          0

freq/Hz	Re(Z)/Ohm	-Im(Z)/Ohm	|Z|/Ohm	Phase(Z)/deg	time/s	<Ewe>/V	<I>/mA	Cs/µF	Cp/µF	cycle number	I Range	|Ewe|/V	|I|/A	Ns	(Q-Qo)/mA.h	<Ece>/V	|Ece|/V	Phase(Zce)/deg	|Zce|/Ohm	Re(Zce)/Ohm	-Im(Zce)/Ohm	Phase(Zwe-ce)/deg	|Zwe-ce|/Ohm	Re(Zwe-ce)/Ohm	-Im(Zwe-ce)/Ohm	Re(Y)/Ohm-1	Im(Y)/Ohm-1	|Y|/Ohm-1	Phase(Y)/deg	Re(C)/nF	Im(C)/nF	|C|/nF	Phase(C)/deg	Re(M)	Im(M)	|M|	Phase(M)/deg	Re(Permittivity)	Im(Permittivity)	|Permittivity|	Phase(Permittivity)/deg	Re(Resistivity)/Ohm.cm	Im(Resistivity)/Ohm.cm	|Resistivity|/Ohm.cm	Phase(Resistivity)/deg	Re(Conductivity)/mS/cm	Im(Conductivity)/mS/cm	|Conductivity|/mS/cm	Phase(Conductivity)/deg	Tan(Delta)	Loss Angle(Delta)/deg	dq/mA.h	Pwe/W	Pce/W	Pwe-ce/W	<Ewe-Ece>/V	Rwe/Ohm	Rce/Ohm	Rwe-ce/Ohm		Ewe-Ece/V
1.00002e+06	0.950612	-0.168826	0.965487	10.0706	2.69453	3.82538	0.0497308	-0.9427	-0.0288242	1	9	0.00021181	0.000219382	0	1.55344e-05	5.39982e-05	0.0001835	0.454412	0.836441	0.836415	-0.00663374	5.60762	1.79562	1.78703	-0.17546	1.01979	-0.181111	1.03575	-10.0706	-28.8243	162.301	164.841	-100.071	0.0000000E+000	0.0000000E+000	0.0000000E+000	100.071	0.0000000E+000	0.0000000E+000	0.0000000E+000	-100.071	0.0000000E+000	0.0000000E+000	0.0000000E+000	10.0706	0.0000000E+000	0.0000000E+000	0.0000000E+000	-10.0706	5.63073	79.9294	1.55344e-05	0.000190239	2.68537e-09	0.000190237	3.82533	76921.8	1.08581	76920.7
251206	0.756895	0.249535	0.796967	-18.2465	4.99456	3.82377	-0.055844	2.53898	0.248909	1	9	0.0021778	0.0027326	0	1.09421e-06	-7.96403e-05	5.50722e-05	100.66	0.0201538	-0.00372793	-0.019806	-16.9626	0.787423	0.753167	0.229729	1.19167	0.392871	1.25476	18.2465	248.909	754.995	794.967	-71.7535	0.0000000E+000	0.0000000E+000	0.0000000E+000	71.7535	0.0000000E+000	0.0000000E+000	0.0000000E+000	-71.7535	0.0000000E+000	0.0000000E+000	0.0000000E+000	-18.2465	0.0000000E+000	0.0000000E+000	0.0000000E+000	18.2465	3.03322	71.7535	-4.08426e-06	-0.000213535	4.44743e-09	-0.000213539	3.82385	68472.4	1.42612	68473.9
63093.8	1.11002	0.607278	1.26528	-28.6826	7.29454	3.82351	-0.0369261	4.1538	0.956864	1	9	0.00536401	0.0042394	0	-3.01291e-05	0.000111272	2.24517e-05	71.2325	0.00529597	0.00170386	-0.00501439	-28.4462	1.26437	1.11172	0.602263	0.693361	0.37933	0.790342	28.6826	956.865	1749.01	1993.65	-61.3174	0.0000000E+000	0.0000000E+000	0.0000000E+000	61.3174	0.0000000E+000	0.0000000E+000	0.0000000E+000	-61.3174	0.0000000E+000	0.0000000E+000	0.0000000E+000	-28.6826	0.0000000E+000	0.0000000E+000	0.0000000E+000	28.6826	1.82786	61.3174	-1.06946e-05	-0.000141187	-4.10884e-09	-0.000141183	3.8234	103545	3.01336	103542
15847.7	1.76078	1.16337	2.1104	-33.4533	9.71856	3.82349	-0.0297389	8.63247	2.62328	1	9	0.00497783	0.00235872	0	-4.67934e-05	7.30894e-05	6.54459e-06	1.95577	0.00277464	0.00277302	-9.4693e-05	-33.4097	2.11266	1.76355	1.16328	0.395344	0.26121	0.473844	33.4533	2623.28	3970.36	4758.71	-56.5467	0.0000000E+000	0.0000000E+000	0.0000000E+000	56.5467	0.0000000E+000	0.0000000E+000	0.0000000E+000	-56.5467	0.0000000E+000	0.0000000E+000	0.0000000E+000	-33.4533	0.0000000E+000	0.0000000E+000	0.0000000E+000	33.4533	1.51351	56.5467	-3.36373e-06	-0.000113706	-2.1736e-09	-0.000113704	3.82342	128569	2.4577	128566
3983.6	3.01822	2.0549	3.65134	-34.2482	11.5651	3.82331	-0.123583	19.4426	6.15786	1	9	0.00464886	0.00127319	0	-6.70308e-05	-0.000117823	1.12678e-05	-32.3822	0.00885	0.00747377	0.00473975	-34.2437	3.66018	3.0257	2.05964	0.226385	0.15413	0.273872	34.2482	6157.86	9044.65	10941.9	-55.7518	0.0000000E+000	0.0000000E+000	0.0000000E+000	55.7518	0.0000000E+000	0.0000000E+000	0.0000000E+000	-55.7518	0.0000000E+000	0.0000000E+000	0.0000000E+000	-34.2482	0.0000000E+000	0.0000000E+000	0.0000000E+000	34.2482	1.4688	55.7518	-9.5396e-06	-0.000472498	1.45609e-08	-0.000472512	3.82343	30937.2	0.953388	30938.1
1000.32	5.28221	3.46683	6.31828	-33.2778	14.4028	3.8234	-0.0299346	45.8932	13.8171	1	10	0.00458103	0.000725044	0	-9.50985e-05	-0.000251461	2.48205e-06	9.43681	0.00342332	0.00337699	-0.000561286	-33.2567	6.3208	5.28559	3.46627	0.132318	0.0868431	0.158271	33.2778	13817.1	21052.3	25181.5	-56.7222	0.0000000E+000	0.0000000E+000	0.0000000E+000	56.7222	0.0000000E+000	0.0000000E+000	0.0000000E+000	-56.7222	0.0000000E+000	0.0000000E+000	0.0000000E+000	-33.2778	0.0000000E+000	0.0000000E+000	0.0000000E+000	33.2778	1.52364	56.7222	-3.09961e-06	-0.000114452	7.5274e-09	-0.00011446	3.82365	127725	8.40034	127733
251.044	9.62323	4.50647	10.6261	-25.0933	17.103	3.82341	-0.0286575	140.68	25.302	1	10	0.0045107	0.000424491	0	-0.000115756	-0.000136914	1.50766e-05	-47.4499	0.035517	0.0240178	0.0261649	-25.1659	10.659	9.64725	4.53264	0.0852255	0.0399104	0.0941075	25.0933	25302	54030.6	59661.5	-64.9067	0.0000000E+000	0.0000000E+000	0.0000000E+000	64.9067	0.0000000E+000	0.0000000E+000	0.0000000E+000	-64.9067	0.0000000E+000	0.0000000E+000	0.0000000E+000	-25.0933	0.0000000E+000	0.0000000E+000	0.0000000E+000	25.0933	2.13542	64.9067	-3.41088e-06	-0.000109569	3.92361e-09	-0.000109573	3.82354	133417	4.77759	133422
[...]
0.0602816	18.2825	2.98243	18.5241	-9.26509	240.657	3.82343	-0.0156346	885248	22947.2	1	11	0.00509417	0.000275002	0	-0.00228284	-6.05491e-05	7.19941e-07	-3.23341	0.00261795	0.00261378	0.000147662	-9.26424	18.5267	18.2851	2.98258	0.0532794	0.00869151	0.0539837	9.26509	2.29472e+07	1.40668e+08	1.42527e+08	-80.7349	0.0000000E+000	0.0000000E+000	0.0000000E+000	80.7349	0.0000000E+000	0.0000000E+000	0.0000000E+000	-80.7349	0.0000000E+000	0.0000000E+000	0.0000000E+000	-9.26509	0.0000000E+000	0.0000000E+000	0.0000000E+000	9.26509	6.13006	80.7349	0.000000000000000E+000	-5.97777e-05	9.46659e-10	-5.97786e-05	3.82349	244550	3.87277	244554
0.00796479	24.6405	4.94015	25.1308	-11.3369	20329.6	3.82344	-0.00179536	4.04488e+06	156305	1	11	0.00508831	0.000202473	0	-0.0279616	9.21806e-05	3.94425e-07	-159.429	0.00194804	-0.00182383	0.000684482	-11.3392	25.1291	24.6386	4.94084	0.0390154	0.00782218	0.0397918	11.3369	1.56305e+08	7.79618e+08	7.95133e+08	-78.6631	0.0000000E+000	0.0000000E+000	0.0000000E+000	78.6631	0.0000000E+000	0.0000000E+000	0.0000000E+000	-78.6631	0.0000000E+000	0.0000000E+000	0.0000000E+000	-11.3369	0.0000000E+000	0.0000000E+000	0.0000000E+000	11.3369	4.98779	78.6631	-0.0256787	-6.86448e-06	-1.65498e-10	-6.86431e-06	3.82335	2.12962e+06	51.3437	2.12957e+06
0.0019912	28.1772	7.46946	29.1504	-14.847	20329.6	3.82344	-0.00179536	1.07008e+07	702595	1	11	0.00510129	0.000174999	0	-0.0279616	9.21806e-05	5.30345e-07	-93.3172	0.00303056	-0.00017536	0.00302549	-14.8528	29.151	28.177	7.47248	0.0331595	0.0087902	0.0343048	14.847	7.02595e+08	2.65041e+09	2.74196e+09	-75.153	0.0000000E+000	0.0000000E+000	0.0000000E+000	75.153	0.0000000E+000	0.0000000E+000	0.0000000E+000	-75.153	0.0000000E+000	0.0000000E+000	0.0000000E+000	-14.847	0.0000000E+000	0.0000000E+000	0.0000000E+000	14.847	3.77232	75.153	0.000000000000000E+000	-6.86448e-06	-1.65498e-10	-6.86431e-06	3.82335	2.12962e+06	51.3437	2.12957e+06
0.000497799	30.1044	18.6176	35.3961	-31.7341	20329.6	3.82344	-0.00179536	1.71729e+07	4.75092e+06	1	11	0.00510049	0.000144097	0	-0.0279616	9.21806e-05	9.22211e-07	-135.952	0.00639991	-0.00459996	0.00444964	-31.7441	35.3946	30.0998	18.622	0.024028	0.0148598	0.0282517	31.7341	4.75092e+09	7.68216e+09	9.03255e+09	-58.2659	0.0000000E+000	0.0000000E+000	0.0000000E+000	58.2659	0.0000000E+000	0.0000000E+000	0.0000000E+000	-58.2659	0.0000000E+000	0.0000000E+000	0.0000000E+000	-31.7341	0.0000000E+000	0.0000000E+000	0.0000000E+000	31.7341	1.61698	58.2659	0.000000000000000E+000	-6.86448e-06	-1.65498e-10	-6.86431e-06	3.82335	2.12962e+06	51.3437	2.12957e+06
9.95598e-05	39.4108	93.2065	101.196	-67.0798	20329.6	3.82344	-0.00179536	1.7151e+07	1.45497e+07	1	11	0.00510308	5.04276e-05	0	-0.0279616	9.21806e-05	1.297e-06	112.348	0.0257201	-0.00977952	-0.0237884	-67.0796	101.17	39.401	93.1827	0.00384846	0.00910161	0.0098818	67.0798	1.45497e+10	6.15209e+09	1.57969e+10	-22.9202	0.0000000E+000	0.0000000E+000	0.0000000E+000	22.9202	0.0000000E+000	0.0000000E+000	0.0000000E+000	-22.9202	0.0000000E+000	0.0000000E+000	0.0000000E+000	-67.0798	0.0000000E+000	0.0000000E+000	0.0000000E+000	67.0798	0.422833	22.9203	0.000000000000000E+000	-6.86448e-06	-1.65498e-10	-6.86431e-06	3.82335	2.12962e+06	51.3437	2.12957e+06