Folder: EIS/txt (part 24)

File: 17451_C07.mpt
EC-Lab ASCII FILE
Nb header lines : 64

Potentio Electrochemical Impedance Spectroscopy

Run on channel : 7 (SN 66126)
User :
CE vs. WE compliance from -10 V to 10 V
Electrode connection : standard
Potential control : Ewe
Ewe ctrl range : min = -10.00 V, max = 10.00 V
Safety Limits :
	Do not start on E overload
Acquisition started on : 09/11/2025 16:16:31.856
Technique started on : 09/11/2025 16:16:33.924
Loaded Setting File :  C:\Users\Celltest\OneDrive - store-dot.com\Documents\EC-Lab\Data\Charmaine\R279\17382_C01.mpr
Saved on :
	File : 17451_C07.mpr
	Directory : C:\Users\Celltest\OneDrive - store-dot.com\Documents\EC-Lab\Data\John\R281\
	Host : 169.254.61.224
Device : VMP-3e (SN .003165)
Address : USB
EC-LAB for windows v11.62 (software)
Internet server v27.00 (firmware)
Command interpretor v12.03 (firmware)
Electrode material :
Initial state :
Electrolyte :
Comments :
Electrode surface area : 0.001 cm²
Characteristic mass : 0.001 g
Equivalent Weight : 0.000 g/eq.
Density : 0.000 g/cm3
Volume (V) : 0.001 cm³
Cycle Definition : Charge/Discharge alternance
Mode                Single sine
E (V)               0.0000
vs.                 Eoc
tE (h:m:s)          0:00:0.0000
record              0
dI                  0.000
unit dI             mA
dt (s)              0.000
fi                  100.000
unit fi             kHz
ff                  10.000
unit ff             mHz
Nd                  6
Points              per decade
spacing             Logarithmic
Va (mV)             5.0
pw                  0.10
Na                  2
corr                0
E range min (V)     -10.000
E range max (V)     10.000
I Range             Auto
Bandwidth           5
nc cycles           0
goto Ns'            0
nr cycles           0
inc. cycle          0

freq/Hz	Re(Z)/Ohm	-Im(Z)/Ohm	|Z|/Ohm	Phase(Z)/deg	time/s	<Ewe>/V	<I>/mA	Cs/µF	Cp/µF	cycle number	I Range	|Ewe|/V	|I|/A	Ns	(Q-Qo)/mA.h	Re(Y)/Ohm-1	Im(Y)/Ohm-1	|Y|/Ohm-1	Phase(Y)/deg	Re(C)/nF	Im(C)/nF	|C|/nF	Phase(C)/deg	Re(M)	Im(M)	|M|	Phase(M)/deg	Re(Permittivity)	Im(Permittivity)	|Permittivity|	Phase(Permittivity)/deg	Re(Resistivity)/Ohm.cm	Im(Resistivity)/Ohm.cm	|Resistivity|/Ohm.cm	Phase(Resistivity)/deg	Re(Conductivity)/mS/cm	Im(Conductivity)/mS/cm	|Conductivity|/mS/cm	Phase(Conductivity)/deg	Tan(Delta)	Loss Angle(Delta)/deg	dq/mA.h	Pwe/W	Rwe/Ohm
100004	1.36164	0.261525	1.38653	-10.8721	2.06848	0.298396	0.0602925	6.08543	0.2165	1	9	0.00463746	0.00334465	0	-1.41573e-06	0.708279	0.136036	0.721225	10.8721	216.5	1127.22	1147.82	-79.1279	0.0000000E+000	0.0000000E+000	0.0000000E+000	79.1279	0.0000000E+000	0.0000000E+000	0.0000000E+000	-79.1279	0.0000000E+000	0.0000000E+000	0.0000000E+000	-10.8721	0.0000000E+000	0.0000000E+000	0.0000000E+000	10.8721	5.20656	79.1279	-1.41573e-06	1.7991e-05	4949.13
46420.4	1.49891	0.332451	1.53533	-12.5055	3.22448	0.298409	0.0566248	10.313	0.483543	1	9	0.00508186	0.00330995	0	1.91987e-05	0.635873	0.141034	0.651326	12.5055	483.543	2180.13	2233.11	-77.4945	0.0000000E+000	0.0000000E+000	0.0000000E+000	77.4945	0.0000000E+000	0.0000000E+000	0.0000000E+000	-77.4945	0.0000000E+000	0.0000000E+000	0.0000000E+000	-12.5055	0.0000000E+000	0.0000000E+000	0.0000000E+000	12.5055	4.50865	77.4945	1.0867e-05	1.68974e-05	5269.94
21544.7	1.66296	0.434974	1.71891	-14.6582	4.2395	0.298403	0.0564014	16.9831	1.08752	1	9	0.00521473	0.00303374	0	4.31925e-05	0.56283	0.147217	0.581765	14.6582	1087.52	4157.74	4297.61	-75.3418	0.0000000E+000	0.0000000E+000	0.0000000E+000	75.3418	0.0000000E+000	0.0000000E+000	0.0000000E+000	-75.3418	0.0000000E+000	0.0000000E+000	0.0000000E+000	-14.6582	0.0000000E+000	0.0000000E+000	0.0000000E+000	14.6582	3.82313	75.3418	8.90528e-06	1.68303e-05	5290.7
10002.2	1.86963	0.569384	1.95441	-16.9378	5.11448	0.298403	0.0582259	27.9459	2.37191	1	9	0.00491364	0.00251413	0	5.74975e-05	0.489469	0.149065	0.511664	16.9378	2371.91	7788.41	8141.58	-73.0622	0.0000000E+000	0.0000000E+000	0.0000000E+000	73.0622	0.0000000E+000	0.0000000E+000	0.0000000E+000	-73.0622	0.0000000E+000	0.0000000E+000	0.0000000E+000	-16.9378	0.0000000E+000	0.0000000E+000	0.0000000E+000	16.9378	3.2836	73.0622	4.63165e-06	1.73748e-05	5124.91
4641.49	2.14996	0.768901	2.28332	-19.6788	5.96371	0.298409	0.0872514	44.5957	5.05709	1	9	0.00450144	0.00197145	0	6.27778e-05	0.41238	0.147481	0.437959	19.6788	5057.09	14140.4	15017.5	-70.3212	0.0000000E+000	0.0000000E+000	0.0000000E+000	70.3212	0.0000000E+000	0.0000000E+000	0.0000000E+000	-70.3212	0.0000000E+000	0.0000000E+000	0.0000000E+000	-19.6788	0.0000000E+000	0.0000000E+000	0.0000000E+000	19.6788	2.79615	70.3212	1.05437e-05	2.60366e-05	3420.11
2155.69	2.51108	1.02416	2.71191	-22.1883	7.12069	0.298401	0.0875679	72.0888	10.2814	1	9	0.00489992	0.00180682	0	8.61932e-05	0.341438	0.139257	0.368744	22.1883	10281.4	25208.4	27224.5	-67.8117	0.0000000E+000	0.0000000E+000	0.0000000E+000	67.8117	0.0000000E+000	0.0000000E+000	0.0000000E+000	-67.8117	0.0000000E+000	0.0000000E+000	0.0000000E+000	-22.1883	0.0000000E+000	0.0000000E+000	0.0000000E+000	22.1883	2.45186	67.8117	8.43742e-06	2.61304e-05	3407.66
1000.32	2.98022	1.40825	3.29619	-25.2922	8.31071	0.298367	-0.014827	112.98	20.6222	1	10	0.00496577	0.00150652	0	9.98599e-05	0.274299	0.129615	0.303381	25.2922	20622.2	43642	48269.1	-64.7078	0.0000000E+000	0.0000000E+000	0.0000000E+000	64.7078	0.0000000E+000	0.0000000E+000	0.0000000E+000	-64.7078	0.0000000E+000	0.0000000E+000	0.0000000E+000	-25.2922	0.0000000E+000	0.0000000E+000	0.0000000E+000	25.2922	2.11626	64.7078	3.3508e-06	-4.42388e-06	20123.2
463.961	3.55947	2.06139	4.11329	-30.0764	9.24522	0.298365	-0.0148568	166.409	41.7947	1	10	0.00489506	0.00119006	0	9.64847e-05	0.210381	0.121838	0.243114	30.0764	41794.7	72168.1	83396.8	-59.9236	0.0000000E+000	0.0000000E+000	0.0000000E+000	59.9236	0.0000000E+000	0.0000000E+000	0.0000000E+000	-59.9236	0.0000000E+000	0.0000000E+000	0.0000000E+000	-30.0764	0.0000000E+000	0.0000000E+000	0.0000000E+000	30.0764	1.72673	59.9236	-2.33561e-06	-4.43274e-06	20082.8
215.345	4.51657	3.21374	5.54324	-35.4335	10.1795	0.298357	-0.0153873	229.973	77.2982	1	10	0.00487051	0.00087864	0	9.22633e-05	0.146988	0.104588	0.1804	35.4335	77298.2	108634	133328	-54.5665	0.0000000E+000	0.0000000E+000	0.0000000E+000	54.5665	0.0000000E+000	0.0000000E+000	0.0000000E+000	-54.5665	0.0000000E+000	0.0000000E+000	0.0000000E+000	-35.4335	0.0000000E+000	0.0000000E+000	0.0000000E+000	35.4335	1.4054	54.5665	-1.75093e-06	-4.59089e-06	19389.8
100.032	6.35856	4.81529	7.97611	-37.1363	11.1097	0.298361	-0.015445	330.414	120.426	1	10	0.0048509	0.000608179	0	8.88975e-05	0.0999486	0.0756902	0.125374	37.1363	120426	159022	199476	-52.8637	0.0000000E+000	0.0000000E+000	0.0000000E+000	52.8637	0.0000000E+000	0.0000000E+000	0.0000000E+000	-52.8637	0.0000000E+000	0.0000000E+000	0.0000000E+000	-37.1363	0.0000000E+000	0.0000000E+000	0.0000000E+000	37.1363	1.32049	52.8636	-1.69838e-06	-4.60818e-06	19317.7
46.4415	9.4481	6.28297	11.3465	-33.6239	12.0435	0.298354	-0.0183432	545.441	167.247	1	10	0.00485239	0.000427656	0	8.54157e-05	0.0733877	0.0488027	0.0881331	33.6239	167247	251499	302032	-56.3761	0.0000000E+000	0.0000000E+000	0.0000000E+000	56.3761	0.0000000E+000	0.0000000E+000	0.0000000E+000	-56.3761	0.0000000E+000	0.0000000E+000	0.0000000E+000	-33.6239	0.0000000E+000	0.0000000E+000	0.0000000E+000	33.6239	1.50376	56.3761	-1.86985e-06	-5.47276e-06	16265.2
[...]
1.00006	23.8524	3.26983	24.0755	-7.80581	21.3821	0.298409	-0.00524032	48670.6	897.777	1	12	0.00484493	0.000201239	0	7.29096e-05	0.0411512	0.00564126	0.0415361	7.80581	897777	6.549e+06	6.61025e+06	-82.1942	0.0000000E+000	0.0000000E+000	0.0000000E+000	82.1942	0.0000000E+000	0.0000000E+000	0.0000000E+000	-82.1942	0.0000000E+000	0.0000000E+000	0.0000000E+000	-7.80581	0.0000000E+000	0.0000000E+000	0.0000000E+000	7.80581	7.29468	82.1942	-9.14647e-07	-1.56376e-06	56944.7
0.464091	25.0024	2.91671	25.172	-6.65389	29.0668	0.298411	-0.00397873	117577	1578.62	1	12	0.00484756	0.000192578	0	4.70134e-05	0.0394591	0.00460319	0.0397267	6.65389	1.57862e+06	1.35321e+07	1.36239e+07	-83.3461	0.0000000E+000	0.0000000E+000	0.0000000E+000	83.3461	0.0000000E+000	0.0000000E+000	0.0000000E+000	-83.3461	0.0000000E+000	0.0000000E+000	0.0000000E+000	-6.65389	0.0000000E+000	0.0000000E+000	0.0000000E+000	6.65389	8.57213	83.3461	-1.76509e-05	-1.1873e-06	75001.6
0.215268	26.1433	3.21722	26.3405	-7.0156	45.5469	0.298417	-0.00416529	229806	3428.26	1	12	0.00484398	0.000183899	0	2.75781e-06	0.0376801	0.00463695	0.0379643	7.0156	3.42826e+06	2.78582e+07	2.80684e+07	-82.9844	0.0000000E+000	0.0000000E+000	0.0000000E+000	82.9844	0.0000000E+000	0.0000000E+000	0.0000000E+000	-82.9844	0.0000000E+000	0.0000000E+000	0.0000000E+000	-7.0156	0.0000000E+000	0.0000000E+000	0.0000000E+000	7.0156	8.12605	82.9844	-2.09428e-05	-1.24299e-06	71643.8
0.0999041	27.5924	4.34622	27.9326	-8.95139	80.9536	0.298424	-0.00365746	366543	8874.11	1	12	0.0048492	0.000173603	0	1.55451e-05	0.0353644	0.00557042	0.0358004	8.95139	8.87411e+06	5.63382e+07	5.70328e+07	-81.0486	0.0000000E+000	0.0000000E+000	0.0000000E+000	81.0486	0.0000000E+000	0.0000000E+000	0.0000000E+000	-81.0486	0.0000000E+000	0.0000000E+000	0.0000000E+000	-8.95139	0.0000000E+000	0.0000000E+000	0.0000000E+000	8.95139	6.34861	81.0486	1.90762e-05	-1.09147e-06	81593.1
0.0464052	29.965	5.96512	30.553	-11.2586	157.189	0.298415	-0.00153415	574956	21916.2	1	12	0.00485014	0.000158745	0	0.000106481	0.0321001	0.00639015	0.03273	11.2586	2.19162e+07	1.10093e+08	1.12253e+08	-78.7414	0.0000000E+000	0.0000000E+000	0.0000000E+000	78.7414	0.0000000E+000	0.0000000E+000	0.0000000E+000	-78.7414	0.0000000E+000	0.0000000E+000	0.0000000E+000	-11.2586	0.0000000E+000	0.0000000E+000	0.0000000E+000	11.2586	5.02338	78.7414	5.18338e-05	-4.57815e-07	194515
0.0215268	32.9115	8.54003	34.0015	-14.5465	321.42	0.298415	0.000569106	865728	54614.1	1	12	0.00484805	0.000142584	0	4.28317e-05	0.0284677	0.00738693	0.0294105	14.5465	5.46141e+07	2.10472e+08	2.17442e+08	-75.4535	0.0000000E+000	0.0000000E+000	0.0000000E+000	75.4535	0.0000000E+000	0.0000000E+000	0.0000000E+000	-75.4535	0.0000000E+000	0.0000000E+000	0.0000000E+000	-14.5465	0.0000000E+000	0.0000000E+000	0.0000000E+000	14.5465	3.85379	75.4535	-7.80976e-05	1.6983e-07	524358
0.0100092	36.2306	12.6247	38.3672	-19.2111	674.637	0.298415	-0.000218688	1.25951e+06	136372	1	12	0.00484449	0.000126266	0	-0.000536128	0.0246125	0.00857635	0.026064	19.2111	1.36372e+08	3.91362e+08	4.14441e+08	-70.7889	0.0000000E+000	0.0000000E+000	0.0000000E+000	70.7889	0.0000000E+000	0.0000000E+000	0.0000000E+000	-70.7889	0.0000000E+000	0.0000000E+000	0.0000000E+000	-19.2111	0.0000000E+000	0.0000000E+000	0.0000000E+000	19.2111	2.86981	70.7889	-0.000359188	-6.52598e-08	1.36457e+06

File: 17452_C08.mpt
EC-Lab ASCII FILE
Nb header lines : 64

Potentio Electrochemical Impedance Spectroscopy

Run on channel : 8 (SN 65398)
User :
CE vs. WE compliance from -10 V to 10 V
Electrode connection : standard
Potential control : Ewe
Ewe ctrl range : min = -10.00 V, max = 10.00 V
Safety Limits :
	Do not start on E overload
Acquisition started on : 09/11/2025 16:16:39.416
Technique started on : 09/11/2025 16:16:41.297
Loaded Setting File :  C:\Users\Celltest\OneDrive - store-dot.com\Documents\EC-Lab\Data\Charmaine\R279\17383_C02.mpr
Saved on :
	File : 17452_C08.mpr
	Directory : C:\Users\Celltest\OneDrive - store-dot.com\Documents\EC-Lab\Data\John\R281\
	Host : 169.254.61.224
Device : VMP-3e (SN .003165)
Address : USB
EC-LAB for windows v11.62 (software)
Internet server v27.00 (firmware)
Command interpretor v12.03 (firmware)
Electrode material :
Initial state :
Electrolyte :
Comments :
Electrode surface area : 0.001 cm²
Characteristic mass : 0.001 g
Equivalent Weight : 0.000 g/eq.
Density : 0.000 g/cm3
Volume (V) : 0.001 cm³
Cycle Definition : Charge/Discharge alternance
Mode                Single sine
E (V)               0.0000
vs.                 Eoc
tE (h:m:s)          0:00:0.0000
record              0
dI                  0.000
unit dI             mA
dt (s)              0.000
fi                  100.000
unit fi             kHz
ff                  10.000
unit ff             mHz
Nd                  6
Points              per decade
spacing             Logarithmic
Va (mV)             5.0
pw                  0.10
Na                  2
corr                0
E range min (V)     -10.000
E range max (V)     10.000
I Range             Auto
Bandwidth           5
nc cycles           0
goto Ns'            0
nr cycles           0
inc. cycle          0

freq/Hz	Re(Z)/Ohm	-Im(Z)/Ohm	|Z|/Ohm	Phase(Z)/deg	time/s	<Ewe>/V	<I>/mA	Cs/µF	Cp/µF	cycle number	I Range	|Ewe|/V	|I|/A	Ns	(Q-Qo)/mA.h	Re(Y)/Ohm-1	Im(Y)/Ohm-1	|Y|/Ohm-1	Phase(Y)/deg	Re(C)/nF	Im(C)/nF	|C|/nF	Phase(C)/deg	Re(M)	Im(M)	|M|	Phase(M)/deg	Re(Permittivity)	Im(Permittivity)	|Permittivity|	Phase(Permittivity)/deg	Re(Resistivity)/Ohm.cm	Im(Resistivity)/Ohm.cm	|Resistivity|/Ohm.cm	Phase(Resistivity)/deg	Re(Conductivity)/mS/cm	Im(Conductivity)/mS/cm	|Conductivity|/mS/cm	Phase(Conductivity)/deg	Tan(Delta)	Loss Angle(Delta)/deg	dq/mA.h	Pwe/W	Rwe/Ohm
100004	1.45249	0.255792	1.47484	-9.9877	1.88148	0.299997	0.0255417	6.22182	0.187155	1	9	0.00475632	0.00322497	0	-1.25172e-06	0.667764	0.117597	0.678039	9.9877	187.154	1062.74	1079.09	-80.0123	0.0000000E+000	0.0000000E+000	0.0000000E+000	80.0123	0.0000000E+000	0.0000000E+000	0.0000000E+000	-80.0123	0.0000000E+000	0.0000000E+000	0.0000000E+000	-9.9877	0.0000000E+000	0.0000000E+000	0.0000000E+000	9.9877	5.67841	80.0123	-1.25172e-06	7.66246e-06	11745.4
46420.4	1.58472	0.326543	1.61801	-11.6433	3.03749	0.299998	0.0223238	10.4996	0.427651	1	9	0.00506894	0.00313282	0	1.2012e-05	0.605326	0.124732	0.618043	11.6433	427.651	2075.39	2119	-78.3567	0.0000000E+000	0.0000000E+000	0.0000000E+000	78.3567	0.0000000E+000	0.0000000E+000	0.0000000E+000	-78.3567	0.0000000E+000	0.0000000E+000	0.0000000E+000	-11.6433	0.0000000E+000	0.0000000E+000	0.0000000E+000	11.6433	4.85301	78.3567	1.48388e-05	6.69708e-06	13438.5
21544.7	1.75195	0.43524	1.80521	-13.9516	4.0525	0.299992	0.0232352	16.9727	0.98663	1	9	0.0050527	0.00279896	0	2.81898e-05	0.537611	0.133559	0.553953	13.9516	986.63	3971.44	4092.16	-76.0484	0.0000000E+000	0.0000000E+000	0.0000000E+000	76.0484	0.0000000E+000	0.0000000E+000	0.0000000E+000	-76.0484	0.0000000E+000	0.0000000E+000	0.0000000E+000	-13.9516	0.0000000E+000	0.0000000E+000	0.0000000E+000	13.9516	4.02526	76.0484	6.41501e-06	6.97039e-06	12911.1
10002.2	1.95712	0.564367	2.03686	-16.0858	4.78549	0.299989	0.0262858	28.1943	2.16452	1	9	0.00453817	0.00222802	0	3.18007e-05	0.471729	0.136031	0.490951	16.0858	2164.52	7506.13	7811.98	-73.9142	0.0000000E+000	0.0000000E+000	0.0000000E+000	73.9142	0.0000000E+000	0.0000000E+000	0.0000000E+000	-73.9142	0.0000000E+000	0.0000000E+000	0.0000000E+000	-16.0858	0.0000000E+000	0.0000000E+000	0.0000000E+000	16.0858	3.46781	73.9142	9.4345e-07	7.88544e-06	11412.6
4641.49	2.23676	0.763805	2.36357	-18.854	5.81171	0.300047	0.0865906	44.8932	4.68822	1	9	0.00474129	0.00200599	0	2.64452e-05	0.400388	0.136724	0.423088	18.854	4688.22	13729.2	14507.6	-71.146	0.0000000E+000	0.0000000E+000	0.0000000E+000	71.146	0.0000000E+000	0.0000000E+000	0.0000000E+000	-71.146	0.0000000E+000	0.0000000E+000	0.0000000E+000	-18.854	0.0000000E+000	0.0000000E+000	0.0000000E+000	18.854	2.92844	71.146	1.15441e-05	2.59812e-05	3465.12
2155.69	2.5975	1.01407	2.78843	-21.3257	6.74568	0.300043	0.0874834	72.8058	9.62899	1	9	0.00465214	0.00166837	0	4.55991e-05	0.334069	0.130421	0.358624	21.3257	9628.99	24664.3	26477.3	-68.6743	0.0000000E+000	0.0000000E+000	0.0000000E+000	68.6743	0.0000000E+000	0.0000000E+000	0.0000000E+000	-68.6743	0.0000000E+000	0.0000000E+000	0.0000000E+000	-21.3257	0.0000000E+000	0.0000000E+000	0.0000000E+000	21.3257	2.56147	68.6743	1.07056e-05	2.62488e-05	3429.71
1000.32	3.05335	1.3855	3.35299	-24.4068	7.93571	0.299948	-0.0122496	114.835	19.6075	1	10	0.00471522	0.00140627	0	5.85763e-05	0.271589	0.123237	0.298241	24.4068	19607.5	43210.8	47451.3	-65.5932	0.0000000E+000	0.0000000E+000	0.0000000E+000	65.5932	0.0000000E+000	0.0000000E+000	0.0000000E+000	-65.5932	0.0000000E+000	0.0000000E+000	0.0000000E+000	-24.4068	0.0000000E+000	0.0000000E+000	0.0000000E+000	24.4068	2.2038	65.5932	1.75277e-06	-3.67424e-06	24486.4
463.961	3.63541	2.01785	4.15788	-29.0327	8.87022	0.29995	-0.0124002	170	40.0392	1	10	0.004657	0.00112004	0	5.49228e-05	0.210286	0.11672	0.240507	29.0327	40039.2	72135.5	82502.5	-60.9673	0.0000000E+000	0.0000000E+000	0.0000000E+000	60.9673	0.0000000E+000	0.0000000E+000	0.0000000E+000	-60.9673	0.0000000E+000	0.0000000E+000	0.0000000E+000	-29.0327	0.0000000E+000	0.0000000E+000	0.0000000E+000	29.0327	1.80162	60.9673	-9.98613e-07	-3.71946e-06	24189.1
215.345	4.57571	3.12633	5.54175	-34.3426	9.80445	0.299947	-0.0127927	236.402	75.2362	1	10	0.00462487	0.000834551	0	5.10944e-05	0.148992	0.101798	0.180448	34.3426	75236.2	110116	133364	-55.6574	0.0000000E+000	0.0000000E+000	0.0000000E+000	55.6574	0.0000000E+000	0.0000000E+000	0.0000000E+000	-55.6574	0.0000000E+000	0.0000000E+000	0.0000000E+000	-34.3426	0.0000000E+000	0.0000000E+000	0.0000000E+000	34.3426	1.4636	55.6574	-2.2625e-06	-3.83713e-06	23446.7
100.032	6.38855	4.66397	7.90988	-36.1314	10.7357	0.299958	-0.0126142	341.134	118.603	1	10	0.00461083	0.00058292	0	4.83799e-05	0.102109	0.0745446	0.126424	36.1314	118603	162459	201146	-53.8686	0.0000000E+000	0.0000000E+000	0.0000000E+000	53.8686	0.0000000E+000	0.0000000E+000	0.0000000E+000	-53.8686	0.0000000E+000	0.0000000E+000	0.0000000E+000	-36.1314	0.0000000E+000	0.0000000E+000	0.0000000E+000	36.1314	1.36977	53.8686	-1.19689e-06	-3.78372e-06	23779.5
46.4415	9.39693	5.95392	11.1244	-32.3584	11.6696	0.299958	-0.0149912	575.587	164.879	1	10	0.00460685	0.000414123	0	4.54768e-05	0.0759339	0.0481119	0.0898928	32.3584	164879	260225	308062	-57.6416	0.0000000E+000	0.0000000E+000	0.0000000E+000	57.6416	0.0000000E+000	0.0000000E+000	0.0000000E+000	-57.6416	0.0000000E+000	0.0000000E+000	0.0000000E+000	-32.3584	0.0000000E+000	0.0000000E+000	0.0000000E+000	32.3584	1.57828	57.6416	-1.87107e-06	-4.49674e-06	20008.9
[...]
1.00006	22.6035	2.98102	22.7992	-7.513	21.0102	0.299993	-0.00594267	53386	912.679	1	12	0.00460899	0.000202156	0	1.9278e-05	0.0434846	0.0057349	0.0438612	7.513	912678	6.92035e+06	6.98028e+06	-82.487	0.0000000E+000	0.0000000E+000	0.0000000E+000	82.487	0.0000000E+000	0.0000000E+000	0.0000000E+000	-82.487	0.0000000E+000	0.0000000E+000	0.0000000E+000	-7.513	0.0000000E+000	0.0000000E+000	0.0000000E+000	7.513	7.58246	82.487	-8.26895e-06	-1.78276e-06	50481.2
0.464091	23.6273	2.71991	23.7833	-6.56682	28.695	0.299994	-0.0057695	126085	1649.02	1	12	0.00461112	0.00019388	0	2.47e-05	0.0417704	0.00480849	0.0420463	6.56682	1.64902e+06	1.43247e+07	1.44193e+07	-83.4332	0.0000000E+000	0.0000000E+000	0.0000000E+000	83.4332	0.0000000E+000	0.0000000E+000	0.0000000E+000	-83.4332	0.0000000E+000	0.0000000E+000	0.0000000E+000	-6.56682	0.0000000E+000	0.0000000E+000	0.0000000E+000	6.56682	8.68681	83.4332	5.34036e-06	-1.73081e-06	51996.4
0.215268	24.7073	3.07772	24.8983	-7.10059	45.175	0.299992	-0.00359306	240222	3670.55	1	12	0.00460808	0.000185076	0	2.74441e-05	0.0398554	0.00496467	0.0401634	7.10059	3.67055e+06	2.94665e+07	2.96942e+07	-82.8994	0.0000000E+000	0.0000000E+000	0.0000000E+000	82.8994	0.0000000E+000	0.0000000E+000	0.0000000E+000	-82.8994	0.0000000E+000	0.0000000E+000	0.0000000E+000	-7.10059	0.0000000E+000	0.0000000E+000	0.0000000E+000	7.10059	8.02781	82.8994	-3.03727e-06	-1.07789e-06	83492.1
0.0999041	26.1017	4.19094	26.4361	-9.12166	80.5816	0.300005	-0.00143574	380124	9553.34	1	12	0.00461402	0.000174535	0	-5.27738e-05	0.0373488	0.00599678	0.0378271	9.12166	9.55334e+06	5.94995e+07	6.02615e+07	-80.8783	0.0000000E+000	0.0000000E+000	0.0000000E+000	80.8783	0.0000000E+000	0.0000000E+000	0.0000000E+000	-80.8783	0.0000000E+000	0.0000000E+000	0.0000000E+000	-9.12166	0.0000000E+000	0.0000000E+000	0.0000000E+000	9.12166	6.22813	80.8783	-5.43118e-05	-4.30731e-07	208955
0.0464052	28.4296	5.79455	29.0141	-11.5203	156.817	0.299994	-0.00192325	591880	23607.8	1	12	0.00461277	0.000158984	0	-0.000227232	0.0337717	0.00688339	0.034466	11.5203	2.36078e+07	1.15826e+08	1.18207e+08	-78.4797	0.0000000E+000	0.0000000E+000	0.0000000E+000	78.4797	0.0000000E+000	0.0000000E+000	0.0000000E+000	-78.4797	0.0000000E+000	0.0000000E+000	0.0000000E+000	-11.5203	0.0000000E+000	0.0000000E+000	0.0000000E+000	11.5203	4.90626	78.4797	-9.27291e-05	-5.76963e-07	155983
0.0215268	31.1881	8.37415	32.2928	-15.0297	321.047	0.299993	-0.00212858	882877	59370.6	1	12	0.00461135	0.000142798	0	-0.000236931	0.0299074	0.00803027	0.0309667	15.0297	5.93706e+07	2.21115e+08	2.28947e+08	-74.9703	0.0000000E+000	0.0000000E+000	0.0000000E+000	74.9703	0.0000000E+000	0.0000000E+000	0.0000000E+000	-74.9703	0.0000000E+000	0.0000000E+000	0.0000000E+000	-15.0297	0.0000000E+000	0.0000000E+000	0.0000000E+000	15.0297	3.72433	74.9703	4.46098e-05	-6.38559e-07	140935
0.0100092	34.4047	12.4656	36.5934	-19.9165	674.265	0.299988	-0.000419933	1.27559e+06	148023	1	12	0.00461375	0.000126082	0	0.000255705	0.0256929	0.00930909	0.0273274	19.9165	1.48023e+08	4.08541e+08	4.3453e+08	-70.0835	0.0000000E+000	0.0000000E+000	0.0000000E+000	70.0835	0.0000000E+000	0.0000000E+000	0.0000000E+000	-70.0835	0.0000000E+000	0.0000000E+000	0.0000000E+000	-19.9165	0.0000000E+000	0.0000000E+000	0.0000000E+000	19.9165	2.75998	70.0835	0.000308832	-1.25975e-07	714369