Folder: EIS/txt (part 116)

File: 18712_R307_UA701_SOC00_C07.mpt
EC-Lab ASCII FILE
Nb header lines : 65

Potentio Electrochemical Impedance Spectroscopy

Run on channel : 7 (SN 66126)
User :
CE vs. WE compliance from -10 V to 10 V
Electrode connection : standard
Potential control : Ewe
Ewe ctrl range : min = -10.00 V, max = 10.00 V
Safety Limits :
	Do not start on E overload
Acquisition started on : 10/28/2025 15:31:01.789
Technique started on : 10/28/2025 15:31:03.843
Loaded Setting File :  C:\Users\Celltest\OneDrive - store-dot.com\Documents\EC-Lab\Data\@Biologic Test Protocols\anode half cell EIS SOC00.mps
Saved on :
	File : 18712_R307_UA701_SOC00_C07.mpr
	Directory : C:\Users\Celltest\OneDrive - store-dot.com\Documents\EC-Lab\Data\Anna\
	Host : 169.254.61.224
Device : VMP-3e (SN .003165)
Address : USB
EC-LAB for windows v11.62 (software)
Internet server v27.00 (firmware)
Command interpretor v12.03 (firmware)
Electrode material :
Initial state :
Electrolyte :
Comments :
Electrode surface area : 0.001 cm²
Characteristic mass : 0.001 g
Equivalent Weight : 0.000 g/eq.
Density : 0.000 g/cm3
Volume (V) : 0.001 cm³
Record Ece
Cycle Definition : Charge/Discharge alternance
Mode                Single sine
E (V)               0.0000
vs.                 Eoc
tE (h:m:s)          0:00:0.0000
record              0
dI                  0.000
unit dI             mA
dt (s)              0.000
fi                  100.000
unit fi             kHz
ff                  10.000
unit ff             mHz
Nd                  6
Points              per decade
spacing             Logarithmic
Va (mV)             5.0
pw                  0.10
Na                  2
corr                0
E range min (V)     -10.000
E range max (V)     10.000
I Range             Auto
Bandwidth           5
nc cycles           0
goto Ns'            0
nr cycles           0
inc. cycle          0

freq/Hz	Re(Z)/Ohm	-Im(Z)/Ohm	|Z|/Ohm	Phase(Z)/deg	time/s	<Ewe>/V	<I>/mA	Cs/µF	Cp/µF	cycle number	I Range	|Ewe|/V	|I|/A	Ns	(Q-Qo)/mA.h	<Ece>/V	|Ece|/V	Phase(Zce)/deg	|Zce|/Ohm	Re(Zce)/Ohm	-Im(Zce)/Ohm	Phase(Zwe-ce)/deg	|Zwe-ce|/Ohm	Re(Zwe-ce)/Ohm	-Im(Zwe-ce)/Ohm	Re(Y)/Ohm-1	Im(Y)/Ohm-1	|Y|/Ohm-1	Phase(Y)/deg	Re(C)/nF	Im(C)/nF	|C|/nF	Phase(C)/deg	Re(M)	Im(M)	|M|	Phase(M)/deg	Re(Permittivity)	Im(Permittivity)	|Permittivity|	Phase(Permittivity)/deg	Re(Resistivity)/Ohm.cm	Im(Resistivity)/Ohm.cm	|Resistivity|/Ohm.cm	Phase(Resistivity)/deg	Re(Conductivity)/mS/cm	Im(Conductivity)/mS/cm	|Conductivity|/mS/cm	Phase(Conductivity)/deg	Tan(Delta)	Loss Angle(Delta)/deg	dq/mA.h	Pwe/W	Pce/W	Pwe-ce/W	<Ewe-Ece>/V	Rwe/Ohm	Rce/Ohm	Rwe-ce/Ohm		Ewe-Ece/V
100004	1.17026	0.453031	1.25489	-21.1624	2.05355	0.240187	0.0744795	3.51298	0.457847	1	9	0.00495781	0.00395079	0	1.47579e-05	-0.000307521	4.86343e-05	90.5739	0.01231	-0.000123303	-0.0123094	-20.6384	1.25038	1.17014	0.440722	0.743141	0.287684	0.796882	21.1624	457.847	1182.7	1268.23	-68.8376	0.0000000E+000	0.0000000E+000	0.0000000E+000	68.8376	0.0000000E+000	0.0000000E+000	0.0000000E+000	-68.8376	0.0000000E+000	0.0000000E+000	0.0000000E+000	-21.1624	0.0000000E+000	0.0000000E+000	0.0000000E+000	21.1624	2.58318	68.8376	1.47579e-05	1.7889e-05	-2.2904e-08	1.79119e-05	0.240494	3224.87	4.12893	3229
31621.1	1.56341	0.574366	1.66557	-20.1724	3.45056	0.240211	0.0820384	8.76302	1.04209	1	9	0.00546523	0.00328129	0	3.00321e-05	3.58368e-05	2.0189e-05	53.5728	0.00615277	0.00365352	-0.00495059	-19.9694	1.66731	1.56706	0.569416	0.563565	0.207043	0.600394	20.1724	1042.09	2836.53	3021.89	-69.8276	0.0000000E+000	0.0000000E+000	0.0000000E+000	69.8276	0.0000000E+000	0.0000000E+000	0.0000000E+000	-69.8276	0.0000000E+000	0.0000000E+000	0.0000000E+000	-20.1724	0.0000000E+000	0.0000000E+000	0.0000000E+000	20.1724	2.72197	69.8276	-1.21364e-06	1.97066e-05	2.93999e-09	1.97036e-05	0.240176	2928.04	0.436829	2927.6
10002.2	1.98592	0.716843	2.11134	-19.8477	4.60355	0.24022	0.0753731	22.1973	2.55878	1	9	0.00510507	0.00241793	0	6.33063e-05	1.67614e-05	7.02956e-06	-102.368	0.00290726	-0.000622728	0.00283978	-19.9259	2.11172	1.9853	0.719682	0.445499	0.160809	0.473634	19.8477	2558.78	7088.76	7536.44	-70.1523	0.0000000E+000	0.0000000E+000	0.0000000E+000	70.1523	0.0000000E+000	0.0000000E+000	0.0000000E+000	-70.1523	0.0000000E+000	0.0000000E+000	0.0000000E+000	-19.8477	0.0000000E+000	0.0000000E+000	0.0000000E+000	19.8477	2.77037	70.1523	9.67736e-06	1.81062e-05	1.26336e-09	1.81049e-05	0.240204	3187.08	0.222379	3186.86
3163.08	2.53509	0.975097	2.71616	-21.0387	5.50064	0.240081	0.014939	51.6015	6.6504	1	9	0.00505165	0.00185985	0	7.19569e-05	-7.86157e-05	1.24446e-05	-82.6817	0.0066912	0.000852328	0.00663669	-21.1628	2.71934	2.53594	0.981734	0.343624	0.132172	0.368167	21.0387	6650.41	17290	18524.9	-68.9613	0.0000000E+000	0.0000000E+000	0.0000000E+000	68.9613	0.0000000E+000	0.0000000E+000	0.0000000E+000	-68.9613	0.0000000E+000	0.0000000E+000	0.0000000E+000	-21.0387	0.0000000E+000	0.0000000E+000	0.0000000E+000	21.0387	2.59984	68.9613	2.37963e-06	3.58657e-06	-1.17444e-09	3.58774e-06	0.24016	16070.8	5.26247	16076.1
1000.32	3.31217	1.41317	3.60104	-23.1061	7.09878	0.240137	-0.00912	112.586	17.3388	1	10	0.00499392	0.0013868	0	8.30226e-05	-0.000212144	1.29984e-05	-37.3864	0.00937299	0.00744739	0.00569116	-23.1428	3.61013	3.31962	1.41887	0.25542	0.108978	0.277697	23.1061	17338.8	40638.4	44182.7	-66.8939	0.0000000E+000	0.0000000E+000	0.0000000E+000	66.8939	0.0000000E+000	0.0000000E+000	0.0000000E+000	-66.8939	0.0000000E+000	0.0000000E+000	0.0000000E+000	-23.1061	0.0000000E+000	0.0000000E+000	0.0000000E+000	23.1061	2.34378	66.8939	-4.95398e-07	-2.19005e-06	1.93475e-09	-2.19198e-06	0.240349	26330.8	23.2614	26354.1
316.316	4.51625	2.12812	4.99253	-25.2304	8.44802	0.240142	-0.0095779	236.431	42.9588	1	10	0.00488811	0.000979084	0	8.00695e-05	-0.000364747	2.07049e-06	-138.777	0.00211472	-0.00159058	0.00139359	-25.2527	4.99169	4.51466	2.12951	0.181191	0.0853794	0.200299	25.2304	42958.8	91166.4	100781	-64.7696	0.0000000E+000	0.0000000E+000	0.0000000E+000	64.7696	0.0000000E+000	0.0000000E+000	0.0000000E+000	-64.7696	0.0000000E+000	0.0000000E+000	0.0000000E+000	-25.2304	0.0000000E+000	0.0000000E+000	0.0000000E+000	25.2304	2.12218	64.7696	-1.88756e-06	-2.30006e-06	3.49351e-09	-2.30355e-06	0.240507	25072.6	38.0821	25110.6
100.032	6.58717	2.73253	7.13145	-22.53	9.79485	0.240131	-0.00949229	582.259	85.4852	1	10	0.00485984	0.000681466	0	7.61591e-05	-0.000288445	4.38742e-06	-18.5191	0.00643822	0.00610483	0.00204492	-22.5263	7.13787	6.59327	2.73458	0.129522	0.0537291	0.140224	22.53	85485.2	206075	223102	-67.47	0.0000000E+000	0.0000000E+000	0.0000000E+000	67.47	0.0000000E+000	0.0000000E+000	0.0000000E+000	-67.47	0.0000000E+000	0.0000000E+000	0.0000000E+000	-22.53	0.0000000E+000	0.0000000E+000	0.0000000E+000	22.53	2.41065	67.47	-5.18014e-07	-2.27939e-06	2.73801e-09	-2.28213e-06	0.240419	25297.4	30.3873	25327.8
[...]
1.00006	11.9489	0.861855	11.98	-4.1255	18.7578	0.240179	-0.0017417	184654	955.687	1	11	0.00485546	0.000405299	0	5.3749e-05	-0.000135842	2.88353e-06	-82.7283	0.00711458	0.000900525	0.00705736	-4.15885	11.9814	11.9498	0.868913	0.0832564	0.00600514	0.0834727	4.1255	955688	1.32498e+07	1.32842e+07	-85.8745	0.0000000E+000	0.0000000E+000	0.0000000E+000	85.8745	0.0000000E+000	0.0000000E+000	0.0000000E+000	-85.8745	0.0000000E+000	0.0000000E+000	0.0000000E+000	-4.1255	0.0000000E+000	0.0000000E+000	0.0000000E+000	4.1255	13.8642	85.8745	-7.59235e-06	-4.18321e-07	2.36596e-10	-4.18557e-07	0.240315	137899	77.9938	137977
0.316193	12.3014	1.05775	12.3468	-4.91457	33.1	0.240179	-0.00366956	475865	3492.56	1	11	0.0048568	0.000393366	0	9.74243e-05	-0.000116767	1.53818e-06	53.7012	0.0039103	0.00231489	-0.00315147	-4.89908	12.3488	12.3037	1.0546	0.080695	0.00693867	0.0809928	4.91457	3.49256e+06	4.06176e+07	4.07675e+07	-85.0854	0.0000000E+000	0.0000000E+000	0.0000000E+000	85.0854	0.0000000E+000	0.0000000E+000	0.0000000E+000	-85.0854	0.0000000E+000	0.0000000E+000	0.0000000E+000	-4.91457	0.0000000E+000	0.0000000E+000	0.0000000E+000	4.91457	11.6297	85.0854	2.85645e-05	-8.81352e-07	4.28482e-10	-8.81781e-07	0.240296	65451.7	31.8203	65483.5
0.0999041	12.8798	2.20157	13.0666	-9.69997	78.3093	0.240182	-0.000364735	723609	20542.2	1	11	0.00485392	0.000371476	0	7.02185e-05	-7.86157e-05	2.57856e-06	-8.91033	0.0069414	0.00685763	0.00107514	-9.69955	13.0735	12.8866	2.20265	0.0754371	0.0128947	0.0765312	9.69997	2.05422e+07	1.20177e+08	1.2192e+08	-80.3	0.0000000E+000	0.0000000E+000	0.0000000E+000	80.3	0.0000000E+000	0.0000000E+000	0.0000000E+000	-80.3	0.0000000E+000	0.0000000E+000	0.0000000E+000	-9.69997	0.0000000E+000	0.0000000E+000	0.0000000E+000	9.69997	5.85026	80.3	-6.13911e-05	-8.7603e-08	2.86739e-11	-8.76317e-08	0.240261	658512	215.542	658727
0.0315922	14.2558	4.90963	15.0775	-19.0035	221.193	0.240191	-0.00687224	1.02611e+06	108800	1	11	0.00485675	0.000322119	0	-0.000604666	-7.86157e-05	2.12341e-06	11.9331	0.00659201	0.00644956	-0.00136303	-18.9906	15.0832	14.2622	4.90826	0.0627091	0.0215967	0.0663238	19.0035	1.088e+08	3.15915e+08	3.34126e+08	-70.9965	0.0000000E+000	0.0000000E+000	0.0000000E+000	70.9965	0.0000000E+000	0.0000000E+000	0.0000000E+000	-70.9965	0.0000000E+000	0.0000000E+000	0.0000000E+000	-19.0035	0.0000000E+000	0.0000000E+000	0.0000000E+000	19.0035	2.90364	70.9965	-0.000268368	-1.65065e-06	5.40266e-10	-1.65119e-06	0.240269	34950.8	11.4396	34962.3
0.0100092	17.2963	11.5018	20.7714	-33.6235	719.023	0.24018	-0.00860885	1.38247e+06	423893	1	12	0.00485328	0.000233652	0	-0.000476773	-0.000364747	2.82852e-06	7.29853	0.0121057	0.0120076	-0.0015379	-33.6017	20.7806	17.3083	11.5003	0.0400884	0.0266584	0.048143	33.6235	4.23893e+08	6.37442e+08	7.65518e+08	-56.3765	0.0000000E+000	0.0000000E+000	0.0000000E+000	56.3765	0.0000000E+000	0.0000000E+000	0.0000000E+000	-56.3765	0.0000000E+000	0.0000000E+000	0.0000000E+000	-33.6235	0.0000000E+000	0.0000000E+000	0.0000000E+000	33.6235	1.50378	56.3765	0.000197945	-2.06768e-06	3.14005e-09	-2.07082e-06	0.240545	27899.3	42.3689	27941.6

File: 18713_R307_UA701_SOC00_C08.mpt
EC-Lab ASCII FILE
Nb header lines : 65

Potentio Electrochemical Impedance Spectroscopy

Run on channel : 8 (SN 65398)
User :
CE vs. WE compliance from -10 V to 10 V
Electrode connection : standard
Potential control : Ewe
Ewe ctrl range : min = -10.00 V, max = 10.00 V
Safety Limits :
	Do not start on E overload
Acquisition started on : 10/28/2025 15:31:10.147
Technique started on : 10/28/2025 15:31:11.874
Loaded Setting File :  C:\Users\Celltest\OneDrive - store-dot.com\Documents\EC-Lab\Data\@Biologic Test Protocols\anode half cell EIS SOC00.mps
Saved on :
	File : 18713_R307_UA701_SOC00_C08.mpr
	Directory : C:\Users\Celltest\OneDrive - store-dot.com\Documents\EC-Lab\Data\Anna\
	Host : 169.254.61.224
Device : VMP-3e (SN .003165)
Address : USB
EC-LAB for windows v11.62 (software)
Internet server v27.00 (firmware)
Command interpretor v12.03 (firmware)
Electrode material :
Initial state :
Electrolyte :
Comments :
Electrode surface area : 0.001 cm²
Characteristic mass : 0.001 g
Equivalent Weight : 0.000 g/eq.
Density : 0.000 g/cm3
Volume (V) : 0.001 cm³
Record Ece
Cycle Definition : Charge/Discharge alternance
Mode                Single sine
E (V)               0.0000
vs.                 Eoc
tE (h:m:s)          0:00:0.0000
record              0
dI                  0.000
unit dI             mA
dt (s)              0.000
fi                  100.000
unit fi             kHz
ff                  10.000
unit ff             mHz
Nd                  6
Points              per decade
spacing             Logarithmic
Va (mV)             5.0
pw                  0.10
Na                  2
corr                0
E range min (V)     -10.000
E range max (V)     10.000
I Range             Auto
Bandwidth           5
nc cycles           0
goto Ns'            0
nr cycles           0
inc. cycle          0

freq/Hz	Re(Z)/Ohm	-Im(Z)/Ohm	|Z|/Ohm	Phase(Z)/deg	time/s	<Ewe>/V	<I>/mA	Cs/µF	Cp/µF	cycle number	I Range	|Ewe|/V	|I|/A	Ns	(Q-Qo)/mA.h	<Ece>/V	|Ece|/V	Phase(Zce)/deg	|Zce|/Ohm	Re(Zce)/Ohm	-Im(Zce)/Ohm	Phase(Zwe-ce)/deg	|Zwe-ce|/Ohm	Re(Zwe-ce)/Ohm	-Im(Zwe-ce)/Ohm	Re(Y)/Ohm-1	Im(Y)/Ohm-1	|Y|/Ohm-1	Phase(Y)/deg	Re(C)/nF	Im(C)/nF	|C|/nF	Phase(C)/deg	Re(M)	Im(M)	|M|	Phase(M)/deg	Re(Permittivity)	Im(Permittivity)	|Permittivity|	Phase(Permittivity)/deg	Re(Resistivity)/Ohm.cm	Im(Resistivity)/Ohm.cm	|Resistivity|/Ohm.cm	Phase(Resistivity)/deg	Re(Conductivity)/mS/cm	Im(Conductivity)/mS/cm	|Conductivity|/mS/cm	Phase(Conductivity)/deg	Tan(Delta)	Loss Angle(Delta)/deg	dq/mA.h	Pwe/W	Pce/W	Pwe-ce/W	<Ewe-Ece>/V	Rwe/Ohm	Rce/Ohm	Rwe-ce/Ohm		Ewe-Ece/V
100004	1.18558	0.479614	1.27892	-22.0252	1.72653	0.245637	0.00558275	3.31827	0.466668	1	9	0.00483276	0.00377878	0	-5.00142e-06	0.000273542	5.59898e-05	91.8803	0.0148169	-0.000486162	-0.0148089	-21.4155	1.27299	1.1851	0.464805	0.724844	0.293227	0.781909	22.0252	466.668	1153.58	1244.4	-67.9748	0.0000000E+000	0.0000000E+000	0.0000000E+000	67.9748	0.0000000E+000	0.0000000E+000	0.0000000E+000	-67.9748	0.0000000E+000	0.0000000E+000	0.0000000E+000	-22.0252	0.0000000E+000	0.0000000E+000	0.0000000E+000	22.0252	2.47195	67.9748	-5.00142e-06	1.37133e-06	1.52712e-09	1.3698e-06	0.245363	43999.2	48.9977	43950.2
31621.1	1.60959	0.621946	1.72557	-21.1266	3.24856	0.245632	-0.00111365	8.09264	1.05131	1	9	0.0050684	0.00293724	0	2.72719e-05	0.000368982	9.45333e-06	40.2105	0.00321844	0.00245785	-0.00207782	-21.0329	1.72711	1.61204	0.619868	0.540568	0.208876	0.57952	21.1266	1051.31	2720.78	2916.83	-68.8734	0.0000000E+000	0.0000000E+000	0.0000000E+000	68.8734	0.0000000E+000	0.0000000E+000	0.0000000E+000	-68.8734	0.0000000E+000	0.0000000E+000	0.0000000E+000	-21.1266	0.0000000E+000	0.0000000E+000	0.0000000E+000	21.1266	2.58798	68.8734	3.10796e-06	-2.73549e-07	-4.10917e-10	-2.73138e-07	0.245263	220565	331.326	220233
10002.2	2.08593	0.780506	2.22718	-20.5146	4.27256	0.245642	0.00152769	20.3867	2.50375	1	9	0.00495284	0.00222382	0	2.2748e-05	-8.91312e-05	5.59818e-06	-40.6168	0.00251737	0.00191089	0.0016388	-20.5369	2.22954	2.08785	0.782145	0.420525	0.15735	0.448999	20.5146	2503.75	6691.37	7144.45	-69.4854	0.0000000E+000	0.0000000E+000	0.0000000E+000	69.4854	0.0000000E+000	0.0000000E+000	0.0000000E+000	-69.4854	0.0000000E+000	0.0000000E+000	0.0000000E+000	-20.5146	0.0000000E+000	0.0000000E+000	0.0000000E+000	20.5146	2.67254	69.4854	-2.95844e-07	3.75264e-07	-1.36165e-10	3.754e-07	0.245731	160793	58.3438	160851
3163.08	2.67099	1.07628	2.87969	-21.9471	5.17367	0.245422	-0.0479513	46.7502	6.53049	1	9	0.00462545	0.00160623	0	1.68858e-05	-1.2779e-05	6.42914e-06	-51.5252	0.00400262	0.00249031	0.00313358	-21.9863	2.88317	2.67348	1.07942	0.322094	0.129788	0.34726	21.9471	6530.49	16206.6	17472.9	-68.0529	0.0000000E+000	0.0000000E+000	0.0000000E+000	68.0529	0.0000000E+000	0.0000000E+000	0.0000000E+000	-68.0529	0.0000000E+000	0.0000000E+000	0.0000000E+000	-21.9471	0.0000000E+000	0.0000000E+000	0.0000000E+000	21.9471	2.48168	68.0529	-6.41771e-06	-1.17683e-05	6.12768e-10	-1.17689e-05	0.245435	5118.15	0.266499	5118.42
1000.32	3.51677	1.56515	3.84933	-23.9917	6.77178	0.245554	-0.0158282	101.654	16.8061	1	10	0.00460813	0.00119712	0	1.81905e-05	0.000178102	8.15096e-06	-93.9321	0.00680878	-0.00046691	0.00679276	-24.0868	3.85167	3.5163	1.57195	0.237341	0.10563	0.259785	23.9917	16806.1	37761.9	41332.9	-66.0083	0.0000000E+000	0.0000000E+000	0.0000000E+000	66.0083	0.0000000E+000	0.0000000E+000	0.0000000E+000	-66.0083	0.0000000E+000	0.0000000E+000	0.0000000E+000	-23.9917	0.0000000E+000	0.0000000E+000	0.0000000E+000	23.9917	2.24692	66.0083	-1.97062e-06	-3.88667e-06	-2.81902e-09	-3.88385e-06	0.245376	15513.7	11.2522	15502.5
316.316	4.84102	2.44701	5.42432	-26.8154	8.335	0.245546	-0.0181569	205.619	41.845	1	10	0.00506101	0.000933022	0	1.09309e-05	0.00019719	4.8672e-05	-64.9495	0.052166	0.0220879	0.047259	-27.1531	5.46545	4.86311	2.49427	0.16453	0.0831656	0.184355	26.8154	41844.9	82783.6	92758.4	-63.1846	0.0000000E+000	0.0000000E+000	0.0000000E+000	63.1846	0.0000000E+000	0.0000000E+000	0.0000000E+000	-63.1846	0.0000000E+000	0.0000000E+000	0.0000000E+000	-26.8154	0.0000000E+000	0.0000000E+000	0.0000000E+000	26.8154	1.97834	63.1846	-3.19843e-06	-4.45835e-06	-3.58035e-09	-4.45477e-06	0.245349	13523.6	10.8603	13512.7
100.032	7.19287	3.22985	7.88475	-24.1817	9.68283	0.245546	-0.0177663	492.605	82.6584	1	10	0.00501029	0.00063544	0	5.4873e-06	0.000216278	9.54127e-06	90.4063	0.0150152	-0.000106479	-0.0150148	-24.0824	7.87852	7.19277	3.21483	0.115698	0.0519524	0.126827	24.1817	82658.4	184080	201787	-65.8183	0.0000000E+000	0.0000000E+000	0.0000000E+000	65.8183	0.0000000E+000	0.0000000E+000	0.0000000E+000	-65.8183	0.0000000E+000	0.0000000E+000	0.0000000E+000	-24.1817	0.0000000E+000	0.0000000E+000	0.0000000E+000	24.1817	2.227	65.8183	-2.75211e-06	-4.36245e-06	-3.84245e-09	-4.35861e-06	0.24533	13820.9	12.1735	13808.7
[...]
1.00006	14.0385	1.13686	14.0844	-4.6298	18.7007	0.245589	-0.00293802	139987	912.054	1	11	0.00500348	0.000355249	0	-4.24814e-06	2.53972e-05	2.01169e-06	23.4969	0.00566274	0.0051932	-0.00225774	-4.61894	14.0894	14.0437	1.1346	0.0707688	0.00573097	0.0710005	4.6298	912054	1.12625e+07	1.12994e+07	-85.3702	0.0000000E+000	0.0000000E+000	0.0000000E+000	85.3702	0.0000000E+000	0.0000000E+000	0.0000000E+000	-85.3702	0.0000000E+000	0.0000000E+000	0.0000000E+000	-4.6298	0.0000000E+000	0.0000000E+000	0.0000000E+000	4.6298	12.3485	85.3702	-1.69107e-06	-7.21544e-07	-7.46174e-11	-7.2147e-07	0.245563	83589.8	8.64431	83581.2
0.316193	14.5336	1.28155	14.5899	-5.03922	33.0439	0.245598	-0.00394473	392765	3030.36	1	11	0.00500312	0.000342916	0	-7.29906e-05	0.000407158	3.45616e-06	4.74525	0.0100787	0.0100442	-0.000833768	-5.0325	14.5999	14.5436	1.28071	0.0682754	0.00602043	0.0685403	5.03922	3.03036e+06	3.43663e+07	3.44996e+07	-84.9608	0.0000000E+000	0.0000000E+000	0.0000000E+000	84.9608	0.0000000E+000	0.0000000E+000	0.0000000E+000	-84.9608	0.0000000E+000	0.0000000E+000	0.0000000E+000	-5.03922	0.0000000E+000	0.0000000E+000	0.0000000E+000	5.03922	11.3406	84.9608	-3.16593e-05	-9.68816e-07	-1.60613e-09	-9.6721e-07	0.245191	62259.8	103.216	62156.5
0.0999041	15.2057	2.44321	15.4007	-9.12815	78.252	0.245584	-0.00779969	652042	16410.4	1	11	0.00500849	0.000325212	0	-6.48627e-05	0.000101749	2.56021e-06	9.12029	0.00787243	0.00777291	-0.00124784	-9.11898	15.4082	15.2134	2.44197	0.0641099	0.010301	0.0649322	9.12815	1.64104e+07	1.02132e+08	1.03442e+08	-80.8718	0.0000000E+000	0.0000000E+000	0.0000000E+000	80.8718	0.0000000E+000	0.0000000E+000	0.0000000E+000	-80.8718	0.0000000E+000	0.0000000E+000	0.0000000E+000	-9.12815	0.0000000E+000	0.0000000E+000	0.0000000E+000	9.12815	6.22363	80.8718	3.73859e-05	-1.91548e-06	-7.93614e-10	-1.91469e-06	0.245483	31486.4	13.0453	31473.4
0.0315922	16.7697	5.40901	17.6205	-17.8769	242.778	0.245581	-0.00549725	931370	87765.1	1	12	0.00500662	0.000284136	0	-9.40693e-05	0.000101749	3.01617e-06	19.1823	0.0106152	0.0100258	-0.00348789	-17.8561	17.629	16.7798	5.40552	0.054012	0.0174213	0.0567521	17.8769	8.77651e+07	2.72101e+08	2.85905e+08	-72.1231	0.0000000E+000	0.0000000E+000	0.0000000E+000	72.1231	0.0000000E+000	0.0000000E+000	0.0000000E+000	-72.1231	0.0000000E+000	0.0000000E+000	0.0000000E+000	-17.8769	0.0000000E+000	0.0000000E+000	0.0000000E+000	17.8769	3.10033	72.1231	-0.000108229	-1.35002e-06	-5.59342e-10	-1.34946e-06	0.245479	44673.5	18.5091	44654.9
0.0100092	20.2	12.2738	23.6365	-31.2835	694.001	0.245587	-0.00914143	1.29551e+06	349328	1	12	0.00500382	0.000211699	0	-0.00232296	0.000330806	3.25438e-06	-99.6166	0.0153727	-0.00256808	0.0151567	-31.3181	23.6422	20.1974	12.289	0.0361562	0.0219691	0.0423074	31.2835	3.49328e+08	5.74917e+08	6.72726e+08	-58.7165	0.0000000E+000	0.0000000E+000	0.0000000E+000	58.7165	0.0000000E+000	0.0000000E+000	0.0000000E+000	-58.7165	0.0000000E+000	0.0000000E+000	0.0000000E+000	-31.2835	0.0000000E+000	0.0000000E+000	0.0000000E+000	31.2835	1.64578	58.7165	-0.00101244	-2.24502e-06	-3.02404e-09	-2.24199e-06	0.245257	26865.3	36.1876	26829.1