Folder: EIS/txt (part 159)

File: 19078_R307_UC93_28_SOC50_C02.mpt
EC-Lab ASCII FILE
Nb header lines : 65

Potentio Electrochemical Impedance Spectroscopy

Run on channel : 2 (SN 66139)
Grouped channel(s) : 1, 2, 3, 4, 5
User :
CE vs. WE compliance from -10 V to 10 V
Electrode connection : standard
Potential control : Ewe
Ewe ctrl range : min = -10.00 V, max = 10.00 V
Safety Limits :
	Do not start on E overload
Acquisition started on : 11/10/2025 15:44:01.793
Loaded Setting File :  C:\Users\Celltest\OneDrive - store-dot.com\Documents\EC-Lab\Data\@Biologic Test Protocols\cathode half cell EIS SOC50.mps
Saved on :
	File : 19077_R307_UC93_28_SOC50_C02.mpr
	Directory : C:\Users\Celltest\OneDrive - store-dot.com\Documents\EC-Lab\Data\Anna\
	Host : 169.254.61.224
Device : VMP-3e (SN .003165)
Address : USB
EC-LAB for windows v11.62 (software)
Internet server v27.00 (firmware)
Command interpretor v12.03 (firmware)
Electrode material :
Initial state :
Electrolyte :
Comments :
Electrode surface area : 0.001 cm²
Characteristic mass : 0.001 g
Equivalent Weight : 0.000 g/eq.
Density : 0.000 g/cm3
Volume (V) : 0.001 cm³
Record Ece
Cycle Definition : Charge/Discharge alternance
Mode                Multi sine
E (V)               0.0000
vs.                 Eoc
tE (h:m:s)          0:00:0.0000
record              0
dI                  0.000
unit dI             mA
dt (s)              0.000
fi                  1.000
unit fi             MHz
ff                  0.100
unit ff             mHz
Nd                  10
Points              per decade
spacing             Logarithmic
Va (mV)             5.0
pw                  0.10
Na                  2
corr                0
E range min (V)     -10.000
E range max (V)     10.000
I Range             Auto
Bandwidth           5
nc cycles           0
goto Ns'            0
nr cycles           0
inc. cycle          0

freq/Hz	Re(Z)/Ohm	-Im(Z)/Ohm	|Z|/Ohm	Phase(Z)/deg	time/s	<Ewe>/V	<I>/mA	Cs/µF	Cp/µF	cycle number	I Range	|Ewe|/V	|I|/A	Ns	(Q-Qo)/mA.h	<Ece>/V	|Ece|/V	Phase(Zce)/deg	|Zce|/Ohm	Re(Zce)/Ohm	-Im(Zce)/Ohm	Phase(Zwe-ce)/deg	|Zwe-ce|/Ohm	Re(Zwe-ce)/Ohm	-Im(Zwe-ce)/Ohm	Re(Y)/Ohm-1	Im(Y)/Ohm-1	|Y|/Ohm-1	Phase(Y)/deg	Re(C)/nF	Im(C)/nF	|C|/nF	Phase(C)/deg	Re(M)	Im(M)	|M|	Phase(M)/deg	Re(Permittivity)	Im(Permittivity)	|Permittivity|	Phase(Permittivity)/deg	Re(Resistivity)/Ohm.cm	Im(Resistivity)/Ohm.cm	|Resistivity|/Ohm.cm	Phase(Resistivity)/deg	Re(Conductivity)/mS/cm	Im(Conductivity)/mS/cm	|Conductivity|/mS/cm	Phase(Conductivity)/deg	Tan(Delta)	Loss Angle(Delta)/deg	dq/mA.h	Pwe/W	Pce/W	Pwe-ce/W	<Ewe-Ece>/V	Rwe/Ohm	Rce/Ohm	Rwe-ce/Ohm		Ewe-Ece/V
1.00002e+06	2.46627	2.39826	3.44008	-44.1989	2.23353	3.96799	-0.0544625	0.0663615	0.0322531	1	10	0.00023161	6.7327e-05	0	-1.93125e-05	0.000102288	0.000174686	-65.138	2.59459	1.09086	2.35413	-53.1854	5.93619	3.55713	4.75239	0.208403	0.202656	0.290691	44.1989	32.2531	33.1678	46.2641	-45.8011	0.0000000E+000	0.0000000E+000	0.0000000E+000	45.8011	0.0000000E+000	0.0000000E+000	0.0000000E+000	-45.8011	0.0000000E+000	0.0000000E+000	0.0000000E+000	-44.1989	0.0000000E+000	0.0000000E+000	0.0000000E+000	44.1989	1.02836	45.8011	-1.93125e-05	-0.000216106	-5.57084e-09	-0.000216101	3.96789	72857.3	1.87813	72855.4
251206	1.63957	0.446268	1.69922	-15.2263	4.93555	3.96802	-0.047151	1.41969	0.0979238	1	9	0.00440459	0.00259213	0	-5.28464e-05	0.000197742	2.58685e-05	93.848	0.00997963	-0.000669728	-0.00995713	-14.9076	1.69598	1.6389	0.436311	0.567848	0.154561	0.588507	15.2263	97.9239	359.767	372.856	-74.7737	0.0000000E+000	0.0000000E+000	0.0000000E+000	74.7737	0.0000000E+000	0.0000000E+000	0.0000000E+000	-74.7737	0.0000000E+000	0.0000000E+000	0.0000000E+000	-15.2263	0.0000000E+000	0.0000000E+000	0.0000000E+000	15.2263	3.67395	74.7737	-4.66527e-06	-0.000187096	-9.32373e-09	-0.000187087	3.96782	84155.5	4.1938	84151.3
63093.8	2.27948	1.01165	2.49388	-23.932	7.35856	3.96789	-0.0325507	2.49346	0.41031	1	9	0.00544825	0.00218465	0	-7.70163e-05	8.31968e-05	1.81222e-05	86.4691	0.00829526	0.000510878	-0.00827951	-23.7532	2.491	2.27999	1.00337	0.366508	0.162659	0.400981	23.932	410.31	924.521	1011.48	-66.068	0.0000000E+000	0.0000000E+000	0.0000000E+000	66.068	0.0000000E+000	0.0000000E+000	0.0000000E+000	-66.068	0.0000000E+000	0.0000000E+000	0.0000000E+000	-23.932	0.0000000E+000	0.0000000E+000	0.0000000E+000	23.932	2.25323	66.068	-3.02218e-06	-0.000129158	-2.70811e-09	-0.000129155	3.96781	121899	2.55592	121896
15847.7	3.35243	1.66777	3.74436	-26.4494	9.78256	3.96786	-0.0461827	6.0217	1.19463	1	9	0.0049922	0.00133326	0	-9.67384e-05	-3.13483e-05	3.50754e-06	-6.11708	0.0026308	0.00261582	0.00028034	-26.4355	3.74682	3.35504	1.66805	0.239114	0.118955	0.267069	26.4494	1194.64	2401.37	2682.11	-63.5506	0.0000000E+000	0.0000000E+000	0.0000000E+000	63.5506	0.0000000E+000	0.0000000E+000	0.0000000E+000	-63.5506	0.0000000E+000	0.0000000E+000	0.0000000E+000	-26.4494	0.0000000E+000	0.0000000E+000	0.0000000E+000	26.4494	2.01013	63.5506	-5.24162e-06	-0.000183247	1.44775e-09	-0.000183248	3.96789	85916.7	0.678789	85917.4
3983.6	4.95362	2.77122	5.6761	-29.2241	11.541	3.96781	-0.0503945	14.4169	3.4365	1	10	0.00456279	0.000803861	0	-0.000115628	0.000255014	4.21013e-06	-19.6493	0.00523739	0.0049324	0.00176114	-29.2153	5.68126	4.95856	2.77298	0.153753	0.0860146	0.176177	29.2241	3436.5	6142.82	7038.74	-60.7759	0.0000000E+000	0.0000000E+000	0.0000000E+000	60.7759	0.0000000E+000	0.0000000E+000	0.0000000E+000	-60.7759	0.0000000E+000	0.0000000E+000	0.0000000E+000	-29.2241	0.0000000E+000	0.0000000E+000	0.0000000E+000	29.2241	1.78752	60.7759	-3.79403e-06	-0.000199956	-1.28513e-08	-0.000199943	3.96755	78735	5.06036	78729.9
1000.32	8.0265	4.92412	9.41656	-31.5284	14.3838	3.96783	-0.0281773	32.3111	8.83538	1	10	0.00484773	0.000514809	0	-0.000138583	6.41059e-05	3.98316e-06	11.4824	0.00773715	0.0075823	-0.00154021	-31.4963	9.42222	8.03408	4.92258	0.0905193	0.0555321	0.106196	31.5284	8835.38	14402	16896.2	-58.4716	0.0000000E+000	0.0000000E+000	0.0000000E+000	58.4716	0.0000000E+000	0.0000000E+000	0.0000000E+000	-58.4716	0.0000000E+000	0.0000000E+000	0.0000000E+000	-31.5284	0.0000000E+000	0.0000000E+000	0.0000000E+000	31.5284	1.63004	58.4716	-3.74924e-06	-0.000111803	-1.80633e-09	-0.000111801	3.96776	140816	2.27509	140814
251.044	14.2599	6.62455	15.7236	-24.9175	17.0831	3.96783	-0.0278421	95.7004	16.9873	1	10	0.00480594	0.000305652	0	-0.000158846	4.50151e-05	1.02348e-05	-21.7068	0.033485	0.0311105	0.0123847	-24.9107	15.757	14.2911	6.63693	0.0576787	0.026795	0.0635988	24.9175	16987.3	36566.7	40319.8	-65.0825	0.0000000E+000	0.0000000E+000	0.0000000E+000	65.0825	0.0000000E+000	0.0000000E+000	0.0000000E+000	-65.0825	0.0000000E+000	0.0000000E+000	0.0000000E+000	-24.9175	0.0000000E+000	0.0000000E+000	0.0000000E+000	24.9175	2.15259	65.0825	-3.45742e-06	-0.000110472	-1.25331e-09	-0.000110471	3.96778	142512	1.6168	142510
[...]
0.0602816	26.9488	3.6839	27.1994	-7.78407	240.447	3.96785	-0.018541	716684	13146.9	1	11	0.00499786	0.000183748	0	-0.00220929	0.000197742	5.14669e-07	-28.5168	0.00280094	0.00246113	0.00133722	-7.78616	27.2021	26.9513	3.68523	0.0364267	0.00497952	0.0367655	7.78407	1.31469e+07	9.61733e+07	9.70678e+07	-82.2159	0.0000000E+000	0.0000000E+000	0.0000000E+000	82.2159	0.0000000E+000	0.0000000E+000	0.0000000E+000	-82.2159	0.0000000E+000	0.0000000E+000	0.0000000E+000	-7.78407	0.0000000E+000	0.0000000E+000	0.0000000E+000	7.78407	7.3153	82.2159	0.000000000000000E+000	-7.35679e-05	-3.66633e-09	-7.35642e-05	3.96765	214004	10.6651	213994
0.00796479	36.6358	8.36843	37.5794	-12.8669	20329.4	3.96786	-0.00047214	2.38782e+06	118411	1	11	0.00499395	0.000132891	0	-0.0157129	-0.000145893	3.12794e-07	-143.448	0.00235377	-0.00189081	0.00140181	-12.8696	37.5779	36.6339	8.36984	0.0259421	0.00592577	0.0266103	12.8669	1.18411e+08	5.18384e+08	5.31736e+08	-77.1331	0.0000000E+000	0.0000000E+000	0.0000000E+000	77.1331	0.0000000E+000	0.0000000E+000	0.0000000E+000	-77.1331	0.0000000E+000	0.0000000E+000	0.0000000E+000	-12.8669	0.0000000E+000	0.0000000E+000	0.0000000E+000	12.8669	4.37785	77.1331	-0.0135036	-1.87338e-06	6.88821e-11	-1.87345e-06	3.96801	8.40399e+06	309.005	8.4043e+06
0.0019912	45.1699	12.2164	46.7927	-15.1338	20329.4	3.96786	-0.00047214	6.5428e+06	445956	1	11	0.00500605	0.000106984	0	-0.0157129	-0.000145893	3.4169e-07	-31.2436	0.00319386	0.00273065	0.00165658	-15.1349	46.7958	45.1726	12.218	0.0206297	0.00557937	0.0213708	15.1338	4.45955e+08	1.64892e+09	1.70816e+09	-74.8662	0.0000000E+000	0.0000000E+000	0.0000000E+000	74.8662	0.0000000E+000	0.0000000E+000	0.0000000E+000	-74.8662	0.0000000E+000	0.0000000E+000	0.0000000E+000	-15.1338	0.0000000E+000	0.0000000E+000	0.0000000E+000	15.1338	3.69749	74.8662	0.000000000000000E+000	-1.87338e-06	6.88821e-11	-1.87345e-06	3.96801	8.40399e+06	309.005	8.4043e+06
0.000497799	51.4844	17.3791	54.3385	-18.6526	20329.4	3.96786	-0.00047214	1.83967e+07	1.88182e+06	1	11	0.00500955	9.21916e-05	0	-0.0157129	-0.000145893	1.36928e-06	-118.247	0.0148525	-0.00702921	0.0130838	-18.6681	54.336	51.4773	17.3921	0.0174365	0.00588588	0.0184032	18.6526	1.88182e+09	5.57476e+09	5.88381e+09	-71.3474	0.0000000E+000	0.0000000E+000	0.0000000E+000	71.3474	0.0000000E+000	0.0000000E+000	0.0000000E+000	-71.3474	0.0000000E+000	0.0000000E+000	0.0000000E+000	-18.6526	0.0000000E+000	0.0000000E+000	0.0000000E+000	18.6526	2.96244	71.3474	0.000000000000000E+000	-1.87338e-06	6.88821e-11	-1.87345e-06	3.96801	8.40399e+06	309.005	8.4043e+06
9.95598e-05	60.9108	79.8745	100.449	-52.6715	20329.4	3.96786	-0.00047214	2.00137e+07	1.26546e+07	1	11	0.00500231	4.97994e-05	0	-0.0157129	-0.000145893	4.80854e-06	50.8554	0.0965583	0.0609553	-0.0748863	-52.618	100.427	60.9718	79.7996	0.00603671	0.00791615	0.00995527	52.6715	1.26546e+10	9.6502e+09	1.59144e+10	-37.3285	0.0000000E+000	0.0000000E+000	0.0000000E+000	37.3285	0.0000000E+000	0.0000000E+000	0.0000000E+000	-37.3285	0.0000000E+000	0.0000000E+000	0.0000000E+000	-52.6715	0.0000000E+000	0.0000000E+000	0.0000000E+000	52.6715	0.762582	37.3285	0.000000000000000E+000	-1.87338e-06	6.88821e-11	-1.87345e-06	3.96801	8.40399e+06	309.005	8.4043e+06

File: 19079_R307_UC93_28_SOC50_C03.mpt
EC-Lab ASCII FILE
Nb header lines : 65

Potentio Electrochemical Impedance Spectroscopy

Run on channel : 3 (SN 65921)
Grouped channel(s) : 1, 2, 3, 4, 5
User :
CE vs. WE compliance from -10 V to 10 V
Electrode connection : standard
Potential control : Ewe
Ewe ctrl range : min = -10.00 V, max = 10.00 V
Safety Limits :
	Do not start on E overload
Acquisition started on : 11/10/2025 15:44:01.793
Loaded Setting File :  C:\Users\Celltest\OneDrive - store-dot.com\Documents\EC-Lab\Data\@Biologic Test Protocols\cathode half cell EIS SOC50.mps
Saved on :
	File : 19077_R307_UC93_28_SOC50_C03.mpr
	Directory : C:\Users\Celltest\OneDrive - store-dot.com\Documents\EC-Lab\Data\Anna\
	Host : 169.254.61.224
Device : VMP-3e (SN .003165)
Address : USB
EC-LAB for windows v11.62 (software)
Internet server v27.00 (firmware)
Command interpretor v12.03 (firmware)
Electrode material :
Initial state :
Electrolyte :
Comments :
Electrode surface area : 0.001 cm²
Characteristic mass : 0.001 g
Equivalent Weight : 0.000 g/eq.
Density : 0.000 g/cm3
Volume (V) : 0.001 cm³
Record Ece
Cycle Definition : Charge/Discharge alternance
Mode                Multi sine
E (V)               0.0000
vs.                 Eoc
tE (h:m:s)          0:00:0.0000
record              0
dI                  0.000
unit dI             mA
dt (s)              0.000
fi                  1.000
unit fi             MHz
ff                  0.100
unit ff             mHz
Nd                  10
Points              per decade
spacing             Logarithmic
Va (mV)             5.0
pw                  0.10
Na                  2
corr                0
E range min (V)     -10.000
E range max (V)     10.000
I Range             Auto
Bandwidth           5
nc cycles           0
goto Ns'            0
nr cycles           0
inc. cycle          0

freq/Hz	Re(Z)/Ohm	-Im(Z)/Ohm	|Z|/Ohm	Phase(Z)/deg	time/s	<Ewe>/V	<I>/mA	Cs/µF	Cp/µF	cycle number	I Range	|Ewe|/V	|I|/A	Ns	(Q-Qo)/mA.h	<Ece>/V	|Ece|/V	Phase(Zce)/deg	|Zce|/Ohm	Re(Zce)/Ohm	-Im(Zce)/Ohm	Phase(Zwe-ce)/deg	|Zwe-ce|/Ohm	Re(Zwe-ce)/Ohm	-Im(Zwe-ce)/Ohm	Re(Y)/Ohm-1	Im(Y)/Ohm-1	|Y|/Ohm-1	Phase(Y)/deg	Re(C)/nF	Im(C)/nF	|C|/nF	Phase(C)/deg	Re(M)	Im(M)	|M|	Phase(M)/deg	Re(Permittivity)	Im(Permittivity)	|Permittivity|	Phase(Permittivity)/deg	Re(Resistivity)/Ohm.cm	Im(Resistivity)/Ohm.cm	|Resistivity|/Ohm.cm	Phase(Resistivity)/deg	Re(Conductivity)/mS/cm	Im(Conductivity)/mS/cm	|Conductivity|/mS/cm	Phase(Conductivity)/deg	Tan(Delta)	Loss Angle(Delta)/deg	dq/mA.h	Pwe/W	Pce/W	Pwe-ce/W	<Ewe-Ece>/V	Rwe/Ohm	Rce/Ohm	Rwe-ce/Ohm		Ewe-Ece/V
1.00002e+06	2.90936	2.24138	3.67262	-37.6108	2.23356	3.96896	-0.00773435	0.0710062	0.0264469	1	10	0.000232226	6.32317e-05	0	-7.72435e-06	-0.000264439	0.000192874	-66.0237	3.05028	1.23951	2.78708	-50.4747	6.51909	4.14887	5.02846	0.215697	0.166174	0.272285	37.6108	26.4469	34.3286	43.3347	-52.3892	0.0000000E+000	0.0000000E+000	0.0000000E+000	52.3892	0.0000000E+000	0.0000000E+000	0.0000000E+000	-52.3892	0.0000000E+000	0.0000000E+000	0.0000000E+000	-37.6108	0.0000000E+000	0.0000000E+000	0.0000000E+000	37.6108	1.29802	52.3892	-7.72435e-06	-3.06973e-05	2.04526e-09	-3.06993e-05	3.96922	513160	34.1902	513194
251206	1.48327	0.353193	1.52474	-13.3937	4.93653	3.96856	0.00659455	1.79381	0.0962516	1	9	0.00355706	0.00233289	0	-6.41305e-06	6.01604e-05	5.783e-05	93.405	0.024789	-0.00147231	-0.0247452	-12.4978	1.51777	1.4818	0.328448	0.638009	0.151921	0.655848	13.3937	96.2516	404.219	415.521	-76.6063	0.0000000E+000	0.0000000E+000	0.0000000E+000	76.6063	0.0000000E+000	0.0000000E+000	0.0000000E+000	-76.6063	0.0000000E+000	0.0000000E+000	0.0000000E+000	-13.3937	0.0000000E+000	0.0000000E+000	0.0000000E+000	13.3937	4.19961	76.6063	-2.1845e-06	2.61709e-05	3.96731e-10	2.61705e-05	3.9685	601794	9.12275	601785
63093.8	2.01434	0.938696	2.22232	-24.9859	7.24056	3.96847	0.0144635	2.68725	0.479452	1	9	0.0052832	0.00237734	0	4.35476e-06	4.10664e-05	1.83455e-05	46.9348	0.00771685	0.0052693	-0.00563775	-24.7969	2.22473	2.01961	0.933058	0.407868	0.190069	0.44998	24.9859	479.452	1028.85	1135.08	-65.0141	0.0000000E+000	0.0000000E+000	0.0000000E+000	65.0141	0.0000000E+000	0.0000000E+000	0.0000000E+000	-65.0141	0.0000000E+000	0.0000000E+000	0.0000000E+000	-24.9859	0.0000000E+000	0.0000000E+000	0.0000000E+000	24.9859	2.14589	65.0141	-4.15438e-06	5.7398e-05	5.93963e-10	5.73974e-05	3.96843	274378	2.83931	274376
15847.7	3.06889	1.66118	3.48964	-28.4265	9.53855	3.96847	0.0117783	6.04558	1.36996	1	9	0.0051597	0.00147858	0	4.15274e-06	-0.000149874	6.2418e-06	-32.3649	0.0042215	0.00356571	0.00225981	-28.4313	3.49386	3.07246	1.66344	0.252011	0.136412	0.286562	28.4265	1369.96	2530.89	2877.88	-61.5735	0.0000000E+000	0.0000000E+000	0.0000000E+000	61.5735	0.0000000E+000	0.0000000E+000	0.0000000E+000	-61.5735	0.0000000E+000	0.0000000E+000	0.0000000E+000	-28.4265	0.0000000E+000	0.0000000E+000	0.0000000E+000	28.4265	1.84742	61.5735	-1.98048e-07	4.67419e-05	-1.76527e-09	4.67436e-05	3.96862	336930	12.7246	336942
3983.6	4.68797	2.69797	5.40889	-29.9208	11.5451	3.96845	-0.0207854	14.8084	3.68438	1	10	0.00537811	0.000994308	0	1.19685e-06	-7.3498e-05	4.44785e-06	109.465	0.00447331	-0.00149067	-0.00421763	-29.8899	5.4055	4.68648	2.69375	0.160239	0.0922189	0.184881	29.9208	3684.38	6401.95	7386.45	-60.0792	0.0000000E+000	0.0000000E+000	0.0000000E+000	60.0792	0.0000000E+000	0.0000000E+000	0.0000000E+000	-60.0792	0.0000000E+000	0.0000000E+000	0.0000000E+000	-29.9208	0.0000000E+000	0.0000000E+000	0.0000000E+000	29.9208	1.73759	60.0792	-1.33972e-06	-8.24859e-05	1.52769e-09	-8.24874e-05	3.96852	190925	3.53604	190928
1000.32	7.66502	4.54915	8.91332	-30.6889	14.1738	3.96842	-0.0188874	34.9744	9.11029	1	10	0.00496414	0.000556935	0	-1.32813e-05	-7.3498e-05	4.49738e-06	150.094	0.00807523	-0.00699993	-0.00402619	-30.6896	8.90525	7.65802	4.54513	0.0964793	0.05726	0.112192	30.6889	9110.29	15350.2	17850.1	-59.3111	0.0000000E+000	0.0000000E+000	0.0000000E+000	59.3111	0.0000000E+000	0.0000000E+000	0.0000000E+000	-59.3111	0.0000000E+000	0.0000000E+000	0.0000000E+000	-30.6889	0.0000000E+000	0.0000000E+000	0.0000000E+000	30.6889	1.68493	59.3111	-1.89636e-06	-7.49533e-05	1.38819e-09	-7.49546e-05	3.96849	210109	3.89137	210113
251.044	13.3109	5.88632	14.5543	-23.8559	16.8741	3.96842	-0.0180671	107.703	17.6169	1	10	0.00485979	0.000333907	0	-2.64873e-05	0.000193819	6.28536e-06	-14.6146	0.0188237	0.0182146	0.00474951	-23.844	14.5729	13.3291	5.89107	0.0628381	0.0277882	0.0687081	23.8559	17616.9	39837.5	43559	-66.1441	0.0000000E+000	0.0000000E+000	0.0000000E+000	66.1441	0.0000000E+000	0.0000000E+000	0.0000000E+000	-66.1441	0.0000000E+000	0.0000000E+000	0.0000000E+000	-23.8559	0.0000000E+000	0.0000000E+000	0.0000000E+000	23.8559	2.26132	66.1441	-2.15353e-06	-7.16977e-05	-3.50174e-09	-7.16942e-05	3.96823	219649	10.7277	219639
[...]
0.0602816	24.8	3.66497	25.0694	-8.40639	240.227	3.96844	-0.012639	720385	15396.4	1	11	0.0050569	0.000201717	0	-0.00173759	-0.000111686	3.21741e-07	6.37899	0.00159501	0.00158514	-0.000177213	-8.40546	25.0709	24.8016	3.66479	0.0394608	0.00583156	0.0398893	8.40639	1.53964e+07	1.04184e+08	1.05315e+08	-81.5936	0.0000000E+000	0.0000000E+000	0.0000000E+000	81.5936	0.0000000E+000	0.0000000E+000	0.0000000E+000	-81.5936	0.0000000E+000	0.0000000E+000	0.0000000E+000	-8.40639	0.0000000E+000	0.0000000E+000	0.0000000E+000	8.40639	6.76677	81.5936	0.000000000000000E+000	-5.01569e-05	1.4116e-09	-5.01583e-05	3.96855	313985	8.83666	313994
0.00796479	34.0699	8.44214	35.1003	-13.9169	20329.1	3.96845	-9.947e-06	2.36697e+06	136923	1	11	0.00505151	0.000143917	0	-0.0107628	-1.62158e-05	8.86047e-07	-1.74552	0.00615667	0.00615381	0.000187534	-13.9148	35.1063	34.0761	8.44233	0.0276535	0.00685222	0.0284898	13.9169	1.36923e+08	5.52581e+08	5.69292e+08	-76.0831	0.0000000E+000	0.0000000E+000	0.0000000E+000	76.0831	0.0000000E+000	0.0000000E+000	0.0000000E+000	-76.0831	0.0000000E+000	0.0000000E+000	0.0000000E+000	-13.9169	0.0000000E+000	0.0000000E+000	0.0000000E+000	13.9169	4.0357	76.0831	-0.00902518	-3.94742e-08	1.61299e-13	-3.94744e-08	3.96847	3.9896e+08	1630.22	3.98961e+08
0.0019912	42.6936	12.4011	44.4582	-16.1969	20329.1	3.96845	-9.947e-06	6.44533e+06	501490	1	11	0.00506574	0.000113944	0	-0.0107628	-1.62158e-05	7.07952e-07	11.1225	0.00621318	0.00609647	-0.00119857	-16.1932	44.4637	42.6997	12.3999	0.0216003	0.00627417	0.022493	16.1969	5.0149e+08	1.72649e+09	1.79785e+09	-73.8031	0.0000000E+000	0.0000000E+000	0.0000000E+000	73.8031	0.0000000E+000	0.0000000E+000	0.0000000E+000	-73.8031	0.0000000E+000	0.0000000E+000	0.0000000E+000	-16.1969	0.0000000E+000	0.0000000E+000	0.0000000E+000	16.1969	3.44273	73.8031	0.000000000000000E+000	-3.94742e-08	1.61299e-13	-3.94744e-08	3.96847	3.9896e+08	1630.22	3.98961e+08
0.000497799	49.2403	17.9015	52.3934	-19.979	20329.1	3.96845	-9.947e-06	1.78598e+07	2.08498e+06	1	11	0.00506328	9.66396e-05	0	-0.0107628	-1.62158e-05	3.70206e-07	-73.8251	0.00383079	0.00106714	0.00367915	-19.9823	52.3957	49.2414	17.9052	0.0179377	0.00652133	0.0190864	19.979	2.08498e+09	5.735e+09	6.10224e+09	-70.021	0.0000000E+000	0.0000000E+000	0.0000000E+000	70.021	0.0000000E+000	0.0000000E+000	0.0000000E+000	-70.021	0.0000000E+000	0.0000000E+000	0.0000000E+000	-19.979	0.0000000E+000	0.0000000E+000	0.0000000E+000	19.979	2.75062	70.021	0.000000000000000E+000	-3.94742e-08	1.61299e-13	-3.94744e-08	3.96847	3.9896e+08	1630.22	3.98961e+08
9.95598e-05	58.7782	80.2443	99.4687	-53.7776	20329.1	3.96845	-9.947e-06	1.99215e+07	1.29651e+07	1	11	0.00506371	5.09076e-05	0	-0.0107628	-1.62158e-05	2.12299e-06	56.8291	0.0417028	0.0228172	-0.034907	-53.7551	99.4541	58.801	80.2094	0.00594078	0.00811038	0.0100534	53.7776	1.29651e+10	9.49684e+09	1.60712e+10	-36.2224	0.0000000E+000	0.0000000E+000	0.0000000E+000	36.2224	0.0000000E+000	0.0000000E+000	0.0000000E+000	-36.2224	0.0000000E+000	0.0000000E+000	0.0000000E+000	-53.7776	0.0000000E+000	0.0000000E+000	0.0000000E+000	53.7776	0.732491	36.2224	0.000000000000000E+000	-3.94742e-08	1.61299e-13	-3.94744e-08	3.96847	3.9896e+08	1630.22	3.98961e+08