Folder: EIS/txt (part 63)

File: 17714_R287_UA663_SOC00_C04.mpt
EC-Lab ASCII FILE

Nb header lines : 63

Potentio Electrochemical Impedance Spectroscopy

Run on channel : 4 (SN 66756)
User :
CE vs. WE compliance from -10 V to 10 V
Electrode connection : standard
Potential control : Ewe
Ewe ctrl range : min = -10.00 V, max = 10.00 V
Safety Limits :
	Do not start on E overload
Acquisition started on : 09/22/2025 10:25:21.346
Loaded Setting File :  C:\Users\Celltest\OneDrive - store-dot.com\Documents\EC-Lab\Data\Gyutae\17739_R277_UA674_SOC00_C03.mpr
Saved on :
	File : 17714_R287_UA663_SOC00_C04.mpr
	Directory : C:\Users\Celltest\OneDrive - store-dot.com\Documents\EC-Lab\Data\Charmaine\
	Host : 169.254.61.224
Device : VMP-3e (SN .003165)
Address : USB
EC-LAB for windows v11.62 (software)
Internet server v27.00 (firmware)
Command interpretor v12.03 (firmware)
Electrode material :
Initial state :
Electrolyte :
Comments :
Electrode surface area : 0.001 cm²
Characteristic mass : 0.001 g
Equivalent Weight : 0.000 g/eq.
Density : 0.000 g/cm3
Volume (V) : 0.001 cm³
Cycle Definition : Charge/Discharge alternance
Mode                Single sine
E (V)               0.0000
vs.                 Eoc
tE (h:m:s)          0:00:0.0000
record              0
dI                  0.000
unit dI             mA
dt (s)              0.000
fi                  100.000
unit fi             kHz
ff                  10.000
unit ff             mHz
Nd                  6
Points              per decade
spacing             Logarithmic
Va (mV)             5.0
pw                  0.10
Na                  2
corr                0
E range min (V)     -10.000
E range max (V)     10.000
I Range             Auto
Bandwidth           5
nc cycles           0
goto Ns'            0
nr cycles           0
inc. cycle          0

freq/Hz	Re(Z)/Ohm	-Im(Z)/Ohm	|Z|/Ohm	Phase(Z)/deg	time/s	<Ewe>/V	<I>/mA	Cs/µF	Cp/µF	cycle number	I Range	|Ewe|/V	|I|/A	Ns	(Q-Qo)/mA.h	Re(Y)/Ohm-1	Im(Y)/Ohm-1	|Y|/Ohm-1	Phase(Y)/deg	Re(C)/nF	Im(C)/nF	|C|/nF	Phase(C)/deg	Re(M)	Im(M)	|M|	Phase(M)/deg	Re(Permittivity)	Im(Permittivity)	|Permittivity|	Phase(Permittivity)/deg	Re(Resistivity)/Ohm.cm	Im(Resistivity)/Ohm.cm	|Resistivity|/Ohm.cm	Phase(Resistivity)/deg	Re(Conductivity)/mS/cm	Im(Conductivity)/mS/cm	|Conductivity|/mS/cm	Phase(Conductivity)/deg	Tan(Delta)	Loss Angle(Delta)/deg	dq/mA.h	Pwe/W	Rwe/Ohm
100004	1.18226	0.222776	1.20307	-10.6712	2.06648	0.279269	-0.0194358	7.1439	0.244957	1	9	0.00460826	0.00383042	0	-9.72625e-06	0.816831	0.153917	0.831206	10.6712	244.957	1299.98	1322.86	-79.3288	0.0000000E+000	0.0000000E+000	0.0000000E+000	79.3288	0.0000000E+000	0.0000000E+000	0.0000000E+000	-79.3288	0.0000000E+000	0.0000000E+000	0.0000000E+000	-10.6712	0.0000000E+000	0.0000000E+000	0.0000000E+000	10.6712	5.30697	79.3288	-9.72625e-06	-5.42782e-06	14368.8
46420.4	1.29413	0.268196	1.32163	-11.7083	3.08149	0.279267	-0.0120323	12.7838	0.526436	1	9	0.00506157	0.0038298	0	-2.33797e-05	0.7409	0.153544	0.756643	11.7083	526.436	2540.22	2594.2	-78.2917	0.0000000E+000	0.0000000E+000	0.0000000E+000	78.2917	0.0000000E+000	0.0000000E+000	0.0000000E+000	-78.2917	0.0000000E+000	0.0000000E+000	0.0000000E+000	-11.7083	0.0000000E+000	0.0000000E+000	0.0000000E+000	11.7083	4.82532	78.2917	-1.52993e-05	-3.36023e-06	23209.8
21544.7	1.42584	0.343533	1.46664	-13.5463	4.09649	0.279266	-0.018578	21.5036	1.17978	1	9	0.00528525	0.00360364	0	-2.91557e-05	0.662863	0.159706	0.68183	13.5463	1179.78	4896.7	5036.82	-76.4537	0.0000000E+000	0.0000000E+000	0.0000000E+000	76.4537	0.0000000E+000	0.0000000E+000	0.0000000E+000	-76.4537	0.0000000E+000	0.0000000E+000	0.0000000E+000	-13.5463	0.0000000E+000	0.0000000E+000	0.0000000E+000	13.5463	4.15052	76.4537	-3.94546e-07	-5.1882e-06	15032.1
10002.2	1.57714	0.440364	1.63747	-15.6006	4.6885	0.27926	-0.0231096	36.1336	2.61331	1	9	0.00465831	0.00284483	0	-3.27938e-05	0.588202	0.164236	0.6107	15.6006	2613.31	9359.43	9717.43	-74.3994	0.0000000E+000	0.0000000E+000	0.0000000E+000	74.3994	0.0000000E+000	0.0000000E+000	0.0000000E+000	-74.3994	0.0000000E+000	0.0000000E+000	0.0000000E+000	-15.6006	0.0000000E+000	0.0000000E+000	0.0000000E+000	15.6006	3.58145	74.3994	-3.46244e-06	-6.45359e-06	12084.1
4641.49	1.76934	0.610672	1.87176	-19.0417	5.71467	0.279239	-0.00157044	56.1507	5.97684	1	9	0.00482433	0.00257743	0	-4.82504e-05	0.505023	0.174304	0.534257	19.0417	5976.84	17317.1	18319.5	-70.9583	0.0000000E+000	0.0000000E+000	0.0000000E+000	70.9583	0.0000000E+000	0.0000000E+000	0.0000000E+000	-70.9583	0.0000000E+000	0.0000000E+000	0.0000000E+000	-19.0417	0.0000000E+000	0.0000000E+000	0.0000000E+000	19.0417	2.89736	70.9583	-2.83578e-06	-4.38528e-07	177809
2155.69	2.01939	0.894726	2.20872	-23.8966	6.64767	0.279242	-0.00350991	82.5171	13.5407	1	9	0.00470282	0.0021292	0	-5.05208e-05	0.413939	0.183403	0.45275	23.8966	13540.7	30561.2	33426.6	-66.1034	0.0000000E+000	0.0000000E+000	0.0000000E+000	66.1034	0.0000000E+000	0.0000000E+000	0.0000000E+000	-66.1034	0.0000000E+000	0.0000000E+000	0.0000000E+000	-23.8966	0.0000000E+000	0.0000000E+000	0.0000000E+000	23.8966	2.25699	66.1034	-1.85984e-06	-9.80114e-07	79558.1
1000.32	2.38965	1.38598	2.7625	-30.1134	7.5837	0.279241	-0.00414398	114.795	28.8958	1	9	0.00465323	0.00168443	0	-5.3785e-05	0.313135	0.181616	0.361991	30.1134	28895.8	49821	57594.3	-59.8866	0.0000000E+000	0.0000000E+000	0.0000000E+000	59.8866	0.0000000E+000	0.0000000E+000	0.0000000E+000	-59.8866	0.0000000E+000	0.0000000E+000	0.0000000E+000	-30.1134	0.0000000E+000	0.0000000E+000	0.0000000E+000	30.1134	1.72416	59.8866	-8.85623e-07	-1.15717e-06	67384.7
463.961	3.00191	2.20301	3.72354	-36.2738	8.77222	0.279234	-0.0172841	155.712	54.5059	1	10	0.00469461	0.00126079	0	-5.85653e-05	0.216514	0.158893	0.268562	36.2738	54505.9	74272	92126.2	-53.7262	0.0000000E+000	0.0000000E+000	0.0000000E+000	53.7262	0.0000000E+000	0.0000000E+000	0.0000000E+000	-53.7262	0.0000000E+000	0.0000000E+000	0.0000000E+000	-36.2738	0.0000000E+000	0.0000000E+000	0.0000000E+000	36.2738	1.36264	53.7262	-1.46121e-06	-4.82632e-06	16155.5
215.345	4.05822	3.44882	5.32574	-40.3591	9.70643	0.279232	-0.0180209	214.297	89.8664	1	10	0.00464695	0.000872545	0	-6.26911e-05	0.143079	0.121594	0.187767	40.3591	89866.4	105745	138773	-49.6409	0.0000000E+000	0.0000000E+000	0.0000000E+000	49.6409	0.0000000E+000	0.0000000E+000	0.0000000E+000	-49.6409	0.0000000E+000	0.0000000E+000	0.0000000E+000	-40.3591	0.0000000E+000	0.0000000E+000	0.0000000E+000	40.3591	1.1767	49.6409	-2.45387e-06	-5.032e-06	15494.9
100.032	5.92601	5.19377	7.8799	-41.2325	10.6377	0.279249	-0.0180153	306.336	133.083	1	10	0.00463319	0.000587976	0	-6.72124e-05	0.095438	0.0836452	0.126905	41.2325	133083	151846	201911	-48.7675	0.0000000E+000	0.0000000E+000	0.0000000E+000	48.7675	0.0000000E+000	0.0000000E+000	0.0000000E+000	-48.7675	0.0000000E+000	0.0000000E+000	0.0000000E+000	-41.2325	0.0000000E+000	0.0000000E+000	0.0000000E+000	41.2325	1.14099	48.7675	-2.22143e-06	-5.03074e-06	15500.7
46.4415	9.10134	7.12664	11.5596	-38.0621	11.5716	0.279244	-0.0197815	480.871	182.775	1	10	0.00462483	0.000400087	0	-7.16882e-05	0.0681119	0.0533338	0.0865085	38.0621	182775	233419	296464	-51.9379	0.0000000E+000	0.0000000E+000	0.0000000E+000	51.9379	0.0000000E+000	0.0000000E+000	0.0000000E+000	-51.9379	0.0000000E+000	0.0000000E+000	0.0000000E+000	-38.0621	0.0000000E+000	0.0000000E+000	0.0000000E+000	38.0621	1.27709	51.9379	-2.58473e-06	-5.52386e-06	14116.4
[...]
0.464091	29.996	3.96694	30.2571	-7.5336	28.5769	0.279279	-0.00231467	86449.3	1485.99	1	12	0.00462813	0.00015296	0	-9.61815e-05	0.0327648	0.00433311	0.03305	7.5336	1.48599e+06	1.12363e+07	1.13342e+07	-82.4664	0.0000000E+000	0.0000000E+000	0.0000000E+000	82.4664	0.0000000E+000	0.0000000E+000	0.0000000E+000	-82.4664	0.0000000E+000	0.0000000E+000	0.0000000E+000	-7.5336	0.0000000E+000	0.0000000E+000	0.0000000E+000	7.5336	7.56149	82.4664	-1.27293e-05	-6.4644e-07	120656
0.215268	31.5591	3.57472	31.7609	-6.46239	45.0569	0.27928	-0.0025494	206823	2619.98	1	12	0.00462954	0.000145762	0	-0.000129276	0.0312852	0.0035437	0.0314853	6.46239	2.61998e+06	2.31302e+07	2.32782e+07	-83.5376	0.0000000E+000	0.0000000E+000	0.0000000E+000	83.5376	0.0000000E+000	0.0000000E+000	0.0000000E+000	-83.5376	0.0000000E+000	0.0000000E+000	0.0000000E+000	-6.46239	0.0000000E+000	0.0000000E+000	0.0000000E+000	6.46239	8.8284	83.5376	-1.57443e-05	-7.11997e-07	109547
0.0999041	32.8598	3.92618	33.0935	-6.81357	80.4635	0.279279	-0.0027209	405757	5711.14	1	12	0.00463087	0.000139933	0	-0.000119127	0.030004	0.00358497	0.0302174	6.81357	5.71113e+06	4.77987e+07	4.81387e+07	-83.1864	0.0000000E+000	0.0000000E+000	0.0000000E+000	83.1864	0.0000000E+000	0.0000000E+000	0.0000000E+000	-83.1864	0.0000000E+000	0.0000000E+000	0.0000000E+000	-6.81357	0.0000000E+000	0.0000000E+000	0.0000000E+000	6.81357	8.36939	83.1864	1.48037e-05	-7.5989e-07	102642
0.0464052	34.3112	5.04469	34.6801	-8.36412	156.7	0.279279	-0.00128994	679859	14385.6	1	12	0.00462665	0.000133409	0	-3.58203e-05	0.0285283	0.00419444	0.028835	8.36412	1.43856e+07	9.78428e+07	9.88947e+07	-81.6359	0.0000000E+000	0.0000000E+000	0.0000000E+000	81.6359	0.0000000E+000	0.0000000E+000	0.0000000E+000	-81.6359	0.0000000E+000	0.0000000E+000	0.0000000E+000	-8.36412	0.0000000E+000	0.0000000E+000	0.0000000E+000	8.36412	6.80146	81.6359	4.97713e-05	-3.60254e-07	216505
0.0215268	36.3708	7.80785	37.1994	-12.116	320.928	0.279274	0.000314429	946911	41715.7	1	12	0.00462747	0.000124396	0	-6.11548e-05	0.0262833	0.00564233	0.0268821	12.116	4.17157e+07	1.94322e+08	1.98749e+08	-77.884	0.0000000E+000	0.0000000E+000	0.0000000E+000	77.884	0.0000000E+000	0.0000000E+000	0.0000000E+000	-77.884	0.0000000E+000	0.0000000E+000	0.0000000E+000	-12.116	0.0000000E+000	0.0000000E+000	0.0000000E+000	12.116	4.65824	77.884	-5.39352e-05	8.78119e-08	888193
0.0146812	37.5759	9.74195	38.8182	-14.5345	464.123	0.279271	7.85234e-05	1.11279e+06	70086.6	1	12	0.00462626	0.000119178	0	-0.00025163	0.0249367	0.00646511	0.0257611	14.5345	7.00866e+07	2.70332e+08	2.7927e+08	-75.4655	0.0000000E+000	0.0000000E+000	0.0000000E+000	75.4655	0.0000000E+000	0.0000000E+000	0.0000000E+000	-75.4655	0.0000000E+000	0.0000000E+000	0.0000000E+000	-14.5345	0.0000000E+000	0.0000000E+000	0.0000000E+000	14.5345	3.85712	75.4655	-0.000190475	2.19293e-08	3.55653e+06

0.0100092	39.2581	12.1012	41.0809	-17.1317	674.144	0.279275	-0.000445659	1.314e+06	114017	1	12	0.0046274	0.000112641	0	-0.000588872	0.0232622	0.00717048	0.0243422	17.1317	1.14017e+08	3.6989e+08	3.87064e+08	-72.8683	0.0000000E+000	0.0000000E+000	0.0000000E+000	72.8683	0.0000000E+000	0.0000000E+000	0.0000000E+000	-72.8683	0.0000000E+000	0.0000000E+000	0.0000000E+000	-17.1317	0.0000000E+000	0.0000000E+000	0.0000000E+000	17.1317	3.24416	72.8683	-0.000337242	-1.24461e-07	626656

File: 17715_R287_UA663_SOC00_C05.mpt
EC-Lab ASCII FILE

Nb header lines : 63

Potentio Electrochemical Impedance Spectroscopy

Run on channel : 5 (SN 65912)
User :
CE vs. WE compliance from -10 V to 10 V
Electrode connection : standard
Potential control : Ewe
Ewe ctrl range : min = -10.00 V, max = 10.00 V
Safety Limits :
	Do not start on E overload
Acquisition started on : 09/22/2025 10:25:27.551
Loaded Setting File :  C:\Users\Celltest\OneDrive - store-dot.com\Documents\EC-Lab\Data\Gyutae\17740_R277_UA674_SOC00_C04.mpr
Saved on :
	File : 17715_R287_UA663_SOC00_C05.mpr
	Directory : C:\Users\Celltest\OneDrive - store-dot.com\Documents\EC-Lab\Data\Charmaine\
	Host : 169.254.61.224
Device : VMP-3e (SN .003165)
Address : USB
EC-LAB for windows v11.62 (software)
Internet server v27.00 (firmware)
Command interpretor v12.03 (firmware)
Electrode material :
Initial state :
Electrolyte :
Comments :
Electrode surface area : 0.001 cm²
Characteristic mass : 0.001 g
Equivalent Weight : 0.000 g/eq.
Density : 0.000 g/cm3
Volume (V) : 0.001 cm³
Cycle Definition : Charge/Discharge alternance
Mode                Single sine
E (V)               0.0000
vs.                 Eoc
tE (h:m:s)          0:00:0.0000
record              0
dI                  0.000
unit dI             mA
dt (s)              0.000
fi                  100.000
unit fi             kHz
ff                  10.000
unit ff             mHz
Nd                  6
Points              per decade
spacing             Logarithmic
Va (mV)             5.0
pw                  0.10
Na                  2
corr                0
E range min (V)     -10.000
E range max (V)     10.000
I Range             Auto
Bandwidth           5
nc cycles           0
goto Ns'            0
nr cycles           0
inc. cycle          0

freq/Hz	Re(Z)/Ohm	-Im(Z)/Ohm	|Z|/Ohm	Phase(Z)/deg	time/s	<Ewe>/V	<I>/mA	Cs/µF	Cp/µF	cycle number	I Range	|Ewe|/V	|I|/A	Ns	(Q-Qo)/mA.h	Re(Y)/Ohm-1	Im(Y)/Ohm-1	|Y|/Ohm-1	Phase(Y)/deg	Re(C)/nF	Im(C)/nF	|C|/nF	Phase(C)/deg	Re(M)	Im(M)	|M|	Phase(M)/deg	Re(Permittivity)	Im(Permittivity)	|Permittivity|	Phase(Permittivity)/deg	Re(Resistivity)/Ohm.cm	Im(Resistivity)/Ohm.cm	|Resistivity|/Ohm.cm	Phase(Resistivity)/deg	Re(Conductivity)/mS/cm	Im(Conductivity)/mS/cm	|Conductivity|/mS/cm	Phase(Conductivity)/deg	Tan(Delta)	Loss Angle(Delta)/deg	dq/mA.h	Pwe/W	Rwe/Ohm
100004	1.03561	0.217286	1.05816	-11.8496	1.86449	0.265116	-0.019591	7.32441	0.30884	1	9	0.00474683	0.00448593	0	-9.36499e-06	0.924899	0.194057	0.945038	11.8496	308.84	1471.97	1504.02	-78.1504	0.0000000E+000	0.0000000E+000	0.0000000E+000	78.1504	0.0000000E+000	0.0000000E+000	0.0000000E+000	-78.1504	0.0000000E+000	0.0000000E+000	0.0000000E+000	-11.8496	0.0000000E+000	0.0000000E+000	0.0000000E+000	11.8496	4.76612	78.1504	-9.36499e-06	-5.1939e-06	13532.6
46420.4	1.14984	0.257295	1.17828	-12.6131	3.02049	0.265092	-0.0176359	13.3254	0.635402	1	9	0.00501811	0.00425885	0	-1.21793e-05	0.828215	0.185326	0.848697	12.6131	635.402	2839.58	2909.81	-77.3869	0.0000000E+000	0.0000000E+000	0.0000000E+000	77.3869	0.0000000E+000	0.0000000E+000	0.0000000E+000	-77.3869	0.0000000E+000	0.0000000E+000	0.0000000E+000	-12.6131	0.0000000E+000	0.0000000E+000	0.0000000E+000	12.6131	4.46896	77.3869	-1.83043e-06	-4.67513e-06	15031.3
21544.7	1.27523	0.319937	1.31475	-14.084	4.0355	0.265092	-0.020522	23.0895	1.36728	1	9	0.00535134	0.00407023	0	-1.57697e-05	0.737735	0.185087	0.760599	14.084	1367.28	5449.8	5618.7	-75.916	0.0000000E+000	0.0000000E+000	0.0000000E+000	75.916	0.0000000E+000	0.0000000E+000	0.0000000E+000	-75.916	0.0000000E+000	0.0000000E+000	0.0000000E+000	-14.084	0.0000000E+000	0.0000000E+000	0.0000000E+000	14.084	3.98588	75.916	3.75638e-06	-5.44022e-06	12917.4
10002.2	1.41475	0.409444	1.47281	-16.141	4.62848	0.265089	-0.0203358	38.8624	3.00348	1	9	0.00495739	0.00336594	0	-1.93115e-05	0.65221	0.188756	0.678975	16.141	3003.48	10377.9	10803.8	-73.859	0.0000000E+000	0.0000000E+000	0.0000000E+000	73.859	0.0000000E+000	0.0000000E+000	0.0000000E+000	-73.859	0.0000000E+000	0.0000000E+000	0.0000000E+000	-16.141	0.0000000E+000	0.0000000E+000	0.0000000E+000	16.141	3.4553	73.859	1.01201e-07	-5.39081e-06	13035.6
4641.49	1.59387	0.558858	1.689	-19.3222	5.47767	0.265067	-0.00229315	61.3566	6.71744	1	9	0.00458597	0.0027152	0	-3.16481e-05	0.558716	0.195903	0.592065	19.3222	6717.44	19158.2	20301.7	-70.6778	0.0000000E+000	0.0000000E+000	0.0000000E+000	70.6778	0.0000000E+000	0.0000000E+000	0.0000000E+000	-70.6778	0.0000000E+000	0.0000000E+000	0.0000000E+000	-19.3222	0.0000000E+000	0.0000000E+000	0.0000000E+000	19.3222	2.852	70.6778	-2.90002e-07	-6.07839e-07	115591
2155.69	1.82106	0.815554	1.99534	-24.125	6.63468	0.265064	-0.00521647	90.5277	15.1235	1	9	0.00497374	0.00249268	0	-3.52281e-05	0.457394	0.204842	0.501168	24.125	15123.5	33769.4	37001.3	-65.875	0.0000000E+000	0.0000000E+000	0.0000000E+000	65.875	0.0000000E+000	0.0000000E+000	0.0000000E+000	-65.875	0.0000000E+000	0.0000000E+000	0.0000000E+000	-24.125	0.0000000E+000	0.0000000E+000	0.0000000E+000	24.125	2.23291	65.875	-1.83807e-06	-1.3827e-06	50812.9
1000.32	2.16212	1.26159	2.50327	-30.2634	7.57169	0.265066	-0.0114914	126.114	32.032	1	9	0.00491306	0.00196266	0	-3.80438e-05	0.345036	0.201327	0.399478	30.2634	32032	54896.6	63558.5	-59.7366	0.0000000E+000	0.0000000E+000	0.0000000E+000	59.7366	0.0000000E+000	0.0000000E+000	0.0000000E+000	-59.7366	0.0000000E+000	0.0000000E+000	0.0000000E+000	-30.2634	0.0000000E+000	0.0000000E+000	0.0000000E+000	30.2634	1.7138	59.7366	-1.9532e-06	-3.04598e-06	23066.5
463.961	2.71622	1.9983	3.3721	-36.3416	8.76018	0.265054	-0.0269578	171.663	60.2835	1	10	0.00496566	0.00147257	0	-4.46539e-05	0.238871	0.175736	0.296551	36.3416	60283.6	81941.3	101728	-53.6584	0.0000000E+000	0.0000000E+000	0.0000000E+000	53.6584	0.0000000E+000	0.0000000E+000	0.0000000E+000	-53.6584	0.0000000E+000	0.0000000E+000	0.0000000E+000	-36.3416	0.0000000E+000	0.0000000E+000	0.0000000E+000	36.3416	1.35926	53.6584	-5.89203e-06	-7.14526e-06	9832.2
215.345	3.71176	3.10731	4.84071	-39.9345	9.69445	0.265057	-0.0269894	237.849	98.0058	1	10	0.00490705	0.0010137	0	-5.01227e-05	0.158402	0.132607	0.206581	39.9345	98005.8	117070	152678	-50.0655	0.0000000E+000	0.0000000E+000	0.0000000E+000	50.0655	0.0000000E+000	0.0000000E+000	0.0000000E+000	-50.0655	0.0000000E+000	0.0000000E+000	0.0000000E+000	-39.9345	0.0000000E+000	0.0000000E+000	0.0000000E+000	39.9345	1.19452	50.0655	-2.38727e-06	-7.15373e-06	9820.77
100.032	5.45304	4.57592	7.11861	-40.0017	10.6257	0.265051	-0.0257756	347.699	143.671	1	10	0.00488747	0.000686576	0	-5.71443e-05	0.107609	0.0902999	0.140477	40.0017	143671	171210	223504	-49.9983	0.0000000E+000	0.0000000E+000	0.0000000E+000	49.9983	0.0000000E+000	0.0000000E+000	0.0000000E+000	-49.9983	0.0000000E+000	0.0000000E+000	0.0000000E+000	-40.0017	0.0000000E+000	0.0000000E+000	0.0000000E+000	40.0017	1.19168	49.9983	-3.59908e-06	-6.83186e-06	10283
46.4415	8.31604	6.04618	10.2817	-36.019	11.5596	0.265053	-0.0279575	566.803	196.005	1	10	0.00488465	0.000475084	0	-6.37194e-05	0.0786664	0.0571944	0.0972605	36.019	196005	269589	333311	-53.981	0.0000000E+000	0.0000000E+000	0.0000000E+000	53.981	0.0000000E+000	0.0000000E+000	0.0000000E+000	-53.981	0.0000000E+000	0.0000000E+000	0.0000000E+000	-36.019	0.0000000E+000	0.0000000E+000	0.0000000E+000	36.019	1.37542	53.981	-3.1835e-06	-7.41024e-06	9480.58
[...]
0.464091	24.3484	2.93343	24.5244	-6.86975	28.5849	0.265095	-0.0107138	116907	1672.61	1	12	0.0048801	0.000198989	0	-0.000137009	0.0404829	0.00487728	0.0407756	6.86975	1.67261e+06	1.38832e+07	1.39836e+07	-83.1303	0.0000000E+000	0.0000000E+000	0.0000000E+000	83.1303	0.0000000E+000	0.0000000E+000	0.0000000E+000	-83.1303	0.0000000E+000	0.0000000E+000	0.0000000E+000	-6.86975	0.0000000E+000	0.0000000E+000	0.0000000E+000	6.86975	8.3003	83.1303	-2.60704e-05	-2.84018e-06	24743.4
0.215268	25.5263	2.71286	25.6701	-6.06644	45.065	0.265095	-0.00968309	272530	3043.78	1	12	0.00488083	0.000190137	0	-0.000213766	0.0387377	0.00411692	0.0389559	6.06644	3.04378e+06	2.86401e+07	2.88014e+07	-83.9336	0.0000000E+000	0.0000000E+000	0.0000000E+000	83.9336	0.0000000E+000	0.0000000E+000	0.0000000E+000	-83.9336	0.0000000E+000	0.0000000E+000	0.0000000E+000	-6.06644	0.0000000E+000	0.0000000E+000	0.0000000E+000	6.06644	9.40939	83.9336	-4.00539e-05	-2.56694e-06	27377.1
0.0999041	26.5014	3.11087	26.6834	-6.69503	80.4715	0.265094	-0.00812515	512100	6960.44	1	12	0.00488175	0.000182951	0	-0.000258327	0.0372209	0.00436918	0.0374765	6.69503	6.96044e+06	5.92958e+07	5.97029e+07	-83.305	0.0000000E+000	0.0000000E+000	0.0000000E+000	83.305	0.0000000E+000	0.0000000E+000	0.0000000E+000	-83.305	0.0000000E+000	0.0000000E+000	0.0000000E+000	-6.69503	0.0000000E+000	0.0000000E+000	0.0000000E+000	6.69503	8.51897	83.305	-1.22936e-05	-2.15393e-06	32626.3
0.0464052	27.607	4.16362	27.9192	-8.57658	156.708	0.265088	-0.00417953	823726	18319.8	1	12	0.0048782	0.000174726	0	-0.000212638	0.0354172	0.00534154	0.0358177	8.57658	1.83198e+07	1.2147e+08	1.22843e+08	-81.4234	0.0000000E+000	0.0000000E+000	0.0000000E+000	81.4234	0.0000000E+000	0.0000000E+000	0.0000000E+000	-81.4234	0.0000000E+000	0.0000000E+000	0.0000000E+000	-8.57658	0.0000000E+000	0.0000000E+000	0.0000000E+000	8.57658	6.63052	81.4234	3.58685e-05	-1.10794e-06	63425.3
0.0215268	29.261	6.66263	30.0099	-12.8274	320.936	0.265093	-0.000591548	1.10967e+06	54696.1	1	12	0.00488071	0.000162636	0	-0.000280949	0.0324907	0.00739801	0.0333223	12.8274	5.46961e+07	2.40215e+08	2.46363e+08	-77.1726	0.0000000E+000	0.0000000E+000	0.0000000E+000	77.1726	0.0000000E+000	0.0000000E+000	0.0000000E+000	-77.1726	0.0000000E+000	0.0000000E+000	0.0000000E+000	-12.8274	0.0000000E+000	0.0000000E+000	0.0000000E+000	12.8274	4.39181	77.1726	-8.2867e-05	-1.56815e-07	448134
0.0146812	30.2394	8.45455	31.3991	-15.6203	464.131	0.265093	-0.000491773	1.28224e+06	92964.1	1	12	0.00487797	0.000155354	0	-0.000546773	0.0306718	0.00857543	0.0318481	15.6203	9.29641e+07	3.32505e+08	3.45257e+08	-74.3797	0.0000000E+000	0.0000000E+000	0.0000000E+000	74.3797	0.0000000E+000	0.0000000E+000	0.0000000E+000	-74.3797	0.0000000E+000	0.0000000E+000	0.0000000E+000	-15.6203	0.0000000E+000	0.0000000E+000	0.0000000E+000	15.6203	3.57671	74.3797	-0.000265824	-1.30366e-07	539056

0.0100092	31.6569	10.6517	33.4009	-18.5967	674.151	0.26509	-0.00108674	1.4928e+06	151818	1	12	0.00487934	0.000146084	0	-0.00102405	0.0283761	0.00954778	0.0299393	18.5967	1.51818e+08	4.51206e+08	4.76062e+08	-71.4033	0.0000000E+000	0.0000000E+000	0.0000000E+000	71.4033	0.0000000E+000	0.0000000E+000	0.0000000E+000	-71.4033	0.0000000E+000	0.0000000E+000	0.0000000E+000	-18.5967	0.0000000E+000	0.0000000E+000	0.0000000E+000	18.5967	2.97201	71.4033	-0.000477274	-2.88084e-07	243932