Folder: EIS/txt (part 154)

File: 19012_R308_UA709_SOC00_C08.mpt
EC-Lab ASCII FILE
Nb header lines : 65

Potentio Electrochemical Impedance Spectroscopy

Run on channel : 8 (SN 65398)
Grouped channel(s) : 6, 7, 8
User :
CE vs. WE compliance from -10 V to 10 V
Electrode connection : standard
Potential control : Ewe
Ewe ctrl range : min = -10.00 V, max = 10.00 V
Safety Limits :
	Do not start on E overload
Acquisition started on : 11/04/2025 16:28:53.021
Loaded Setting File :  C:\Users\Celltest\OneDrive - store-dot.com\Documents\EC-Lab\Data\@Biologic Test Protocols\anode half cell EIS SOC00.mps
Saved on :
	File : 19010_R308_UA709_SOC00_C08.mpr
	Directory : C:\Users\Celltest\OneDrive - store-dot.com\Documents\EC-Lab\Data\Charmaine\
	Host : 169.254.61.224
Device : VMP-3e (SN .003165)
Address : USB
EC-LAB for windows v11.62 (software)
Internet server v27.00 (firmware)
Command interpretor v12.03 (firmware)
Electrode material :
Initial state :
Electrolyte :
Comments :
Electrode surface area : 0.001 cm²
Characteristic mass : 0.001 g
Equivalent Weight : 0.000 g/eq.
Density : 0.000 g/cm3
Volume (V) : 0.001 cm³
Record Ece
Cycle Definition : Charge/Discharge alternance
Mode                Single sine
E (V)               0.0000
vs.                 Eoc
tE (h:m:s)          0:00:0.0000
record              0
dI                  0.000
unit dI             mA
dt (s)              0.000
fi                  100.000
unit fi             kHz
ff                  10.000
unit ff             mHz
Nd                  6
Points              per decade
spacing             Logarithmic
Va (mV)             5.0
pw                  0.10
Na                  2
corr                0
E range min (V)     -10.000
E range max (V)     10.000
I Range             Auto
Bandwidth           5
nc cycles           0
goto Ns'            0
nr cycles           0
inc. cycle          0

freq/Hz	Re(Z)/Ohm	-Im(Z)/Ohm	|Z|/Ohm	Phase(Z)/deg	time/s	<Ewe>/V	<I>/mA	Cs/µF	Cp/µF	cycle number	I Range	|Ewe|/V	|I|/A	Ns	(Q-Qo)/mA.h	<Ece>/V	|Ece|/V	Phase(Zce)/deg	|Zce|/Ohm	Re(Zce)/Ohm	-Im(Zce)/Ohm	Phase(Zwe-ce)/deg	|Zwe-ce|/Ohm	Re(Zwe-ce)/Ohm	-Im(Zwe-ce)/Ohm	Re(Y)/Ohm-1	Im(Y)/Ohm-1	|Y|/Ohm-1	Phase(Y)/deg	Re(C)/nF	Im(C)/nF	|C|/nF	Phase(C)/deg	Re(M)	Im(M)	|M|	Phase(M)/deg	Re(Permittivity)	Im(Permittivity)	|Permittivity|	Phase(Permittivity)/deg	Re(Resistivity)/Ohm.cm	Im(Resistivity)/Ohm.cm	|Resistivity|/Ohm.cm	Phase(Resistivity)/deg	Re(Conductivity)/mS/cm	Im(Conductivity)/mS/cm	|Conductivity|/mS/cm	Phase(Conductivity)/deg	Tan(Delta)	Loss Angle(Delta)/deg	dq/mA.h	Pwe/W	Pce/W	Pwe-ce/W	<Ewe-Ece>/V	Rwe/Ohm	Rce/Ohm	Rwe-ce/Ohm		Ewe-Ece/V
100004	1.99495	0.909001	2.19229	-24.4964	1.91056	0.240335	-0.0310243	1.75081	0.301005	1	9	0.00459303	0.00209509	0	-5.60144e-06	-0.000326682	4.16317e-05	88.9659	0.0198711	0.00035864	-0.0198679	-24.0183	2.18445	1.99531	0.889133	0.415086	0.189134	0.456145	24.4964	301.005	660.606	725.95	-65.5036	0.0000000E+000	0.0000000E+000	0.0000000E+000	65.5036	0.0000000E+000	0.0000000E+000	0.0000000E+000	-65.5036	0.0000000E+000	0.0000000E+000	0.0000000E+000	-24.4964	0.0000000E+000	0.0000000E+000	0.0000000E+000	24.4964	2.19466	65.5036	-5.60144e-06	-7.45623e-06	1.01351e-08	-7.46637e-06	0.240662	7746.69	10.5299	7757.22
31621.1	2.88282	1.19196	3.11952	-22.4636	3.30855	0.240324	-0.0438218	4.22261	0.616492	1	9	0.00522911	0.00167625	0	-1.81889e-05	-9.76253e-05	1.6946e-05	20.0368	0.0101095	0.00949757	-0.00346375	-22.3385	3.12698	2.89232	1.1885	0.296238	0.122486	0.320562	22.4636	616.492	1491.02	1613.45	-67.5364	0.0000000E+000	0.0000000E+000	0.0000000E+000	67.5364	0.0000000E+000	0.0000000E+000	0.0000000E+000	-67.5364	0.0000000E+000	0.0000000E+000	0.0000000E+000	-22.4636	0.0000000E+000	0.0000000E+000	0.0000000E+000	22.4636	2.41856	67.5364	-4.23277e-06	-1.05314e-05	4.27812e-09	-1.05357e-05	0.240422	5484.12	2.22778	5486.34
10002.2	3.81658	1.2373	4.01214	-17.9622	4.33356	0.240328	-0.0472445	12.8602	1.22306	1	9	0.00486644	0.00121293	0	-3.03324e-05	0.000322312	5.92623e-06	-56.9881	0.00488588	0.00266189	0.00409709	-18.0061	4.01593	3.81925	1.2414	0.237096	0.0768643	0.249244	17.9622	1223.06	3772.65	3965.95	-72.0378	0.0000000E+000	0.0000000E+000	0.0000000E+000	72.0378	0.0000000E+000	0.0000000E+000	0.0000000E+000	-72.0378	0.0000000E+000	0.0000000E+000	0.0000000E+000	-17.9622	0.0000000E+000	0.0000000E+000	0.0000000E+000	17.9622	3.0846	72.0378	-3.54187e-06	-1.13542e-05	-1.52275e-08	-1.1339e-05	0.240006	5086.91	6.82222	5080.09
3163.08	4.65894	1.37977	4.85896	-16.4969	5.38764	0.240293	-0.0256043	36.4674	2.94055	1	10	0.00472841	0.000973132	0	-3.92154e-05	7.41672e-05	1.30881e-05	-18.1827	0.0134495	0.0127779	0.00419689	-16.5015	4.87241	4.67172	1.38396	0.197333	0.0584411	0.205805	16.4969	2940.55	9929.11	10355.4	-73.5031	0.0000000E+000	0.0000000E+000	0.0000000E+000	73.5031	0.0000000E+000	0.0000000E+000	0.0000000E+000	-73.5031	0.0000000E+000	0.0000000E+000	0.0000000E+000	-16.4969	0.0000000E+000	0.0000000E+000	0.0000000E+000	16.4969	3.37662	73.5031	-2.80202e-06	-6.15253e-06	-1.899e-09	-6.15063e-06	0.240219	9384.9	2.89668	9382
1000.32	5.59282	1.88608	5.90228	-18.6358	6.74082	0.240331	-0.00765543	84.357	8.61393	1	10	0.00466105	0.000789703	0	-4.29199e-05	5.50792e-05	1.02012e-05	-17.2694	0.0129178	0.0123354	0.00383483	-18.6328	5.91519	5.60515	1.88991	0.160543	0.0541403	0.169426	18.6358	8613.93	25543	26956.4	-71.3642	0.0000000E+000	0.0000000E+000	0.0000000E+000	71.3642	0.0000000E+000	0.0000000E+000	0.0000000E+000	-71.3642	0.0000000E+000	0.0000000E+000	0.0000000E+000	-18.6358	0.0000000E+000	0.0000000E+000	0.0000000E+000	18.6358	2.96531	71.3642	-1.28419e-06	-1.83984e-06	-4.21655e-10	-1.83942e-06	0.240276	31393.6	7.19478	31386.4
316.316	7.15559	3.15523	7.82036	-23.7949	8.09002	0.240338	-0.00787491	159.466	25.9584	1	10	0.00462913	0.000591934	0	-4.58041e-05	-9.76253e-05	1.2157e-05	120.316	0.0205378	-0.010367	-0.0177293	-23.7065	7.80373	7.14522	3.1375	0.117002	0.0515915	0.127871	23.7949	25958.4	58869.7	64338.7	-66.2051	0.0000000E+000	0.0000000E+000	0.0000000E+000	66.2051	0.0000000E+000	0.0000000E+000	0.0000000E+000	-66.2051	0.0000000E+000	0.0000000E+000	0.0000000E+000	-23.7949	0.0000000E+000	0.0000000E+000	0.0000000E+000	23.7949	2.26785	66.2051	-1.36009e-06	-1.89264e-06	7.68791e-10	-1.89341e-06	0.240436	30519.5	12.397	30531.9
100.032	10.4732	4.33699	11.3356	-22.4947	9.43685	0.240335	-0.00731693	366.853	53.7004	1	10	0.00460658	0.00040638	0	-4.83758e-05	0.000112343	8.37517e-06	91.4579	0.0206092	-0.000524352	-0.0206025	-22.3994	11.3273	10.4726	4.31639	0.0815053	0.0337517	0.0882173	22.4947	53700.4	129678	140357	-67.5053	0.0000000E+000	0.0000000E+000	0.0000000E+000	67.5053	0.0000000E+000	0.0000000E+000	0.0000000E+000	-67.5053	0.0000000E+000	0.0000000E+000	0.0000000E+000	-22.4947	0.0000000E+000	0.0000000E+000	0.0000000E+000	22.4947	2.41485	67.5053	-5.61122e-07	-1.75851e-06	-8.22008e-10	-1.75769e-06	0.240222	32846.4	15.3539	32831.1
[...]
1.00006	17.0879	0.781474	17.1057	-2.61847	19.5019	0.240411	-0.00297655	203647	425.034	1	12	0.00461169	0.000269599	0	-5.11825e-05	-9.76253e-05	2.84608e-06	31.7802	0.0105567	0.00897399	-0.00555982	-2.5985	17.1144	17.0968	0.775914	0.058399	0.00267074	0.05846	2.61847	425035	9.29389e+06	9.3036e+06	-87.3815	0.0000000E+000	0.0000000E+000	0.0000000E+000	87.3815	0.0000000E+000	0.0000000E+000	0.0000000E+000	-87.3815	0.0000000E+000	0.0000000E+000	0.0000000E+000	-2.61847	0.0000000E+000	0.0000000E+000	0.0000000E+000	2.61847	21.8662	87.3815	5.95586e-06	-7.15596e-07	2.90587e-10	-7.15886e-07	0.240508	80768.2	32.7981	80801
0.316193	17.3975	1.19413	17.4385	-3.9265	33.8442	0.240393	-0.00110472	421519	1976.53	1	12	0.00461432	0.000264606	0	-8.49663e-05	3.59911e-05	3.51979e-06	-12.6883	0.013302	0.0129772	0.00292174	-3.93315	17.4516	17.4105	1.19705	0.0572099	0.00392676	0.0573445	3.9265	1.97653e+06	2.87965e+07	2.88642e+07	-86.0735	0.0000000E+000	0.0000000E+000	0.0000000E+000	86.0735	0.0000000E+000	0.0000000E+000	0.0000000E+000	-86.0735	0.0000000E+000	0.0000000E+000	0.0000000E+000	-3.9265	0.0000000E+000	0.0000000E+000	0.0000000E+000	3.9265	14.5692	86.0735	-2.43412e-05	-2.65567e-07	-3.97601e-11	-2.65528e-07	0.240357	217606	32.5794	217573
0.0999041	18.0634	2.74635	18.271	-8.64504	79.0522	0.240383	-0.00445477	580070	13106	1	12	0.00460997	0.000252311	0	-0.000174266	7.41672e-05	3.06239e-06	-12.2746	0.0121374	0.0118599	0.00258036	-8.64744	18.2831	18.0752	2.74893	0.0541098	0.00822685	0.0547317	8.64504	1.3106e+07	8.62011e+07	8.71918e+07	-81.355	0.0000000E+000	0.0000000E+000	0.0000000E+000	81.355	0.0000000E+000	0.0000000E+000	0.0000000E+000	-81.355	0.0000000E+000	0.0000000E+000	0.0000000E+000	-8.64504	0.0000000E+000	0.0000000E+000	0.0000000E+000	8.64504	6.57722	81.355	-1.47036e-05	-1.07085e-06	-3.30398e-10	-1.07052e-06	0.240309	53960.7	16.6489	53944.1
0.0315922	19.5938	6.55264	20.6605	-18.4912	221.937	0.240388	-0.0016089	768818	77335	1	12	0.00461197	0.000223227	0	0.000110531	-2.1273e-05	2.42483e-06	14.3306	0.0108626	0.0105246	-0.00268867	-18.4748	20.6696	19.6044	6.54996	0.0459027	0.015351	0.0484016	18.4912	7.7335e+07	2.31248e+08	2.43837e+08	-71.5088	0.0000000E+000	0.0000000E+000	0.0000000E+000	71.5088	0.0000000E+000	0.0000000E+000	0.0000000E+000	-71.5088	0.0000000E+000	0.0000000E+000	0.0000000E+000	-18.4912	0.0000000E+000	0.0000000E+000	0.0000000E+000	18.4912	2.99022	71.5088	0.000141408	-3.8676e-07	3.42262e-11	-3.86795e-07	0.24041	149412	13.2221	149425
0.0100092	23.5888	16.1501	28.5877	-34.3976	673.16	0.24038	-0.00192555	984571	314224	1	12	0.00460994	0.000161256	0	-0.000714266	-2.18497e-06	2.38641e-06	16.5566	0.0147989	0.0141853	-0.0042171	-34.3745	28.597	23.603	16.1459	0.0288634	0.0197614	0.0349801	34.3976	3.14224e+08	4.58954e+08	5.56215e+08	-55.6024	0.0000000E+000	0.0000000E+000	0.0000000E+000	55.6024	0.0000000E+000	0.0000000E+000	0.0000000E+000	-55.6024	0.0000000E+000	0.0000000E+000	0.0000000E+000	-34.3976	0.0000000E+000	0.0000000E+000	0.0000000E+000	34.3976	1.4606	55.6024	-0.000586224	-4.62864e-07	4.20728e-12	-4.62869e-07	0.240383	124837	1.13473	124838

File: 19062_R307_UA701_3p24_SOC00_C01.mpt
EC-Lab ASCII FILE
Nb header lines : 66

Potentio Electrochemical Impedance Spectroscopy

Run on channel : 1 (SN 66354)
Grouped channel(s) : 1, 2, 3, 4, 5
User :
CE vs. WE compliance from -10 V to 10 V
Electrode connection : standard
Potential control : Ewe
Ewe ctrl range : min = -10.00 V, max = 10.00 V
Safety Limits :
	Do not start on E overload
Acquisition started on : 11/12/2025 10:25:43.761
Technique started on : 11/12/2025 10:25:45.486
Loaded Setting File :  C:\Users\Celltest\OneDrive - store-dot.com\Documents\EC-Lab\Data\@Biologic Test Protocols\anode half cell EIS SOC00.mps
Saved on :
	File : 19062_R307_UA701_3p24_SOC00_C01.mpr
	Directory : C:\Users\Celltest\OneDrive - store-dot.com\Documents\EC-Lab\Data\Anna\
	Host : 169.254.61.224
Device : VMP-3e (SN .003165)
Address : USB
EC-LAB for windows v11.62 (software)
Internet server v27.00 (firmware)
Command interpretor v12.03 (firmware)
Electrode material :
Initial state :
Electrolyte :
Comments :
Electrode surface area : 0.001 cm²
Characteristic mass : 0.001 g
Equivalent Weight : 0.000 g/eq.
Density : 0.000 g/cm3
Volume (V) : 0.001 cm³
Record Ece
Cycle Definition : Charge/Discharge alternance
Mode                Single sine
E (V)               0.0000
vs.                 Eoc
tE (h:m:s)          0:00:0.0000
record              0
dI                  0.000
unit dI             mA
dt (s)              0.000
fi                  100.000
unit fi             kHz
ff                  10.000
unit ff             mHz
Nd                  6
Points              per decade
spacing             Logarithmic
Va (mV)             5.0
pw                  0.10
Na                  2
corr                0
E range min (V)     -10.000
E range max (V)     10.000
I Range             Auto
Bandwidth           5
nc cycles           0
goto Ns'            0
nr cycles           0
inc. cycle          0

freq/Hz	Re(Z)/Ohm	-Im(Z)/Ohm	|Z|/Ohm	Phase(Z)/deg	time/s	<Ewe>/V	<I>/mA	Cs/µF	Cp/µF	cycle number	I Range	|Ewe|/V	|I|/A	Ns	(Q-Qo)/mA.h	<Ece>/V	|Ece|/V	Phase(Zce)/deg	|Zce|/Ohm	Re(Zce)/Ohm	-Im(Zce)/Ohm	Phase(Zwe-ce)/deg	|Zwe-ce|/Ohm	Re(Zwe-ce)/Ohm	-Im(Zwe-ce)/Ohm	Re(Y)/Ohm-1	Im(Y)/Ohm-1	|Y|/Ohm-1	Phase(Y)/deg	Re(C)/nF	Im(C)/nF	|C|/nF	Phase(C)/deg	Re(M)	Im(M)	|M|	Phase(M)/deg	Re(Permittivity)	Im(Permittivity)	|Permittivity|	Phase(Permittivity)/deg	Re(Resistivity)/Ohm.cm	Im(Resistivity)/Ohm.cm	|Resistivity|/Ohm.cm	Phase(Resistivity)/deg	Re(Conductivity)/mS/cm	Im(Conductivity)/mS/cm	|Conductivity|/mS/cm	Phase(Conductivity)/deg	Tan(Delta)	Loss Angle(Delta)/deg	dq/mA.h	Pwe/W	Pce/W	Pwe-ce/W	<Ewe-Ece>/V	Rwe/Ohm	Rce/Ohm	Rwe-ce/Ohm		Ewe-Ece/V
100004	1.02725	0.402513	1.10329	-21.3971	1.72456	0.262793	0.0800178	3.95388	0.526265	1	9	0.0048531	0.00439875	0	8.16861e-06	0.000247769	4.57813e-05	88.8894	0.0104078	0.000201728	-0.0104058	-20.8885	1.09973	1.02745	0.392107	0.843907	0.330674	0.90638	21.3971	526.265	1343.07	1442.49	-68.6029	0.0000000E+000	0.0000000E+000	0.0000000E+000	68.6029	0.0000000E+000	0.0000000E+000	0.0000000E+000	-68.6029	0.0000000E+000	0.0000000E+000	0.0000000E+000	-21.3971	0.0000000E+000	0.0000000E+000	0.0000000E+000	21.3971	2.55208	68.6029	8.16861e-06	2.10281e-05	1.9826e-08	2.10083e-05	0.262545	3284.18	3.09643	3281.08
31621.1	1.36509	0.521573	1.46134	-20.9108	3.24453	0.262764	0.0713375	9.65001	1.22929	1	9	0.00509194	0.00348443	0	3.08027e-05	0.00017146	1.46099e-05	33.3667	0.00419292	0.00350179	-0.00230609	-20.7775	1.46379	1.3686	0.519267	0.639232	0.244237	0.684302	20.9108	1229.29	3217.37	3444.22	-69.0892	0.0000000E+000	0.0000000E+000	0.0000000E+000	69.0892	0.0000000E+000	0.0000000E+000	0.0000000E+000	-69.0892	0.0000000E+000	0.0000000E+000	0.0000000E+000	-20.9108	0.0000000E+000	0.0000000E+000	0.0000000E+000	20.9108	2.61727	69.0892	9.3255e-06	1.87449e-05	1.22315e-08	1.87327e-05	0.262592	3683.39	2.40351	3680.98
10002.2	1.75258	0.693787	1.88491	-21.5969	4.39554	0.262778	0.0694003	22.9349	3.10719	1	9	0.00506981	0.00268968	0	5.88978e-05	5.69962e-05	1.00184e-05	-72.3363	0.00372476	0.0011302	0.00354915	-21.6844	1.88727	1.75371	0.697336	0.493284	0.195274	0.530529	21.5969	3107.19	7849.12	8441.76	-68.4031	0.0000000E+000	0.0000000E+000	0.0000000E+000	68.4031	0.0000000E+000	0.0000000E+000	0.0000000E+000	-68.4031	0.0000000E+000	0.0000000E+000	0.0000000E+000	-21.5969	0.0000000E+000	0.0000000E+000	0.0000000E+000	21.5969	2.52611	68.4031	8.28429e-06	1.82369e-05	3.95555e-09	1.82329e-05	0.262721	3786.42	0.821268	3785.6
3163.08	2.24987	1.02283	2.47146	-24.4475	5.29367	0.262527	-0.0264179	49.1931	8.42578	1	9	0.00454449	0.00183879	0	6.532e-05	1.88416e-05	6.20963e-06	55.5973	0.00337702	0.00190804	-0.00278633	-24.3704	2.47204	2.25177	1.02005	0.368342	0.167456	0.40462	24.4475	8425.78	18533.7	20359	-65.5525	0.0000000E+000	0.0000000E+000	0.0000000E+000	65.5525	0.0000000E+000	0.0000000E+000	0.0000000E+000	-65.5525	0.0000000E+000	0.0000000E+000	0.0000000E+000	-24.4475	0.0000000E+000	0.0000000E+000	0.0000000E+000	24.4475	2.19964	65.5525	-7.14967e-07	-6.93542e-06	-4.97756e-10	-6.93492e-06	0.262508	9937.46	0.713213	9936.74
1000.32	2.94676	1.76024	3.43247	-30.8519	7.10584	0.262681	-0.0228764	90.3876	23.7706	1	10	0.00495286	0.00144294	0	9.31054e-05	-0.000210086	4.55952e-06	88.5093	0.00315987	8.22035e-05	-0.0031588	-30.8059	3.43092	2.94684	1.75708	0.25011	0.149403	0.291336	30.8519	23770.6	39793.5	46352.7	-59.1481	0.0000000E+000	0.0000000E+000	0.0000000E+000	59.1481	0.0000000E+000	0.0000000E+000	0.0000000E+000	-59.1481	0.0000000E+000	0.0000000E+000	0.0000000E+000	-30.8519	0.0000000E+000	0.0000000E+000	0.0000000E+000	30.8519	1.67406	59.1481	1.59763e-06	-6.0092e-06	4.80601e-09	-6.01401e-06	0.262892	11482.6	9.18354	11491.8
316.316	4.35226	3.46037	5.56025	-38.4873	8.45606	0.262675	-0.0218291	145.404	56.3163	1	10	0.00484651	0.000871636	0	8.49611e-05	1.88416e-05	6.26021e-06	-55.6811	0.00718214	0.00404928	0.00593182	-38.5092	5.56711	4.35631	3.4663	0.140775	0.111927	0.179848	38.4873	56316.3	70831.4	90491	-51.5127	0.0000000E+000	0.0000000E+000	0.0000000E+000	51.5127	0.0000000E+000	0.0000000E+000	0.0000000E+000	-51.5127	0.0000000E+000	0.0000000E+000	0.0000000E+000	-38.4873	0.0000000E+000	0.0000000E+000	0.0000000E+000	38.4873	1.25774	51.5127	-2.75851e-06	-5.73397e-06	-4.11296e-10	-5.73356e-06	0.262656	12033.3	0.863141	12032.4
100.032	8.08106	5.77309	9.93137	-35.5419	9.80377	0.262687	-0.0214453	275.596	93.126	1	10	0.00481559	0.000484886	0	7.66783e-05	-0.000210086	1.1591e-05	-77.3261	0.0239046	0.00524471	0.0233221	-35.6337	9.94921	8.08631	5.79641	0.0819313	0.0585315	0.100691	35.5419	93126	130356	160203	-54.4581	0.0000000E+000	0.0000000E+000	0.0000000E+000	54.4581	0.0000000E+000	0.0000000E+000	0.0000000E+000	-54.4581	0.0000000E+000	0.0000000E+000	0.0000000E+000	-35.5419	0.0000000E+000	0.0000000E+000	0.0000000E+000	35.5419	1.39978	54.4581	-2.11037e-06	-5.63339e-06	4.50535e-09	-5.6379e-06	0.262897	12249.2	9.79639	12259
[...]
1.00006	21.3303	2.00199	21.424	-5.36189	19.8519	0.262734	-0.00360553	79493.3	694.149	1	12	0.00481002	0.000224515	0	6.07107e-05	-5.74676e-05	5.66701e-06	-31.0279	0.0252411	0.0216295	0.0130106	-5.39109	21.4468	21.3519	2.015	0.0464724	0.00436174	0.0466766	5.36189	694148	7.39583e+06	7.42834e+06	-84.6381	0.0000000E+000	0.0000000E+000	0.0000000E+000	84.6381	0.0000000E+000	0.0000000E+000	0.0000000E+000	-84.6381	0.0000000E+000	0.0000000E+000	0.0000000E+000	-5.36189	0.0000000E+000	0.0000000E+000	0.0000000E+000	5.36189	10.6545	84.6381	-5.99904e-06	-9.47294e-07	2.07201e-10	-9.47501e-07	0.262791	72869.7	15.9388	72885.7
0.316193	22.3304	2.03526	22.4229	-5.20772	34.1941	0.262732	-0.00376898	247314	2037.52	1	12	0.00480838	0.00021444	0	1.88336e-05	0.000133305	1.85125e-06	-27.7424	0.00863294	0.00764058	0.00401861	-5.21617	22.4309	22.338	2.03927	0.0444131	0.00404794	0.0445972	5.20772	2.03752e+06	2.23552e+07	2.24479e+07	-84.7923	0.0000000E+000	0.0000000E+000	0.0000000E+000	84.7923	0.0000000E+000	0.0000000E+000	0.0000000E+000	-84.7923	0.0000000E+000	0.0000000E+000	0.0000000E+000	-5.20772	0.0000000E+000	0.0000000E+000	0.0000000E+000	5.20772	10.9718	84.7923	-1.37152e-05	-9.90233e-07	-5.02425e-10	-9.8973e-07	0.262599	69709.2	35.3691	69673.8
0.0999041	23.4061	3.468	23.6616	-8.42801	79.402	0.262724	-0.00235751	459365	9867.97	1	12	0.00480399	0.000203029	0	7.73305e-05	-1.9313e-05	2.92969e-06	-10.2324	0.0144299	0.0142004	0.00256334	-8.4291	23.676	23.4203	3.47056	0.0418062	0.00619428	0.0422626	8.42801	9.86797e+06	6.66005e+07	6.73276e+07	-81.572	0.0000000E+000	0.0000000E+000	0.0000000E+000	81.572	0.0000000E+000	0.0000000E+000	0.0000000E+000	-81.572	0.0000000E+000	0.0000000E+000	0.0000000E+000	-8.42801	0.0000000E+000	0.0000000E+000	0.0000000E+000	8.42801	6.74916	81.572	4.1312e-05	-6.19375e-07	4.55307e-11	-6.1942e-07	0.262743	111441	8.19211	111449
0.0315922	25.6539	7.61447	26.7601	-16.5317	222.285	0.262727	0.00105033	661607	53567.9	1	12	0.00480649	0.000179614	0	8.17245e-05	3.79189e-05	3.51608e-06	18.8294	0.0195758	0.0185282	-0.00631812	-16.5075	26.7761	25.6724	7.60816	0.0358243	0.0106332	0.0373691	16.5317	5.35679e+07	1.80475e+08	1.88258e+08	-73.4683	0.0000000E+000	0.0000000E+000	0.0000000E+000	73.4683	0.0000000E+000	0.0000000E+000	0.0000000E+000	-73.4683	0.0000000E+000	0.0000000E+000	0.0000000E+000	-16.5317	0.0000000E+000	0.0000000E+000	0.0000000E+000	16.5317	3.3691	73.4683	-6.90378e-05	2.75949e-07	3.98272e-11	2.75909e-07	0.262689	250139	36.1021	250103
0.0100092	30.2068	17.0375	34.6804	-29.4243	673.507	0.26273	-0.000494405	933288	225248	1	12	0.00480634	0.00013859	0	-0.000601659	7.60735e-05	1.93867e-06	35.2878	0.0139885	0.0114183	-0.00808094	-29.4034	34.6863	30.2182	17.0294	0.0251152	0.0141658	0.0288348	29.4243	2.25248e+08	3.99355e+08	4.58499e+08	-60.5757	0.0000000E+000	0.0000000E+000	0.0000000E+000	60.5757	0.0000000E+000	0.0000000E+000	0.0000000E+000	-60.5757	0.0000000E+000	0.0000000E+000	0.0000000E+000	-29.4243	0.0000000E+000	0.0000000E+000	0.0000000E+000	29.4243	1.77296	60.5757	-0.000189351	-1.29895e-07	-3.76111e-11	-1.29857e-07	0.262653	531406	153.869	531252