Folder: EIS/txt (part 182)

File: 19343_R279_UA714_SOC00_C02.mpt
EC-Lab ASCII FILE
Nb header lines : 65

Potentio Electrochemical Impedance Spectroscopy

Run on channel : 2 (SN 66139)
User :
CE vs. WE compliance from -10 V to 10 V
Electrode connection : standard
Potential control : Ewe
Ewe ctrl range : min = -10.00 V, max = 10.00 V
Safety Limits :
	Do not start on E overload
Acquisition started on : 11/20/2025 15:02:26.919
Technique started on : 11/20/2025 15:02:28.646
Loaded Setting File :  C:\Users\Celltest\OneDrive - store-dot.com\Documents\EC-Lab\Data\@Biologic Test Protocols\anode half cell EIS SOC00.mps
Saved on :
	File : 19343_R279_UA714_SOC00_C02.mpr
	Directory : C:\Users\Celltest\OneDrive - store-dot.com\Documents\EC-Lab\Data\Charmaine\
	Host : 169.254.61.224
Device : VMP-3e (SN .003165)
Address : USB
EC-LAB for windows v11.62 (software)
Internet server v27.00 (firmware)
Command interpretor v12.03 (firmware)
Electrode material :
Initial state :
Electrolyte :
Comments :
Electrode surface area : 0.001 cm²
Characteristic mass : 0.001 g
Equivalent Weight : 0.000 g/eq.
Density : 0.000 g/cm3
Volume (V) : 0.001 cm³
Record Ece
Cycle Definition : Charge/Discharge alternance
Mode                Single sine
E (V)               0.0000
vs.                 Eoc
tE (h:m:s)          0:00:0.0000
record              0
dI                  0.000
unit dI             mA
dt (s)              0.000
fi                  100.000
unit fi             kHz
ff                  10.000
unit ff             mHz
Nd                  6
Points              per decade
spacing             Logarithmic
Va (mV)             5.0
pw                  0.10
Na                  2
corr                0
E range min (V)     -10.000
E range max (V)     10.000
I Range             Auto
Bandwidth           5
nc cycles           0
goto Ns'            0
nr cycles           0
inc. cycle          0

freq/Hz	Re(Z)/Ohm	-Im(Z)/Ohm	|Z|/Ohm	Phase(Z)/deg	time/s	<Ewe>/V	<I>/mA	Cs/µF	Cp/µF	cycle number	I Range	|Ewe|/V	|I|/A	Ns	(Q-Qo)/mA.h	<Ece>/V	|Ece|/V	Phase(Zce)/deg	|Zce|/Ohm	Re(Zce)/Ohm	-Im(Zce)/Ohm	Phase(Zwe-ce)/deg	|Zwe-ce|/Ohm	Re(Zwe-ce)/Ohm	-Im(Zwe-ce)/Ohm	Re(Y)/Ohm-1	Im(Y)/Ohm-1	|Y|/Ohm-1	Phase(Y)/deg	Re(C)/nF	Im(C)/nF	|C|/nF	Phase(C)/deg	Re(M)	Im(M)	|M|	Phase(M)/deg	Re(Permittivity)	Im(Permittivity)	|Permittivity|	Phase(Permittivity)/deg	Re(Resistivity)/Ohm.cm	Im(Resistivity)/Ohm.cm	|Resistivity|/Ohm.cm	Phase(Resistivity)/deg	Re(Conductivity)/mS/cm	Im(Conductivity)/mS/cm	|Conductivity|/mS/cm	Phase(Conductivity)/deg	Tan(Delta)	Loss Angle(Delta)/deg	dq/mA.h	Pwe/W	Pce/W	Pwe-ce/W	<Ewe-Ece>/V	Rwe/Ohm	Rce/Ohm	Rwe-ce/Ohm		Ewe-Ece/V
100004	1.25073	0.607527	1.39047	-25.9076	1.72652	0.261586	-0.00159927	2.61962	0.500084	1	9	0.00459156	0.00330216	0	-3.02352e-06	4.00515e-05	2.46393e-05	97.052	0.00746157	-0.000916054	-0.00740513	-25.6488	1.38643	1.24982	0.600122	0.646902	0.314224	0.719179	25.9076	500.084	1029.54	1144.57	-64.0924	0.0000000E+000	0.0000000E+000	0.0000000E+000	64.0924	0.0000000E+000	0.0000000E+000	0.0000000E+000	-64.0924	0.0000000E+000	0.0000000E+000	0.0000000E+000	-25.9076	0.0000000E+000	0.0000000E+000	0.0000000E+000	25.9076	2.05873	64.0924	-3.02352e-06	-4.18347e-07	-6.40531e-11	-4.18282e-07	0.261546	163566	25.0436	163541
31621.1	1.7964	0.807058	1.96936	-24.1927	3.24753	0.261572	-0.0141139	6.23646	1.04736	1	9	0.00513131	0.00260557	0	1.48262e-05	5.91423e-05	1.40857e-05	-1.90592	0.00540601	0.00540302	0.000179795	-24.1332	1.97436	1.8018	0.807238	0.463182	0.208091	0.507779	24.1927	1047.36	2331.28	2555.74	-65.8073	0.0000000E+000	0.0000000E+000	0.0000000E+000	65.8073	0.0000000E+000	0.0000000E+000	0.0000000E+000	-65.8073	0.0000000E+000	0.0000000E+000	0.0000000E+000	-24.1927	0.0000000E+000	0.0000000E+000	0.0000000E+000	24.1927	2.22586	65.8073	1.23438e-05	-3.69181e-06	-8.34729e-10	-3.69097e-06	0.261513	18532.9	4.19036	18528.8
10002.2	2.40705	0.988895	2.60227	-22.3344	4.39654	0.261569	-0.00655302	16.0906	2.32364	1	9	0.00486423	0.00186923	0	1.59934e-05	0.000116415	6.10953e-06	-67.3746	0.00326848	0.0012574	0.00301694	-22.3853	2.60458	2.40831	0.991912	0.355451	0.146031	0.38428	22.3344	2323.64	5655.93	6114.64	-67.6656	0.0000000E+000	0.0000000E+000	0.0000000E+000	67.6656	0.0000000E+000	0.0000000E+000	0.0000000E+000	-67.6656	0.0000000E+000	0.0000000E+000	0.0000000E+000	-22.3344	0.0000000E+000	0.0000000E+000	0.0000000E+000	22.3344	2.43408	67.6656	9.53872e-07	-1.71406e-06	-7.62869e-10	-1.7133e-06	0.261452	39915.7	17.7651	39898
3163.08	3.0612	1.44069	3.38328	-25.203	5.47368	0.261367	-0.0348599	34.9253	6.33294	1	9	0.00497917	0.0014717	0	8.72442e-06	0.000173687	7.33402e-06	-81.6618	0.00498337	0.000722671	0.00493069	-25.2733	3.38603	3.06193	1.44562	0.267435	0.125862	0.295572	25.203	6332.94	13456.4	14872.1	-64.797	0.0000000E+000	0.0000000E+000	0.0000000E+000	64.797	0.0000000E+000	0.0000000E+000	0.0000000E+000	-64.797	0.0000000E+000	0.0000000E+000	0.0000000E+000	-25.203	0.0000000E+000	0.0000000E+000	0.0000000E+000	25.203	2.12482	64.797	-3.99652e-06	-9.11124e-06	-6.05473e-09	-9.10518e-06	0.261193	7497.64	4.98244	7492.66
1000.32	3.95287	2.56056	4.70974	-32.9341	7.07179	0.261508	-0.0226155	62.1363	18.3663	1	10	0.00502545	0.00106703	0	4.79567e-06	0.000135506	5.72861e-06	-97.1772	0.00536873	-0.000670763	0.00532667	-32.9928	4.71208	3.9522	2.56589	0.178204	0.115436	0.212326	32.9341	18366.3	28353	33781.9	-57.0659	0.0000000E+000	0.0000000E+000	0.0000000E+000	57.0659	0.0000000E+000	0.0000000E+000	0.0000000E+000	-57.0659	0.0000000E+000	0.0000000E+000	0.0000000E+000	-32.9341	0.0000000E+000	0.0000000E+000	0.0000000E+000	32.9341	1.54375	57.0659	-3.28878e-06	-5.91414e-06	-3.06454e-09	-5.91108e-06	0.261372	11563.2	5.99171	11557.2
316.316	5.80303	5.42607	7.94464	-43.0773	8.42102	0.261496	-0.0232563	92.7287	43.255	1	10	0.00493615	0.000621318	0	-3.6761e-06	1.86979e-06	5.99922e-06	-90.936	0.00965564	-0.000157729	0.00965435	-43.1289	7.95112	5.80287	5.43572	0.0919403	0.085968	0.125871	43.0773	43255	46259.9	63332.2	-46.9227	0.0000000E+000	0.0000000E+000	0.0000000E+000	46.9227	0.0000000E+000	0.0000000E+000	0.0000000E+000	-46.9227	0.0000000E+000	0.0000000E+000	0.0000000E+000	-43.0773	0.0000000E+000	0.0000000E+000	0.0000000E+000	43.0773	1.06947	46.9227	-3.18747e-06	-6.08142e-06	-4.34844e-11	-6.08138e-06	0.261494	11244.1	0.0803993	11244
100.032	11.5274	10.433	15.5476	-42.1471	9.76877	0.261493	-0.0222766	152.501	68.6696	1	10	0.00490901	0.000315741	0	-1.13886e-05	5.91423e-05	1.39424e-05	6.87247	0.0441576	0.0438404	-0.00528389	-42.0245	15.5766	11.5712	10.4277	0.0476874	0.0431602	0.0643186	42.1471	68669.6	75872.5	102334	-47.8529	0.0000000E+000	0.0000000E+000	0.0000000E+000	47.8529	0.0000000E+000	0.0000000E+000	0.0000000E+000	-47.8529	0.0000000E+000	0.0000000E+000	0.0000000E+000	-42.1471	0.0000000E+000	0.0000000E+000	0.0000000E+000	42.1471	1.10489	47.8529	-3.02937e-06	-5.82517e-06	-1.31749e-09	-5.82385e-06	0.261434	11738.5	2.65491	11735.8
[...]
1.00006	35.6012	3.11253	35.737	-4.99653	19.5079	0.261549	-0.00778975	51130.4	387.855	1	12	0.00490863	0.000137354	0	-4.0723e-05	0.000402778	4.30015e-06	-65.9513	0.031307	0.012758	0.0285895	-5.04039	35.7522	35.6139	3.14112	0.0278759	0.00243712	0.0279822	4.99653	387855	4.4363e+06	4.45322e+06	-85.0035	0.0000000E+000	0.0000000E+000	0.0000000E+000	85.0035	0.0000000E+000	0.0000000E+000	0.0000000E+000	-85.0035	0.0000000E+000	0.0000000E+000	0.0000000E+000	-4.99653	0.0000000E+000	0.0000000E+000	0.0000000E+000	4.99653	11.438	85.0035	-3.57869e-06	-2.0374e-06	-3.13754e-09	-2.03427e-06	0.261146	33576.1	51.7061	33524.3
0.316193	37.8415	3.20503	37.977	-4.84117	33.8501	0.261549	-0.00605331	157049	1118.56	1	12	0.00490675	0.000129203	0	-4.73747e-05	0.000135506	1.18659e-06	55.5165	0.00918389	0.00519964	-0.00757018	-4.82913	37.9815	37.8467	3.19745	0.0262378	0.00222224	0.0263317	4.84117	1.11856e+06	1.32067e+07	1.3254e+07	-85.1588	0.0000000E+000	0.0000000E+000	0.0000000E+000	85.1588	0.0000000E+000	0.0000000E+000	0.0000000E+000	-85.1588	0.0000000E+000	0.0000000E+000	0.0000000E+000	-4.84117	0.0000000E+000	0.0000000E+000	0.0000000E+000	4.84117	11.8069	85.1588	-4.23309e-06	-1.58323e-06	-8.20257e-10	-1.58241e-06	0.261413	43207.6	22.3854	43185.2
0.0999041	40.5685	4.14648	40.7798	-5.8359	79.0584	0.261542	-0.00300064	384200	3972.14	1	12	0.00490581	0.0001203	0	-0.000145243	-7.44936e-05	2.07404e-06	3.44675	0.0172406	0.0172094	-0.00103652	-5.83199	40.7969	40.5857	4.14544	0.0243948	0.00249338	0.0245219	5.8359	3.97215e+06	3.88628e+07	3.90653e+07	-84.1641	0.0000000E+000	0.0000000E+000	0.0000000E+000	84.1641	0.0000000E+000	0.0000000E+000	0.0000000E+000	-84.1641	0.0000000E+000	0.0000000E+000	0.0000000E+000	-5.8359	0.0000000E+000	0.0000000E+000	0.0000000E+000	5.8359	9.78384	84.1641	-5.17002e-05	-7.84793e-07	2.23529e-10	-7.85016e-07	0.261616	87161.8	24.8259	87186.7
0.0315922	44.54	8.08923	45.2686	-10.2937	221.943	0.261539	-0.00232423	622778	19886.3	1	12	0.00490654	0.000108387	0	-0.000299591	0.000269142	2.11154e-06	6.90341	0.0194814	0.0193402	-0.00234159	-10.2864	45.2872	44.5593	8.08689	0.0217348	0.00394742	0.0220904	10.2937	1.98863e+07	1.09495e+08	1.11287e+08	-79.7063	0.0000000E+000	0.0000000E+000	0.0000000E+000	79.7063	0.0000000E+000	0.0000000E+000	0.0000000E+000	-79.7063	0.0000000E+000	0.0000000E+000	0.0000000E+000	-10.2937	0.0000000E+000	0.0000000E+000	0.0000000E+000	10.2937	5.50609	79.7063	-2.58444e-05	-6.07877e-07	-6.25547e-10	-6.07252e-07	0.26127	112527	115.798	112411
0.0100092	50.8211	17.4176	53.7229	-18.9179	673.166	0.261541	-9.92525e-05	912920	95960.4	1	12	0.00490746	9.13476e-05	0	9.81909e-05	1.86979e-06	3.11304e-06	10.2222	0.0340791	0.0335381	-0.00604787	-18.9002	53.7527	50.8546	17.4116	0.0176086	0.0060349	0.018614	18.9179	9.59604e+07	2.79992e+08	2.9598e+08	-71.0821	0.0000000E+000	0.0000000E+000	0.0000000E+000	71.0821	0.0000000E+000	0.0000000E+000	0.0000000E+000	-71.0821	0.0000000E+000	0.0000000E+000	0.0000000E+000	-18.9179	0.0000000E+000	0.0000000E+000	0.0000000E+000	18.9179	2.91779	71.0821	0.000191078	-2.59586e-08	-1.85581e-13	-2.59584e-08	0.261539	2.6351e+06	18.8387	2.63508e+06

File: 19344_R279_UA714_SOC00_C03.mpt
EC-Lab ASCII FILE
Nb header lines : 65

Potentio Electrochemical Impedance Spectroscopy

Run on channel : 3 (SN 65921)
User :
CE vs. WE compliance from -10 V to 10 V
Electrode connection : standard
Potential control : Ewe
Ewe ctrl range : min = -10.00 V, max = 10.00 V
Safety Limits :
	Do not start on E overload
Acquisition started on : 11/20/2025 15:02:36.770
Technique started on : 11/20/2025 15:02:38.692
Loaded Setting File :  C:\Users\Celltest\OneDrive - store-dot.com\Documents\EC-Lab\Data\@Biologic Test Protocols\anode half cell EIS SOC00.mps
Saved on :
	File : 19344_R279_UA714_SOC00_C03.mpr
	Directory : C:\Users\Celltest\OneDrive - store-dot.com\Documents\EC-Lab\Data\Charmaine\
	Host : 169.254.61.224
Device : VMP-3e (SN .003165)
Address : USB
EC-LAB for windows v11.62 (software)
Internet server v27.00 (firmware)
Command interpretor v12.03 (firmware)
Electrode material :
Initial state :
Electrolyte :
Comments :
Electrode surface area : 0.001 cm²
Characteristic mass : 0.001 g
Equivalent Weight : 0.000 g/eq.
Density : 0.000 g/cm3
Volume (V) : 0.001 cm³
Record Ece
Cycle Definition : Charge/Discharge alternance
Mode                Single sine
E (V)               0.0000
vs.                 Eoc
tE (h:m:s)          0:00:0.0000
record              0
dI                  0.000
unit dI             mA
dt (s)              0.000
fi                  100.000
unit fi             kHz
ff                  10.000
unit ff             mHz
Nd                  6
Points              per decade
spacing             Logarithmic
Va (mV)             5.0
pw                  0.10
Na                  2
corr                0
E range min (V)     -10.000
E range max (V)     10.000
I Range             Auto
Bandwidth           5
nc cycles           0
goto Ns'            0
nr cycles           0
inc. cycle          0

freq/Hz	Re(Z)/Ohm	-Im(Z)/Ohm	|Z|/Ohm	Phase(Z)/deg	time/s	<Ewe>/V	<I>/mA	Cs/µF	Cp/µF	cycle number	I Range	|Ewe|/V	|I|/A	Ns	(Q-Qo)/mA.h	<Ece>/V	|Ece|/V	Phase(Zce)/deg	|Zce|/Ohm	Re(Zce)/Ohm	-Im(Zce)/Ohm	Phase(Zwe-ce)/deg	|Zwe-ce|/Ohm	Re(Zwe-ce)/Ohm	-Im(Zwe-ce)/Ohm	Re(Y)/Ohm-1	Im(Y)/Ohm-1	|Y|/Ohm-1	Phase(Y)/deg	Re(C)/nF	Im(C)/nF	|C|/nF	Phase(C)/deg	Re(M)	Im(M)	|M|	Phase(M)/deg	Re(Permittivity)	Im(Permittivity)	|Permittivity|	Phase(Permittivity)/deg	Re(Resistivity)/Ohm.cm	Im(Resistivity)/Ohm.cm	|Resistivity|/Ohm.cm	Phase(Resistivity)/deg	Re(Conductivity)/mS/cm	Im(Conductivity)/mS/cm	|Conductivity|/mS/cm	Phase(Conductivity)/deg	Tan(Delta)	Loss Angle(Delta)/deg	dq/mA.h	Pwe/W	Pce/W	Pwe-ce/W	<Ewe-Ece>/V	Rwe/Ohm	Rce/Ohm	Rwe-ce/Ohm		Ewe-Ece/V
100004	0.467844	-0.931991	1.04283	63.3441	1.92151	0.26449	0.0422099	-1.70762	-1.36393	1	9	0.000268429	0.000257406	0	5.48951e-06	-0.000188635	1.46651e-05	86.7526	0.0569729	0.00322739	-0.0568815	64.5282	1.09534	0.471071	-0.988873	0.430207	-0.857015	0.958933	-63.3441	-1363.93	684.67	1526.13	-153.344	0.0000000E+000	0.0000000E+000	0.0000000E+000	153.344	0.0000000E+000	0.0000000E+000	0.0000000E+000	-153.344	0.0000000E+000	0.0000000E+000	0.0000000E+000	63.3441	0.0000000E+000	0.0000000E+000	0.0000000E+000	-63.3441	0.501983	26.6559	5.48951e-06	1.11641e-05	-7.96226e-09	1.1172e-05	0.264678	6266.07	4.46898	6270.53
31621.1	2.08129	0.822076	2.23776	-21.5533	2.95256	0.264291	-0.104349	6.12253	0.826283	1	9	0.349216	0.156056	0	1.84202e-05	-0.000207729	8.361e-05	76.7659	0.000535768	0.000122653	-0.000521539	-21.5397	2.23768	2.08141	0.821554	0.415629	0.164167	0.446876	21.5533	826.283	2091.94	2249.21	-68.4467	0.0000000E+000	0.0000000E+000	0.0000000E+000	68.4467	0.0000000E+000	0.0000000E+000	0.0000000E+000	-68.4467	0.0000000E+000	0.0000000E+000	0.0000000E+000	-21.5533	0.0000000E+000	0.0000000E+000	0.0000000E+000	21.5533	2.53174	68.4467	7.04943e-06	-2.75785e-05	2.16764e-08	-2.76002e-05	0.264498	2532.75	1.99071	2534.74
10002.2	2.68704	1.00434	2.86861	-20.4944	4.34952	0.264474	0.0143143	15.8431	1.94207	1	9	0.00487767	0.00170036	0	-0.000123013	-0.000265011	8.95569e-06	-145.182	0.00526693	-0.00432396	0.0030073	-20.581	2.86561	2.68272	1.00735	0.326537	0.122051	0.348601	20.4944	1942.07	5195.84	5546.93	-69.5056	0.0000000E+000	0.0000000E+000	0.0000000E+000	69.5056	0.0000000E+000	0.0000000E+000	0.0000000E+000	-69.5056	0.0000000E+000	0.0000000E+000	0.0000000E+000	-20.4944	0.0000000E+000	0.0000000E+000	0.0000000E+000	20.4944	2.67542	69.5056	3.27372e-07	3.78576e-06	-3.79345e-09	3.78955e-06	0.264739	18476.2	18.5138	18494.7
3163.08	3.34636	1.46128	3.6515	-23.5898	5.24764	0.264304	-0.00832292	34.4332	5.51442	1	9	0.00455984	0.00124876	0	-0.000124327	0.000155058	5.33099e-06	51.9149	0.00426903	0.00263327	-0.00336014	-23.5249	3.65257	3.34899	1.45792	0.250975	0.109595	0.27386	23.5898	5514.42	12628.2	13779.7	-66.4102	0.0000000E+000	0.0000000E+000	0.0000000E+000	66.4102	0.0000000E+000	0.0000000E+000	0.0000000E+000	-66.4102	0.0000000E+000	0.0000000E+000	0.0000000E+000	-23.5898	0.0000000E+000	0.0000000E+000	0.0000000E+000	23.5898	2.29002	66.4102	-6.05155e-07	-2.19978e-06	-1.29053e-09	-2.19849e-06	0.264149	31756.2	18.6302	31737.5
1000.32	4.18733	2.60985	4.93407	-31.9342	6.8458	0.264434	-0.0104415	60.9628	17.0563	1	10	0.00457039	0.000926291	0	-0.000123109	9.77758e-05	4.20558e-06	6.64908	0.00454024	0.0045097	-0.000525705	-31.9013	4.93762	4.19184	2.60933	0.171999	0.107202	0.202672	31.9342	17056.3	27365.7	32246	-58.0658	0.0000000E+000	0.0000000E+000	0.0000000E+000	58.0658	0.0000000E+000	0.0000000E+000	0.0000000E+000	-58.0658	0.0000000E+000	0.0000000E+000	0.0000000E+000	-31.9342	0.0000000E+000	0.0000000E+000	0.0000000E+000	31.9342	1.60443	58.0658	-1.53212e-06	-2.76109e-06	-1.02092e-09	-2.76007e-06	0.264336	25325.3	9.36416	25316
316.316	5.9706	5.65308	8.22225	-43.4353	8.40903	0.264421	-0.0107995	89.0049	42.0729	1	10	0.00499528	0.000607532	0	-0.000127386	-0.000188635	9.41924e-06	-21.1939	0.0155041	0.0144554	0.00560513	-43.3944	8.2366	5.98506	5.65869	0.0883154	0.0836188	0.121621	43.4353	42072.9	44436.1	61193.9	-46.5647	0.0000000E+000	0.0000000E+000	0.0000000E+000	46.5647	0.0000000E+000	0.0000000E+000	0.0000000E+000	-46.5647	0.0000000E+000	0.0000000E+000	0.0000000E+000	-43.4353	0.0000000E+000	0.0000000E+000	0.0000000E+000	43.4353	1.05617	46.5647	-1.76117e-06	-2.85561e-06	2.03716e-09	-2.85764e-06	0.264609	24484.6	17.4671	24502.1
100.032	11.6798	11.4882	16.3828	-44.5262	9.75681	0.264421	-0.0103371	138.494	68.1017	1	10	0.00496324	0.000302955	0	-0.000130591	-0.000265011	8.89331e-06	86.375	0.0293553	0.00185602	-0.0292965	-44.4485	16.3636	11.6816	11.4589	0.043517	0.0428033	0.0610397	44.5262	68101.7	69237.3	97116.7	-45.4738	0.0000000E+000	0.0000000E+000	0.0000000E+000	45.4738	0.0000000E+000	0.0000000E+000	0.0000000E+000	-45.4738	0.0000000E+000	0.0000000E+000	0.0000000E+000	-44.5262	0.0000000E+000	0.0000000E+000	0.0000000E+000	44.5262	1.01668	45.4738	-1.56426e-06	-2.73334e-06	2.73945e-09	-2.73608e-06	0.264686	25579.8	25.6369	25605.4
[...]
1.00006	41.4078	3.68417	41.5714	-5.08438	19.5039	0.264469	-0.00531138	43196.9	339.268	1	12	0.00495566	0.000119208	0	-0.00014755	-5.49767e-05	4.93731e-06	9.03402	0.0414175	0.0409037	-0.00650341	-5.07047	41.6116	41.4487	3.67767	0.0239603	0.00213182	0.024055	5.08438	339268	3.81316e+06	3.82823e+06	-84.9156	0.0000000E+000	0.0000000E+000	0.0000000E+000	84.9156	0.0000000E+000	0.0000000E+000	0.0000000E+000	-84.9156	0.0000000E+000	0.0000000E+000	0.0000000E+000	-5.08438	0.0000000E+000	0.0000000E+000	0.0000000E+000	5.08438	11.2394	84.9156	-5.77208e-07	-1.4047e-06	2.92002e-10	-1.40499e-06	0.264524	49793	10.3507	49803.3
0.316193	43.9809	3.6932	44.1357	-4.80002	33.8461	0.26446	-0.00407815	136290	954.311	1	12	0.00495641	0.000112299	0	-0.00015312	-0.000112259	1.96474e-06	3.78109	0.0174956	0.0174575	-0.00115374	-4.79664	44.153	43.9984	3.69205	0.0225779	0.00189593	0.0226574	4.80002	954312	1.13645e+07	1.14045e+07	-85.2	0.0000000E+000	0.0000000E+000	0.0000000E+000	85.2	0.0000000E+000	0.0000000E+000	0.0000000E+000	-85.2	0.0000000E+000	0.0000000E+000	0.0000000E+000	-4.80002	0.0000000E+000	0.0000000E+000	0.0000000E+000	4.80002	11.9086	85.2	-6.02851e-06	-1.07851e-06	4.57809e-10	-1.07897e-06	0.264573	64848.1	27.5269	64875.6
0.0999041	46.9845	4.43731	47.1936	-5.39513	79.0538	0.264465	-0.00231165	359019	3173.89	1	12	0.00495972	0.000105093	0	-0.000242622	-3.58827e-05	1.84123e-06	-2.16551	0.01752	0.0175075	0.000662015	-5.39393	47.211	47.002	4.43797	0.0210955	0.0019923	0.0211893	5.39513	3.17388e+06	3.36067e+07	3.37562e+07	-84.6049	0.0000000E+000	0.0000000E+000	0.0000000E+000	84.6049	0.0000000E+000	0.0000000E+000	0.0000000E+000	-84.6049	0.0000000E+000	0.0000000E+000	0.0000000E+000	-5.39513	0.0000000E+000	0.0000000E+000	0.0000000E+000	5.39513	10.5885	84.6049	-4.23108e-05	-6.11349e-07	8.2948e-11	-6.11432e-07	0.264501	114405	15.5226	114421
0.0315922	50.6461	8.1933	51.3045	-9.18944	221.937	0.264468	-0.00204679	614868	15681.5	1	12	0.00495704	9.66199e-05	0	-0.00030313	-9.31649e-05	2.40613e-06	16.6636	0.024903	0.0238572	-0.00714098	-9.17732	51.3269	50.6699	8.18615	0.0192413	0.00311277	0.0194915	9.18944	1.56815e+07	9.69337e+07	9.81939e+07	-80.8106	0.0000000E+000	0.0000000E+000	0.0000000E+000	80.8106	0.0000000E+000	0.0000000E+000	0.0000000E+000	-80.8106	0.0000000E+000	0.0000000E+000	0.0000000E+000	-9.18944	0.0000000E+000	0.0000000E+000	0.0000000E+000	9.18944	6.1814	80.8106	1.43431e-05	-5.41309e-07	1.90688e-10	-5.415e-07	0.264561	129211	45.5177	129257
0.0100092	56.8204	17.9254	59.5809	-17.5092	673.157	0.264463	8.69057e-05	887058	80293.1	1	12	0.00495686	8.31955e-05	0	7.48877e-07	-1.67886e-05	1.59067e-06	-20.1824	0.0191197	0.0179457	0.00659648	-17.5101	59.6	56.8384	17.932	0.0160063	0.00504959	0.0167839	17.5092	8.0293e+07	2.54514e+08	2.66879e+08	-72.4908	0.0000000E+000	0.0000000E+000	0.0000000E+000	72.4908	0.0000000E+000	0.0000000E+000	0.0000000E+000	-72.4908	0.0000000E+000	0.0000000E+000	0.0000000E+000	-17.5092	0.0000000E+000	0.0000000E+000	0.0000000E+000	17.5092	3.16982	72.4908	9.65577e-05	2.29833e-08	-1.45902e-12	2.29848e-08	0.26448	3.0431e+06	193.182	3.0433e+06