Folder: EIS/txt (part 151)

File: 19006_R309_UA708_SOC00_C05.mpt
EC-Lab ASCII FILE
Nb header lines : 65

Potentio Electrochemical Impedance Spectroscopy

Run on channel : 5 (SN 65912)
Grouped channel(s) : 2, 3, 4, 5, 6
User :
CE vs. WE compliance from -10 V to 10 V
Electrode connection : standard
Potential control : Ewe
Ewe ctrl range : min = -10.00 V, max = 10.00 V
Safety Limits :
	Do not start on E overload
Acquisition started on : 11/04/2025 16:08:38.802
Loaded Setting File :  C:\Users\Celltest\OneDrive - store-dot.com\Documents\EC-Lab\Data\@Biologic Test Protocols\anode half cell EIS SOC00.mps
Saved on :
	File : 19003_R309_UA708_SOC00_C05.mpr
	Directory : C:\Users\Celltest\OneDrive - store-dot.com\Documents\EC-Lab\Data\Charmaine\
	Host : 169.254.61.224
Device : VMP-3e (SN .003165)
Address : USB
EC-LAB for windows v11.62 (software)
Internet server v27.00 (firmware)
Command interpretor v12.03 (firmware)
Electrode material :
Initial state :
Electrolyte :
Comments :
Electrode surface area : 0.001 cm²
Characteristic mass : 0.001 g
Equivalent Weight : 0.000 g/eq.
Density : 0.000 g/cm3
Volume (V) : 0.001 cm³
Record Ece
Cycle Definition : Charge/Discharge alternance
Mode                Single sine
E (V)               0.0000
vs.                 Eoc
tE (h:m:s)          0:00:0.0000
record              0
dI                  0.000
unit dI             mA
dt (s)              0.000
fi                  100.000
unit fi             kHz
ff                  10.000
unit ff             mHz
Nd                  6
Points              per decade
spacing             Logarithmic
Va (mV)             5.0
pw                  0.10
Na                  2
corr                0
E range min (V)     -10.000
E range max (V)     10.000
I Range             Auto
Bandwidth           5
nc cycles           0
goto Ns'            0
nr cycles           0
inc. cycle          0

freq/Hz	Re(Z)/Ohm	-Im(Z)/Ohm	|Z|/Ohm	Phase(Z)/deg	time/s	<Ewe>/V	<I>/mA	Cs/µF	Cp/µF	cycle number	I Range	|Ewe|/V	|I|/A	Ns	(Q-Qo)/mA.h	<Ece>/V	|Ece|/V	Phase(Zce)/deg	|Zce|/Ohm	Re(Zce)/Ohm	-Im(Zce)/Ohm	Phase(Zwe-ce)/deg	|Zwe-ce|/Ohm	Re(Zwe-ce)/Ohm	-Im(Zwe-ce)/Ohm	Re(Y)/Ohm-1	Im(Y)/Ohm-1	|Y|/Ohm-1	Phase(Y)/deg	Re(C)/nF	Im(C)/nF	|C|/nF	Phase(C)/deg	Re(M)	Im(M)	|M|	Phase(M)/deg	Re(Permittivity)	Im(Permittivity)	|Permittivity|	Phase(Permittivity)/deg	Re(Resistivity)/Ohm.cm	Im(Resistivity)/Ohm.cm	|Resistivity|/Ohm.cm	Phase(Resistivity)/deg	Re(Conductivity)/mS/cm	Im(Conductivity)/mS/cm	|Conductivity|/mS/cm	Phase(Conductivity)/deg	Tan(Delta)	Loss Angle(Delta)/deg	dq/mA.h	Pwe/W	Pce/W	Pwe-ce/W	<Ewe-Ece>/V	Rwe/Ohm	Rce/Ohm	Rwe-ce/Ohm		Ewe-Ece/V
100004	1.57377	0.561232	1.67085	-19.6271	1.72651	0.243032	-0.00188351	2.83571	0.319943	1	9	0.00450587	0.00269676	0	-4.46644e-06	0.000101297	2.9608e-05	94.5571	0.0109791	-0.000872317	-0.0109444	-19.2827	1.66638	1.5729	0.550288	0.563725	0.201034	0.598498	19.6271	319.943	897.163	952.504	-70.3729	0.0000000E+000	0.0000000E+000	0.0000000E+000	70.3729	0.0000000E+000	0.0000000E+000	0.0000000E+000	-70.3729	0.0000000E+000	0.0000000E+000	0.0000000E+000	-19.6271	0.0000000E+000	0.0000000E+000	0.0000000E+000	19.6271	2.80413	70.3729	-4.46644e-06	-4.57754e-07	-1.90793e-10	-4.57563e-07	0.242931	129031	53.7808	128978
31621.1	2.09319	0.728148	2.21622	-19.181	3.24956	0.242983	-0.0231475	6.9123	0.746168	1	9	0.00497844	0.00224637	0	-2.163e-05	0.000215844	1.17633e-05	-24.9606	0.00523659	0.00474748	0.00220982	-19.1946	2.22143	2.09793	0.730358	0.42617	0.14825	0.451219	19.181	746.168	2144.99	2271.07	-70.819	0.0000000E+000	0.0000000E+000	0.0000000E+000	70.819	0.0000000E+000	0.0000000E+000	0.0000000E+000	-70.819	0.0000000E+000	0.0000000E+000	0.0000000E+000	-19.181	0.0000000E+000	0.0000000E+000	0.0000000E+000	19.181	2.87467	70.819	-8.16912e-06	-5.62443e-06	-4.99624e-09	-5.61944e-06	0.242767	10497.2	9.32474	10487.8
10002.2	2.65279	0.842458	2.78335	-17.6185	4.15256	0.242983	-0.0251584	18.8875	1.73037	1	9	0.00458663	0.00164788	0	-2.79378e-05	0.000368574	9.13824e-06	-59.8629	0.00554544	0.0027842	0.00479584	-17.6952	2.78745	2.65557	0.847254	0.342427	0.108746	0.35928	17.6185	1730.37	5448.68	5716.84	-72.3815	0.0000000E+000	0.0000000E+000	0.0000000E+000	72.3815	0.0000000E+000	0.0000000E+000	0.0000000E+000	-72.3815	0.0000000E+000	0.0000000E+000	0.0000000E+000	-17.6185	0.0000000E+000	0.0000000E+000	0.0000000E+000	17.6185	3.14886	72.3815	-3.10722e-06	-6.11306e-06	-9.27273e-09	-6.10379e-06	0.242614	9658.11	14.6501	9643.46
3163.08	3.25992	1.11904	3.44664	-18.9458	5.17561	0.242821	-0.0475395	44.9641	4.73982	1	9	0.00482573	0.00140012	0	-4.16132e-05	5.8406e-06	1.13631e-05	-127.184	0.00811575	-0.00490501	0.00646578	-19.0741	3.44411	3.25502	1.1255	0.27442	0.0942002	0.290138	18.9458	4739.82	13807.8	14598.7	-71.0542	0.0000000E+000	0.0000000E+000	0.0000000E+000	71.0542	0.0000000E+000	0.0000000E+000	0.0000000E+000	-71.0542	0.0000000E+000	0.0000000E+000	0.0000000E+000	-18.9458	0.0000000E+000	0.0000000E+000	0.0000000E+000	18.9458	2.91315	71.0542	-4.33535e-06	-1.15436e-05	-2.7766e-10	-1.15433e-05	0.242815	5107.76	0.122858	5107.64
1000.32	4.03422	1.70358	4.37917	-22.8934	6.77485	0.24294	-0.0213745	93.3939	14.1338	1	10	0.004841	0.00110546	0	-4.69677e-05	0.000254026	7.89821e-06	-47.2049	0.00714472	0.00485397	0.00524271	-22.9319	4.38568	4.03908	1.70882	0.210366	0.0888338	0.228354	22.8934	14133.8	33470.1	36332	-67.1066	0.0000000E+000	0.0000000E+000	0.0000000E+000	67.1066	0.0000000E+000	0.0000000E+000	0.0000000E+000	-67.1066	0.0000000E+000	0.0000000E+000	0.0000000E+000	-22.8934	0.0000000E+000	0.0000000E+000	0.0000000E+000	22.8934	2.36809	67.1066	-2.90119e-06	-5.19272e-06	-5.42969e-09	-5.18729e-06	0.242686	11365.9	11.8846	11354
316.316	5.44148	2.91209	6.17171	-28.1542	8.12409	0.242949	-0.0196878	172.78	38.4675	1	10	0.00478475	0.000775271	0	-5.37503e-05	-0.000242345	4.67358e-06	63.674	0.00602832	0.00267343	-0.00540309	-28.0982	6.17152	5.44415	2.90669	0.142859	0.076453	0.16203	28.1542	38467.5	71879.5	81525.5	-61.8458	0.0000000E+000	0.0000000E+000	0.0000000E+000	61.8458	0.0000000E+000	0.0000000E+000	0.0000000E+000	-61.8458	0.0000000E+000	0.0000000E+000	0.0000000E+000	-28.1542	0.0000000E+000	0.0000000E+000	0.0000000E+000	28.1542	1.86858	61.8458	-2.68305e-06	-4.78314e-06	4.77125e-09	-4.78791e-06	0.243192	12340.1	12.3094	12352.4
100.032	8.52401	4.27782	9.53722	-26.65	9.47077	0.24294	-0.021058	371.927	74.8273	1	10	0.00476361	0.000499476	0	-6.21583e-05	0.000387665	4.77597e-06	69.356	0.00956197	0.00337118	-0.00894799	-26.5929	9.53623	8.52739	4.26888	0.0937131	0.0470304	0.104852	26.65	74827.3	149101	166824	-63.35	0.0000000E+000	0.0000000E+000	0.0000000E+000	63.35	0.0000000E+000	0.0000000E+000	0.0000000E+000	-63.35	0.0000000E+000	0.0000000E+000	0.0000000E+000	-26.65	0.0000000E+000	0.0000000E+000	0.0000000E+000	26.65	1.99261	63.35	-1.81539e-06	-5.11583e-06	-8.16346e-09	-5.10767e-06	0.242552	11536.7	18.4094	11518.3
[...]
1.00006	15.9203	0.938508	15.948	-3.3737	18.4908	0.242985	-0.00926646	169572	587.245	1	11	0.00476065	0.000298511	0	-9.56489e-05	0.000234935	1.80087e-06	-16.9282	0.00603286	0.00577145	0.00175661	-3.37877	15.9538	15.9261	0.940265	0.0625952	0.00369	0.0627039	3.3737	587244	9.9617e+06	9.97899e+06	-86.6263	0.0000000E+000	0.0000000E+000	0.0000000E+000	86.6263	0.0000000E+000	0.0000000E+000	0.0000000E+000	-86.6263	0.0000000E+000	0.0000000E+000	0.0000000E+000	-3.3737	0.0000000E+000	0.0000000E+000	0.0000000E+000	3.3737	16.9635	86.6263	-2.79977e-06	-2.25161e-06	-2.17702e-09	-2.24943e-06	0.24275	26222	25.3533	26196.6
0.316193	16.2922	1.24223	16.3395	-4.36018	34.3472	0.242982	-0.00440556	405198	2342.03	1	12	0.00475879	0.000291245	0	-8.38405e-05	0.000120388	2.18364e-06	-17.6197	0.00749762	0.00714588	0.00226951	-4.36621	16.3468	16.2993	1.24449	0.0610244	0.00465291	0.0612015	4.36018	2.34203e+06	3.07164e+07	3.08056e+07	-85.6398	0.0000000E+000	0.0000000E+000	0.0000000E+000	85.6398	0.0000000E+000	0.0000000E+000	0.0000000E+000	-85.6398	0.0000000E+000	0.0000000E+000	0.0000000E+000	-4.36018	0.0000000E+000	0.0000000E+000	0.0000000E+000	4.36018	13.1153	85.6398	2.88422e-06	-1.07047e-06	-5.30376e-10	-1.06994e-06	0.242862	55153.6	27.3264	55126.3
0.0999041	16.8638	2.68834	17.0767	-9.05758	79.5552	0.242984	-0.00253789	592588	14686.3	1	12	0.00476134	0.00027882	0	-0.000245037	8.22055e-05	2.66501e-06	19.8346	0.00955818	0.00899115	-0.00324315	-9.04209	17.0851	16.8728	2.68509	0.057829	0.0092188	0.0585592	9.05758	1.46863e+07	9.21261e+07	9.32894e+07	-80.9424	0.0000000E+000	0.0000000E+000	0.0000000E+000	80.9424	0.0000000E+000	0.0000000E+000	0.0000000E+000	-80.9424	0.0000000E+000	0.0000000E+000	0.0000000E+000	-9.05758	0.0000000E+000	0.0000000E+000	0.0000000E+000	9.05758	6.27294	80.9424	-9.29987e-05	-6.16669e-07	-2.08629e-10	-6.1646e-07	0.242902	95742.5	32.3912	95710.1
0.0315922	18.3294	6.71404	19.5204	-20.1177	222.438	0.24298	-0.00384441	750337	88766.3	1	12	0.00475857	0.000243775	0	-0.000409579	-0.000280528	2.24031e-06	12.0345	0.00919007	0.00898809	-0.00191613	-20.1034	19.5281	18.3384	6.71213	0.048103	0.0176201	0.0512285	20.1177	8.87663e+07	2.42333e+08	2.58079e+08	-69.8822	0.0000000E+000	0.0000000E+000	0.0000000E+000	69.8822	0.0000000E+000	0.0000000E+000	0.0000000E+000	-69.8822	0.0000000E+000	0.0000000E+000	0.0000000E+000	-20.1177	0.0000000E+000	0.0000000E+000	0.0000000E+000	20.1177	2.73001	69.8822	4.02568e-05	-9.34114e-07	1.07846e-09	-9.35192e-07	0.24326	63203.5	72.9703	63276.5
0.0100092	22.6967	16.3457	27.97	-35.7606	673.66	0.24298	-0.00239744	972790	332230	1	12	0.00475905	0.000170148	0	9.54131e-05	0.000406756	2.75554e-06	14.934	0.0161949	0.0156479	-0.00417354	-35.7349	27.9803	22.7124	16.3415	0.029012	0.0208938	0.0357526	35.7606	3.3223e+08	4.61317e+08	5.68498e+08	-54.2394	0.0000000E+000	0.0000000E+000	0.0000000E+000	54.2394	0.0000000E+000	0.0000000E+000	0.0000000E+000	-54.2394	0.0000000E+000	0.0000000E+000	0.0000000E+000	-35.7606	0.0000000E+000	0.0000000E+000	0.0000000E+000	35.7606	1.38855	54.2394	2.44221e-05	-5.82529e-07	-9.75174e-10	-5.81554e-07	0.242573	101350	169.663	101180

File: 19007_R309_UA708_SOC00_C06.mpt
EC-Lab ASCII FILE
Nb header lines : 65

Potentio Electrochemical Impedance Spectroscopy

Run on channel : 6 (SN 65795)
Grouped channel(s) : 2, 3, 4, 5, 6
User :
CE vs. WE compliance from -10 V to 10 V
Electrode connection : standard
Potential control : Ewe
Ewe ctrl range : min = -10.00 V, max = 10.00 V
Safety Limits :
	Do not start on E overload
Acquisition started on : 11/04/2025 16:08:38.802
Loaded Setting File :  C:\Users\Celltest\OneDrive - store-dot.com\Documents\EC-Lab\Data\@Biologic Test Protocols\anode half cell EIS SOC00.mps
Saved on :
	File : 19003_R309_UA708_SOC00_C06.mpr
	Directory : C:\Users\Celltest\OneDrive - store-dot.com\Documents\EC-Lab\Data\Charmaine\
	Host : 169.254.61.224
Device : VMP-3e (SN .003165)
Address : USB
EC-LAB for windows v11.62 (software)
Internet server v27.00 (firmware)
Command interpretor v12.03 (firmware)
Electrode material :
Initial state :
Electrolyte :
Comments :
Electrode surface area : 0.001 cm²
Characteristic mass : 0.001 g
Equivalent Weight : 0.000 g/eq.
Density : 0.000 g/cm3
Volume (V) : 0.001 cm³
Record Ece
Cycle Definition : Charge/Discharge alternance
Mode                Single sine
E (V)               0.0000
vs.                 Eoc
tE (h:m:s)          0:00:0.0000
record              0
dI                  0.000
unit dI             mA
dt (s)              0.000
fi                  100.000
unit fi             kHz
ff                  10.000
unit ff             mHz
Nd                  6
Points              per decade
spacing             Logarithmic
Va (mV)             5.0
pw                  0.10
Na                  2
corr                0
E range min (V)     -10.000
E range max (V)     10.000
I Range             Auto
Bandwidth           5
nc cycles           0
goto Ns'            0
nr cycles           0
inc. cycle          0

freq/Hz	Re(Z)/Ohm	-Im(Z)/Ohm	|Z|/Ohm	Phase(Z)/deg	time/s	<Ewe>/V	<I>/mA	Cs/µF	Cp/µF	cycle number	I Range	|Ewe|/V	|I|/A	Ns	(Q-Qo)/mA.h	<Ece>/V	|Ece|/V	Phase(Zce)/deg	|Zce|/Ohm	Re(Zce)/Ohm	-Im(Zce)/Ohm	Phase(Zwe-ce)/deg	|Zwe-ce|/Ohm	Re(Zwe-ce)/Ohm	-Im(Zwe-ce)/Ohm	Re(Y)/Ohm-1	Im(Y)/Ohm-1	|Y|/Ohm-1	Phase(Y)/deg	Re(C)/nF	Im(C)/nF	|C|/nF	Phase(C)/deg	Re(M)	Im(M)	|M|	Phase(M)/deg	Re(Permittivity)	Im(Permittivity)	|Permittivity|	Phase(Permittivity)/deg	Re(Resistivity)/Ohm.cm	Im(Resistivity)/Ohm.cm	|Resistivity|/Ohm.cm	Phase(Resistivity)/deg	Re(Conductivity)/mS/cm	Im(Conductivity)/mS/cm	|Conductivity|/mS/cm	Phase(Conductivity)/deg	Tan(Delta)	Loss Angle(Delta)/deg	dq/mA.h	Pwe/W	Pce/W	Pwe-ce/W	<Ewe-Ece>/V	Rwe/Ohm	Rce/Ohm	Rwe-ce/Ohm		Ewe-Ece/V
100004	1.52266	0.537672	1.6148	-19.4488	1.86754	0.23659	-0.00134781	2.95996	0.328159	1	9	0.00493774	0.0030578	0	-7.40933e-06	8.26222e-05	4.42632e-05	69.337	0.0144755	0.00510799	-0.0135443	-18.9355	1.61517	1.52777	0.524128	0.583935	0.206196	0.619271	19.4488	328.159	929.327	985.565	-70.5512	0.0000000E+000	0.0000000E+000	0.0000000E+000	70.5512	0.0000000E+000	0.0000000E+000	0.0000000E+000	-70.5512	0.0000000E+000	0.0000000E+000	0.0000000E+000	-19.4488	0.0000000E+000	0.0000000E+000	0.0000000E+000	19.4488	2.83195	70.5512	-7.40933e-06	-3.18878e-07	-1.11359e-10	-3.18766e-07	0.236507	175536	61.3011	175475
31621.1	2.03398	0.718186	2.15705	-19.4479	3.01653	0.236528	-0.0251505	7.00819	0.776892	1	9	0.00541337	0.00250962	0	-7.64479e-06	0.000139916	1.35069e-05	1.96286	0.00538204	0.00537888	-0.000184344	-19.3958	2.16206	2.03935	0.718001	0.437146	0.154354	0.463597	19.4479	776.892	2200.24	2333.37	-70.5521	0.0000000E+000	0.0000000E+000	0.0000000E+000	70.5521	0.0000000E+000	0.0000000E+000	0.0000000E+000	-70.5521	0.0000000E+000	0.0000000E+000	0.0000000E+000	-19.4479	0.0000000E+000	0.0000000E+000	0.0000000E+000	19.4479	2.8321	70.5521	-2.17236e-06	-5.94881e-06	-3.51897e-09	-5.94529e-06	0.236388	9404.49	5.56315	9398.92
10002.2	2.58206	0.84009	2.71528	-18.0227	4.16655	0.236608	0.0480456	18.9408	1.81309	1	9	0.00523316	0.0019273	0	-4.49212e-06	0.000216308	9.80257e-06	-8.15365	0.00508617	0.00503476	0.000721363	-18.0043	2.72029	2.58709	0.840812	0.350215	0.113945	0.368286	18.0227	1813.09	5572.61	5860.15	-71.9773	0.0000000E+000	0.0000000E+000	0.0000000E+000	71.9773	0.0000000E+000	0.0000000E+000	0.0000000E+000	-71.9773	0.0000000E+000	0.0000000E+000	0.0000000E+000	-18.0227	0.0000000E+000	0.0000000E+000	0.0000000E+000	18.0227	3.07355	71.9773	6.66898e-07	1.1368e-05	1.03927e-08	1.13576e-05	0.236392	4924.67	4.50215	4920.16
3163.08	3.16625	1.11571	3.35707	-19.4112	5.18661	0.236492	-0.0110701	45.0982	4.98125	1	9	0.00528407	0.00157401	0	-6.32233e-06	-7.01621e-05	5.68179e-06	164.302	0.00360975	-0.0034751	-0.000976708	-19.4152	3.35347	3.16277	1.11473	0.280946	0.0989985	0.297878	19.4112	4981.26	14136.2	14988.2	-70.5888	0.0000000E+000	0.0000000E+000	0.0000000E+000	70.5888	0.0000000E+000	0.0000000E+000	0.0000000E+000	-70.5888	0.0000000E+000	0.0000000E+000	0.0000000E+000	-19.4112	0.0000000E+000	0.0000000E+000	0.0000000E+000	19.4112	2.83788	70.5888	-1.94093e-06	-2.61799e-06	7.76701e-10	-2.61876e-06	0.236562	21363.1	6.33799	21369.5
1000.32	3.97582	1.7021	4.32485	-23.1763	6.78685	0.236527	-0.0202098	93.4753	14.4785	1	10	0.00522047	0.00120709	0	-1.22706e-05	8.26222e-05	7.22998e-06	-134.49	0.0059896	-0.00419744	0.00427279	-23.2503	4.32267	3.97163	1.70637	0.212562	0.0910003	0.231222	23.1763	14478.5	33819.5	36788.4	-66.8237	0.0000000E+000	0.0000000E+000	0.0000000E+000	66.8237	0.0000000E+000	0.0000000E+000	0.0000000E+000	-66.8237	0.0000000E+000	0.0000000E+000	0.0000000E+000	-23.1763	0.0000000E+000	0.0000000E+000	0.0000000E+000	23.1763	2.33584	66.8237	-1.59064e-06	-4.78017e-06	-1.66978e-09	-4.7785e-06	0.236445	11703.6	4.08823	11699.5
316.316	5.36491	2.92978	6.11277	-28.6389	8.13608	0.236522	-0.0198558	171.737	39.451	1	10	0.00510055	0.00083441	0	-2.01512e-05	0.00010172	4.28447e-06	-4.15662	0.00513472	0.00512122	0.00037218	-28.619	6.11744	5.37004	2.93015	0.143578	0.0784078	0.163592	28.6389	39451	72241.4	82311.7	-61.3611	0.0000000E+000	0.0000000E+000	0.0000000E+000	61.3611	0.0000000E+000	0.0000000E+000	0.0000000E+000	-61.3611	0.0000000E+000	0.0000000E+000	0.0000000E+000	-28.6389	0.0000000E+000	0.0000000E+000	0.0000000E+000	28.6389	1.83117	61.3611	-1.90816e-06	-4.69632e-06	-2.01973e-09	-4.6943e-06	0.23642	11912	5.12296	11906.9
100.032	8.50707	4.2941	9.5294	-26.7832	9.48382	0.236519	-0.0195502	370.518	75.2354	1	10	0.00506475	0.000531486	0	-2.644e-05	-0.00018475	9.62246e-06	111.486	0.0181048	-0.00663138	-0.0168466	-26.7106	9.5159	8.50044	4.27725	0.0936804	0.0472869	0.104938	26.7832	75235.4	149049	166961	-63.2168	0.0000000E+000	0.0000000E+000	0.0000000E+000	63.2168	0.0000000E+000	0.0000000E+000	0.0000000E+000	-63.2168	0.0000000E+000	0.0000000E+000	0.0000000E+000	-26.7832	0.0000000E+000	0.0000000E+000	0.0000000E+000	26.7832	1.98111	63.2168	-2.29816e-06	-4.62399e-06	3.61191e-09	-4.6276e-06	0.236704	12098	9.45005	12107.5
[...]
1.00006	16.0405	1.02697	16.0733	-3.66329	19.5509	0.236547	-0.00958303	154966	632.615	1	12	0.00506101	0.000314871	0	-7.36586e-05	0.000139916	3.59865e-06	-44.9802	0.011429	0.00808431	0.00807873	-3.69017	16.0819	16.0485	1.03505	0.0620879	0.00397509	0.062215	3.66329	632615	9.88096e+06	9.90119e+06	-86.3367	0.0000000E+000	0.0000000E+000	0.0000000E+000	86.3367	0.0000000E+000	0.0000000E+000	0.0000000E+000	-86.3367	0.0000000E+000	0.0000000E+000	0.0000000E+000	-3.66329	0.0000000E+000	0.0000000E+000	0.0000000E+000	3.66329	15.6192	86.3367	-1.74798e-05	-2.26684e-06	-1.34082e-09	-2.2655e-06	0.236407	24683.9	14.6004	24669.3
0.316193	16.4281	1.30867	16.4802	-4.55457	33.8939	0.236545	-0.00903794	384626	2425.34	1	12	0.00505889	0.000306968	0	-7.13654e-05	0.000139916	9.084e-07	-45.6138	0.00295926	0.00206998	0.00211481	-4.56133	16.4824	16.4302	1.31078	0.0604874	0.00481843	0.060679	4.55457	2.42534e+06	3.04462e+07	3.05426e+07	-85.4454	0.0000000E+000	0.0000000E+000	0.0000000E+000	85.4454	0.0000000E+000	0.0000000E+000	0.0000000E+000	-85.4454	0.0000000E+000	0.0000000E+000	0.0000000E+000	-4.55457	0.0000000E+000	0.0000000E+000	0.0000000E+000	4.55457	12.5533	85.4454	1.10515e-05	-2.13788e-06	-1.26455e-09	-2.13662e-06	0.236405	26172.5	15.481	26157
0.0999041	17.068	2.79429	17.2952	-9.2977	79.1017	0.236535	-0.00134976	570120	14881.8	1	12	0.00506436	0.000292819	0	-9.43379e-05	0.000273603	1.71467e-06	-12.167	0.00585572	0.00572419	0.00123416	-9.29867	17.3011	17.0737	2.79552	0.0570599	0.00934156	0.0578195	9.2977	1.48818e+07	9.09008e+07	9.21109e+07	-80.7023	0.0000000E+000	0.0000000E+000	0.0000000E+000	80.7023	0.0000000E+000	0.0000000E+000	0.0000000E+000	-80.7023	0.0000000E+000	0.0000000E+000	0.0000000E+000	-9.2977	0.0000000E+000	0.0000000E+000	0.0000000E+000	9.2977	6.10817	80.7023	-3.99328e-05	-3.19264e-07	-3.69297e-10	-3.18895e-07	0.236261	175242	202.705	175040
0.0315922	18.5958	6.67184	19.7564	-19.7371	221.985	0.236532	-0.00363611	755083	86113.2	1	12	0.00505599	0.000255916	0	-0.000631608	0.000311799	1.82269e-06	-1.7162	0.00712223	0.00711903	0.000213303	-19.7307	19.7632	18.6029	6.67205	0.0476429	0.0170934	0.0506165	19.7371	8.61132e+07	2.40015e+08	2.54995e+08	-70.2629	0.0000000E+000	0.0000000E+000	0.0000000E+000	70.2629	0.0000000E+000	0.0000000E+000	0.0000000E+000	-70.2629	0.0000000E+000	0.0000000E+000	0.0000000E+000	-19.7371	0.0000000E+000	0.0000000E+000	0.0000000E+000	19.7371	2.7872	70.2629	-0.000227959	-8.60057e-07	-1.13373e-09	-8.58923e-07	0.23622	65050.8	85.7506	64965.1
0.0100092	22.5861	16.485	27.9623	-36.1247	673.206	0.236523	-0.00323547	964568	335248	1	12	0.00505458	0.000180764	0	-0.000178336	0.00010172	1.9727e-06	44.3544	0.0109131	0.0078032	-0.00762929	-36.1026	27.9641	22.5939	16.4774	0.0288866	0.0210836	0.0357625	36.1247	3.35248e+08	4.59324e+08	5.68656e+08	-53.8753	0.0000000E+000	0.0000000E+000	0.0000000E+000	53.8753	0.0000000E+000	0.0000000E+000	0.0000000E+000	-53.8753	0.0000000E+000	0.0000000E+000	0.0000000E+000	-36.1247	0.0000000E+000	0.0000000E+000	0.0000000E+000	36.1247	1.3701	53.8753	0.000365745	-7.65262e-07	-3.29112e-10	-7.64933e-07	0.236421	73103.1	31.4391	73071.7