Folder: EIS/txt (part 145)

File: 18950_R308_UA706_SOC00_C05.mpt
EC-Lab ASCII FILE
Nb header lines : 66

Potentio Electrochemical Impedance Spectroscopy

Run on channel : 5 (SN 65912)
Grouped channel(s) : 5, 6, 7, 8
User :
CE vs. WE compliance from -10 V to 10 V
Electrode connection : standard
Potential control : Ewe
Ewe ctrl range : min = -10.00 V, max = 10.00 V
Safety Limits :
	Do not start on E overload
Acquisition started on : 11/04/2025 15:53:30.548
Technique started on : 11/04/2025 15:53:32.275
Loaded Setting File :  C:\Users\Celltest\OneDrive - store-dot.com\Documents\EC-Lab\Data\@Biologic Test Protocols\anode half cell EIS SOC00.mps
Saved on :
	File : 18950_R308_UA706_SOC00_C05.mpr
	Directory : C:\Users\Celltest\OneDrive - store-dot.com\Documents\EC-Lab\Data\Charmaine\
	Host : 169.254.61.224
Device : VMP-3e (SN .003165)
Address : USB
EC-LAB for windows v11.62 (software)
Internet server v27.00 (firmware)
Command interpretor v12.03 (firmware)
Electrode material :
Initial state :
Electrolyte :
Comments :
Electrode surface area : 0.001 cm²
Characteristic mass : 0.001 g
Equivalent Weight : 0.000 g/eq.
Density : 0.000 g/cm3
Volume (V) : 0.001 cm³
Record Ece
Cycle Definition : Charge/Discharge alternance
Mode                Single sine
E (V)               0.0000
vs.                 Eoc
tE (h:m:s)          0:00:0.0000
record              0
dI                  0.000
unit dI             mA
dt (s)              0.000
fi                  100.000
unit fi             kHz
ff                  10.000
unit ff             mHz
Nd                  6
Points              per decade
spacing             Logarithmic
Va (mV)             5.0
pw                  0.10
Na                  2
corr                0
E range min (V)     -10.000
E range max (V)     10.000
I Range             Auto
Bandwidth           5
nc cycles           0
goto Ns'            0
nr cycles           0
inc. cycle          0

freq/Hz	Re(Z)/Ohm	-Im(Z)/Ohm	|Z|/Ohm	Phase(Z)/deg	time/s	<Ewe>/V	<I>/mA	Cs/µF	Cp/µF	cycle number	I Range	|Ewe|/V	|I|/A	Ns	(Q-Qo)/mA.h	<Ece>/V	|Ece|/V	Phase(Zce)/deg	|Zce|/Ohm	Re(Zce)/Ohm	-Im(Zce)/Ohm	Phase(Zwe-ce)/deg	|Zwe-ce|/Ohm	Re(Zwe-ce)/Ohm	-Im(Zwe-ce)/Ohm	Re(Y)/Ohm-1	Im(Y)/Ohm-1	|Y|/Ohm-1	Phase(Y)/deg	Re(C)/nF	Im(C)/nF	|C|/nF	Phase(C)/deg	Re(M)	Im(M)	|M|	Phase(M)/deg	Re(Permittivity)	Im(Permittivity)	|Permittivity|	Phase(Permittivity)/deg	Re(Resistivity)/Ohm.cm	Im(Resistivity)/Ohm.cm	|Resistivity|/Ohm.cm	Phase(Resistivity)/deg	Re(Conductivity)/mS/cm	Im(Conductivity)/mS/cm	|Conductivity|/mS/cm	Phase(Conductivity)/deg	Tan(Delta)	Loss Angle(Delta)/deg	dq/mA.h	Pwe/W	Pce/W	Pwe-ce/W	<Ewe-Ece>/V	Rwe/Ohm	Rce/Ohm	Rwe-ce/Ohm		Ewe-Ece/V
100004	2.02635	1.02708	2.27178	-26.8788	1.72654	0.218597	-0.0549503	1.54952	0.316721	1	9	0.00458683	0.00201905	0	-6.97126e-06	0.000121199	3.2891e-05	90.0053	0.0162904	-1.51739e-06	-0.0162904	-26.5112	2.26446	2.02635	1.01079	0.392628	0.199009	0.440183	26.8788	316.721	624.863	700.547	-63.1212	0.0000000E+000	0.0000000E+000	0.0000000E+000	63.1212	0.0000000E+000	0.0000000E+000	0.0000000E+000	-63.1212	0.0000000E+000	0.0000000E+000	0.0000000E+000	-26.8788	0.0000000E+000	0.0000000E+000	0.0000000E+000	26.8788	1.97291	63.1212	-6.97126e-06	-1.2012e-05	-6.65993e-09	-1.20053e-05	0.218476	3978.09	2.20562	3975.88
31621.1	3.09923	1.60753	3.49133	-27.4151	3.12356	0.218586	-0.0394213	3.13101	0.663773	1	9	0.00516188	0.00147849	0	-1.19282e-05	0.000102108	1.45305e-05	-38.1824	0.00982796	0.00772524	0.00607531	-27.4452	3.50099	3.10696	1.6136	0.254257	0.131879	0.286424	27.4151	663.773	1279.72	1441.62	-62.5849	0.0000000E+000	0.0000000E+000	0.0000000E+000	62.5849	0.0000000E+000	0.0000000E+000	0.0000000E+000	-62.5849	0.0000000E+000	0.0000000E+000	0.0000000E+000	-27.4151	0.0000000E+000	0.0000000E+000	0.0000000E+000	27.4151	1.92795	62.5849	-1.87536e-06	-8.61695e-06	-4.02523e-09	-8.61292e-06	0.218484	5544.88	2.59018	5542.29
10002.2	4.48056	1.81773	4.83524	-22.082	4.30453	0.218614	-0.0252022	8.75375	1.23713	1	10	0.00464061	0.000959748	0	-2.38047e-05	4.48344e-05	1.01238e-05	-106.874	0.0105485	-0.00306193	0.0100943	-22.2065	4.83621	4.4775	1.82782	0.191644	0.0777486	0.206815	22.082	1237.13	3049.44	3290.83	-67.918	0.0000000E+000	0.0000000E+000	0.0000000E+000	67.918	0.0000000E+000	0.0000000E+000	0.0000000E+000	-67.918	0.0000000E+000	0.0000000E+000	0.0000000E+000	-22.082	0.0000000E+000	0.0000000E+000	0.0000000E+000	22.082	2.46492	67.918	-3.78937e-06	-5.50954e-06	-1.12992e-09	-5.50841e-06	0.218569	8674.4	1.77899	8672.62
3163.08	5.72299	1.99895	6.06205	-19.2535	5.20468	0.218517	-0.0210766	25.1714	2.73699	1	10	0.00462507	0.000762955	0	-3.01184e-05	0.000102108	1.28029e-05	-2.38995	0.0167806	0.016766	0.000699759	-19.2076	6.07811	5.73976	1.99965	0.155734	0.0543956	0.164961	19.2535	2736.99	7836	8300.24	-70.7465	0.0000000E+000	0.0000000E+000	0.0000000E+000	70.7465	0.0000000E+000	0.0000000E+000	0.0000000E+000	-70.7465	0.0000000E+000	0.0000000E+000	0.0000000E+000	-19.2535	0.0000000E+000	0.0000000E+000	0.0000000E+000	19.2535	2.863	70.7465	-2.56739e-06	-4.6056e-06	-2.1521e-09	-4.60345e-06	0.218415	10367.7	4.84461	10362.9
1000.32	7.05257	2.80368	7.58943	-21.6798	6.55781	0.218578	-0.00285055	56.7482	7.74447	1	10	0.00454602	0.000598994	0	-3.11238e-05	0.000178473	6.87548e-06	33.4205	0.0114784	0.00958044	-0.00632205	-21.6088	7.596	7.06215	2.79736	0.122442	0.0486755	0.131762	21.6798	7744.48	19481	20963.9	-68.3202	0.0000000E+000	0.0000000E+000	0.0000000E+000	68.3202	0.0000000E+000	0.0000000E+000	0.0000000E+000	-68.3202	0.0000000E+000	0.0000000E+000	0.0000000E+000	-21.6798	0.0000000E+000	0.0000000E+000	0.0000000E+000	21.6798	2.51547	68.3202	4.82294e-08	-6.23068e-07	-5.08747e-10	-6.22559e-07	0.218399	76679	62.6099	76616.4
316.316	9.27301	4.72798	10.4088	-27.0154	7.90802	0.218575	-0.00259364	106.42	21.9571	1	10	0.00450973	0.000433262	0	-3.2345e-05	0.000235747	5.50448e-06	6.99549	0.0127047	0.0126102	-0.00154732	-26.9763	10.4193	9.28562	4.72643	0.0855897	0.0436392	0.0960728	27.0154	21957.1	43064.6	48339.2	-62.9846	0.0000000E+000	0.0000000E+000	0.0000000E+000	62.9846	0.0000000E+000	0.0000000E+000	0.0000000E+000	-62.9846	0.0000000E+000	0.0000000E+000	0.0000000E+000	-27.0154	0.0000000E+000	0.0000000E+000	0.0000000E+000	27.0154	1.96131	62.9846	-5.36314e-07	-5.66904e-07	-6.11442e-10	-5.66293e-07	0.218339	84273.2	90.894	84182.4
100.032	14.4596	6.88502	16.0151	-25.4616	9.46985	0.218583	-0.0023479	231.087	42.7095	1	10	0.00487571	0.000304444	0	-3.30099e-05	8.30168e-05	9.75523e-06	-34.8464	0.0320427	0.0262971	0.0183085	-25.4803	16.0468	14.4859	6.90332	0.0563762	0.0268438	0.0624409	25.4616	42709.5	89696.9	99346	-64.5384	0.0000000E+000	0.0000000E+000	0.0000000E+000	64.5384	0.0000000E+000	0.0000000E+000	0.0000000E+000	-64.5384	0.0000000E+000	0.0000000E+000	0.0000000E+000	-25.4616	0.0000000E+000	0.0000000E+000	0.0000000E+000	25.4616	2.10016	64.5384	-6.81667e-07	-5.13211e-07	-1.94915e-10	-5.13016e-07	0.2185	93097.1	35.3579	93061.8
[...]
1.00006	24.3231	1.0421	24.3454	-2.45329	19.5269	0.218626	-0.0023866	152715	279.814	1	12	0.00487559	0.000200267	0	-3.4712e-05	-0.000165169	2.85584e-06	-0.409531	0.0142601	0.0142598	0.000101926	-2.45209	24.3597	24.3374	1.04221	0.0410378	0.00175823	0.0410755	2.45329	279814	6.53096e+06	6.53695e+06	-87.5467	0.0000000E+000	0.0000000E+000	0.0000000E+000	87.5467	0.0000000E+000	0.0000000E+000	0.0000000E+000	-87.5467	0.0000000E+000	0.0000000E+000	0.0000000E+000	-2.45329	0.0000000E+000	0.0000000E+000	0.0000000E+000	2.45329	23.3404	87.5467	-5.21101e-07	-5.21774e-07	3.94193e-10	-5.22168e-07	0.218791	91605.5	69.2067	91674.7
0.316193	24.9083	1.59836	24.9595	-3.67162	33.8698	0.218626	-0.00238649	314916	1291.43	1	12	0.00487687	0.000195392	0	-7.5062e-05	0.000235747	1.32711e-06	-38.3868	0.00679204	0.00532385	0.00421763	-3.6805	24.9651	24.9136	1.60257	0.0399827	0.00256568	0.0400649	3.67162	1.29143e+06	2.01252e+07	2.01666e+07	-86.3284	0.0000000E+000	0.0000000E+000	0.0000000E+000	86.3284	0.0000000E+000	0.0000000E+000	0.0000000E+000	-86.3284	0.0000000E+000	0.0000000E+000	0.0000000E+000	-3.67162	0.0000000E+000	0.0000000E+000	0.0000000E+000	3.67162	15.5837	86.3284	-1.88842e-05	-5.21748e-07	-5.62607e-10	-5.21186e-07	0.21839	91609.8	98.7838	91511.1
0.0999041	25.9433	3.46532	26.1738	-7.60812	79.0764	0.218615	-0.00371883	459720	8058.39	1	12	0.00487348	0.000186197	0	-6.91643e-05	4.48344e-05	2.81427e-06	-28.795	0.0151145	0.0132456	0.0072803	-7.62007	26.1878	25.9566	3.4726	0.0378699	0.00505838	0.0382062	7.60812	8.05839e+06	6.03296e+07	6.08654e+07	-82.3919	0.0000000E+000	0.0000000E+000	0.0000000E+000	82.3919	0.0000000E+000	0.0000000E+000	0.0000000E+000	-82.3919	0.0000000E+000	0.0000000E+000	0.0000000E+000	-7.60812	0.0000000E+000	0.0000000E+000	0.0000000E+000	7.60812	7.48656	82.3919	2.38338e-05	-8.12993e-07	-1.66732e-10	-8.12826e-07	0.21857	58786	12.056	58774
0.0315922	28.2974	8.25547	29.477	-16.264	221.958	0.218607	-0.00136154	610237	47864.6	1	12	0.00487411	0.000165353	0	1.27529e-05	6.65197e-06	7.99148e-07	-14.2795	0.004833	0.00468368	0.00119207	-16.2637	29.4819	28.3021	8.25666	0.0325671	0.0095011	0.0339247	16.264	4.78646e+07	1.64066e+08	1.70906e+08	-73.736	0.0000000E+000	0.0000000E+000	0.0000000E+000	73.736	0.0000000E+000	0.0000000E+000	0.0000000E+000	-73.736	0.0000000E+000	0.0000000E+000	0.0000000E+000	-16.264	0.0000000E+000	0.0000000E+000	0.0000000E+000	16.264	3.42772	73.736	-1.53608e-05	-2.97642e-07	-9.05689e-12	-2.97632e-07	0.218601	160559	4.88564	160554
0.0100092	33.7373	19.8968	39.1674	-30.5303	673.18	0.218615	-0.00267475	799168	206232	1	12	0.00487598	0.000124491	0	-0.000992071	-0.000146078	2.42421e-06	13.8798	0.019473	0.0189045	-0.00467131	-30.5104	39.1814	33.7562	19.8922	0.0219917	0.0129698	0.0255314	30.5303	2.06232e+08	3.49689e+08	4.05973e+08	-59.4697	0.0000000E+000	0.0000000E+000	0.0000000E+000	59.4697	0.0000000E+000	0.0000000E+000	0.0000000E+000	-59.4697	0.0000000E+000	0.0000000E+000	0.0000000E+000	-30.5303	0.0000000E+000	0.0000000E+000	0.0000000E+000	30.5303	1.69561	59.4697	-0.000461271	-5.84739e-07	3.90721e-10	-5.8513e-07	0.218761	81732.8	54.6136	81787.4

File: 18951_R308_UA706_SOC00_C06.mpt
EC-Lab ASCII FILE
Nb header lines : 65

Potentio Electrochemical Impedance Spectroscopy

Run on channel : 6 (SN 65795)
Grouped channel(s) : 5, 6, 7, 8
User :
CE vs. WE compliance from -10 V to 10 V
Electrode connection : standard
Potential control : Ewe
Ewe ctrl range : min = -10.00 V, max = 10.00 V
Safety Limits :
	Do not start on E overload
Acquisition started on : 11/04/2025 15:53:30.548
Loaded Setting File :  C:\Users\Celltest\OneDrive - store-dot.com\Documents\EC-Lab\Data\@Biologic Test Protocols\anode half cell EIS SOC00.mps
Saved on :
	File : 18950_R308_UA706_SOC00_C06.mpr
	Directory : C:\Users\Celltest\OneDrive - store-dot.com\Documents\EC-Lab\Data\Charmaine\
	Host : 169.254.61.224
Device : VMP-3e (SN .003165)
Address : USB
EC-LAB for windows v11.62 (software)
Internet server v27.00 (firmware)
Command interpretor v12.03 (firmware)
Electrode material :
Initial state :
Electrolyte :
Comments :
Electrode surface area : 0.001 cm²
Characteristic mass : 0.001 g
Equivalent Weight : 0.000 g/eq.
Density : 0.000 g/cm3
Volume (V) : 0.001 cm³
Record Ece
Cycle Definition : Charge/Discharge alternance
Mode                Single sine
E (V)               0.0000
vs.                 Eoc
tE (h:m:s)          0:00:0.0000
record              0
dI                  0.000
unit dI             mA
dt (s)              0.000
fi                  100.000
unit fi             kHz
ff                  10.000
unit ff             mHz
Nd                  6
Points              per decade
spacing             Logarithmic
Va (mV)             5.0
pw                  0.10
Na                  2
corr                0
E range min (V)     -10.000
E range max (V)     10.000
I Range             Auto
Bandwidth           5
nc cycles           0
goto Ns'            0
nr cycles           0
inc. cycle          0

freq/Hz	Re(Z)/Ohm	-Im(Z)/Ohm	|Z|/Ohm	Phase(Z)/deg	time/s	<Ewe>/V	<I>/mA	Cs/µF	Cp/µF	cycle number	I Range	|Ewe|/V	|I|/A	Ns	(Q-Qo)/mA.h	<Ece>/V	|Ece|/V	Phase(Zce)/deg	|Zce|/Ohm	Re(Zce)/Ohm	-Im(Zce)/Ohm	Phase(Zwe-ce)/deg	|Zwe-ce|/Ohm	Re(Zwe-ce)/Ohm	-Im(Zwe-ce)/Ohm	Re(Y)/Ohm-1	Im(Y)/Ohm-1	|Y|/Ohm-1	Phase(Y)/deg	Re(C)/nF	Im(C)/nF	|C|/nF	Phase(C)/deg	Re(M)	Im(M)	|M|	Phase(M)/deg	Re(Permittivity)	Im(Permittivity)	|Permittivity|	Phase(Permittivity)/deg	Re(Resistivity)/Ohm.cm	Im(Resistivity)/Ohm.cm	|Resistivity|/Ohm.cm	Phase(Resistivity)/deg	Re(Conductivity)/mS/cm	Im(Conductivity)/mS/cm	|Conductivity|/mS/cm	Phase(Conductivity)/deg	Tan(Delta)	Loss Angle(Delta)/deg	dq/mA.h	Pwe/W	Pce/W	Pwe-ce/W	<Ewe-Ece>/V	Rwe/Ohm	Rce/Ohm	Rwe-ce/Ohm		Ewe-Ece/V
100004	2.11609	0.997928	2.33959	-25.2482	1.91054	0.21686	0.00457489	1.5948	0.290151	1	9	0.00466469	0.00199381	0	-4.20351e-06	0.000213539	3.05738e-05	83.7507	0.0153344	0.00166922	-0.0152432	-24.8923	2.33464	2.11775	0.982684	0.386593	0.182314	0.427425	25.2482	290.151	615.259	680.244	-64.7518	0.0000000E+000	0.0000000E+000	0.0000000E+000	64.7518	0.0000000E+000	0.0000000E+000	0.0000000E+000	-64.7518	0.0000000E+000	0.0000000E+000	0.0000000E+000	-25.2482	0.0000000E+000	0.0000000E+000	0.0000000E+000	25.2482	2.12048	64.7518	-4.20351e-06	9.92109e-07	9.76919e-10	9.91132e-07	0.216646	47402.1	46.6763	47355.4
31621.1	3.09886	1.43807	3.41629	-24.8943	3.30853	0.216846	0.00569238	3.49996	0.620175	1	9	0.00526399	0.00154085	0	2.44398e-06	0.000137147	9.60076e-06	61.7718	0.00623081	0.00294708	-0.00548978	-24.79	3.41665	3.10181	1.43258	0.265518	0.123217	0.292716	24.8943	620.175	1336.4	1473.29	-65.1057	0.0000000E+000	0.0000000E+000	0.0000000E+000	65.1057	0.0000000E+000	0.0000000E+000	0.0000000E+000	-65.1057	0.0000000E+000	0.0000000E+000	0.0000000E+000	-24.8943	0.0000000E+000	0.0000000E+000	0.0000000E+000	24.8943	2.15488	65.1057	4.01779e-06	1.23437e-06	7.80694e-10	1.23359e-06	0.216709	38094.1	24.0931	38070
10002.2	4.29662	1.63604	4.59756	-20.8455	4.36753	0.216886	-0.0221066	9.7259	1.23158	1	10	0.00459086	0.000998543	0	-6.08157e-07	2.25589e-05	7.20099e-06	-31.6651	0.0072115	0.00613793	0.0037857	-20.8624	4.60464	4.30275	1.63982	0.20327	0.0773997	0.217507	20.8455	1231.58	3234.42	3460.96	-69.1545	0.0000000E+000	0.0000000E+000	0.0000000E+000	69.1545	0.0000000E+000	0.0000000E+000	0.0000000E+000	-69.1545	0.0000000E+000	0.0000000E+000	0.0000000E+000	-20.8455	0.0000000E+000	0.0000000E+000	0.0000000E+000	20.8455	2.62623	69.1545	-1.02866e-06	-4.7946e-06	-4.98701e-10	-4.79411e-06	0.216863	9810.9	1.02046	9809.88
3163.08	5.40615	1.9142	5.73503	-19.4979	5.26665	0.216789	-0.0233252	26.2859	2.92836	1	10	0.00472011	0.000823031	0	-7.15233e-06	0.000251735	5.54208e-06	96.2294	0.00673374	-0.000730678	-0.00669398	-19.4373	5.73212	5.40542	1.90751	0.164368	0.058199	0.174367	19.4979	2928.36	8270.39	8773.52	-70.5021	0.0000000E+000	0.0000000E+000	0.0000000E+000	70.5021	0.0000000E+000	0.0000000E+000	0.0000000E+000	-70.5021	0.0000000E+000	0.0000000E+000	0.0000000E+000	-19.4979	0.0000000E+000	0.0000000E+000	0.0000000E+000	19.4979	2.82424	70.5021	-2.19109e-06	-5.05664e-06	-5.87177e-09	-5.05077e-06	0.216537	9294.2	10.7924	9283.41
1000.32	6.64555	2.83496	7.22497	-23.1029	6.61979	0.21684	-0.00590354	56.1222	8.64082	1	10	0.00462693	0.000640407	0	-8.47339e-06	-0.000111127	1.06706e-05	-6.39876	0.0166622	0.0165584	0.00185696	-23.065	7.24094	6.6621	2.83681	0.127309	0.0543093	0.138409	23.1029	8640.82	20255.3	22021.4	-66.8971	0.0000000E+000	0.0000000E+000	0.0000000E+000	66.8971	0.0000000E+000	0.0000000E+000	0.0000000E+000	-66.8971	0.0000000E+000	0.0000000E+000	0.0000000E+000	-23.1029	0.0000000E+000	0.0000000E+000	0.0000000E+000	23.1029	2.34414	66.8971	-1.13975e-06	-1.28013e-06	6.56045e-10	-1.28078e-06	0.216951	36730.5	18.8238	36749.4
316.316	8.85824	5.15471	10.2489	-30.1956	7.96906	0.216855	-0.00355954	97.6101	24.6917	1	10	0.00458116	0.000446991	0	-9.74343e-06	7.9853e-05	9.60624e-06	11.3789	0.0214909	0.0210685	-0.00424008	-30.116	10.265	8.87931	5.15047	0.0843325	0.0490741	0.0975717	30.1956	24691.7	42432.1	49093.4	-59.8044	0.0000000E+000	0.0000000E+000	0.0000000E+000	59.8044	0.0000000E+000	0.0000000E+000	0.0000000E+000	-59.8044	0.0000000E+000	0.0000000E+000	0.0000000E+000	-30.1956	0.0000000E+000	0.0000000E+000	0.0000000E+000	30.1956	1.71847	59.8044	-7.05894e-07	-7.71904e-07	-2.8424e-10	-7.71619e-07	0.216775	60922.2	22.4335	60899.7
100.032	14.6062	8.08836	16.6962	-28.976	9.31679	0.216849	-0.00288131	196.707	46.1643	1	10	0.00457061	0.000273752	0	-1.16402e-05	0.000251735	8.42939e-06	-2.4038	0.0307921	0.030765	0.00129148	-28.9288	16.7238	14.637	8.08965	0.0523965	0.0290152	0.0598938	28.976	46164.3	83364.9	95293.5	-61.024	0.0000000E+000	0.0000000E+000	0.0000000E+000	61.024	0.0000000E+000	0.0000000E+000	0.0000000E+000	-61.024	0.0000000E+000	0.0000000E+000	0.0000000E+000	-28.976	0.0000000E+000	0.0000000E+000	0.0000000E+000	28.976	1.80583	61.024	-4.60618e-07	-6.24811e-07	-7.25328e-10	-6.24086e-07	0.216598	75260.6	87.3683	75173.3
[...]
1.00006	27.0371	1.27835	27.0673	-2.707	19.374	0.216899	-0.00413996	124493	277.685	1	12	0.00456496	0.000168652	0	-3.34544e-05	0.000309029	3.32279e-06	66.3221	0.019702	0.00791222	-0.0180435	-2.66807	27.0743	27.045	1.2603	0.0369038	0.00174486	0.036945	2.707	277685	5.87304e+06	5.8796e+06	-87.293	0.0000000E+000	0.0000000E+000	0.0000000E+000	87.293	0.0000000E+000	0.0000000E+000	0.0000000E+000	-87.293	0.0000000E+000	0.0000000E+000	0.0000000E+000	-2.707	0.0000000E+000	0.0000000E+000	0.0000000E+000	2.707	21.15	87.293	-8.24335e-06	-8.97954e-07	-1.27937e-09	-8.96675e-07	0.21659	52391.6	74.6455	52317
0.316193	27.6592	1.81983	27.719	-3.76434	33.7189	0.216895	-0.00440323	276590	1192.19	1	12	0.00456587	0.00016472	0	-2.67807e-05	-7.29313e-05	1.6531e-06	5.68953	0.0100358	0.00998638	-0.000994931	-3.76093	27.7289	27.6692	1.81884	0.0359985	0.00236852	0.0360764	3.76434	1.19219e+06	1.81198e+07	1.81589e+07	-86.2357	0.0000000E+000	0.0000000E+000	0.0000000E+000	86.2357	0.0000000E+000	0.0000000E+000	0.0000000E+000	-86.2357	0.0000000E+000	0.0000000E+000	0.0000000E+000	-3.76434	0.0000000E+000	0.0000000E+000	0.0000000E+000	3.76434	15.1988	86.2357	6.91473e-06	-9.55039e-07	3.21133e-10	-9.5536e-07	0.216968	49258.1	16.5631	49274.7
0.0999041	28.6596	3.68261	28.8952	-7.32209	78.9277	0.21689	-0.00102399	432595	7026.53	1	12	0.00457171	0.000158217	0	-5.35833e-05	9.8951e-05	1.78158e-06	56.802	0.0112603	0.00616541	-0.00942246	-7.30201	28.9001	28.6657	3.67319	0.0343256	0.00441066	0.0346078	7.32209	7.02653e+06	5.46833e+07	5.51329e+07	-82.6779	0.0000000E+000	0.0000000E+000	0.0000000E+000	82.6779	0.0000000E+000	0.0000000E+000	0.0000000E+000	-82.6779	0.0000000E+000	0.0000000E+000	0.0000000E+000	-7.32209	0.0000000E+000	0.0000000E+000	0.0000000E+000	7.32209	7.78241	82.6779	-2.94527e-05	-2.22094e-07	-1.01325e-10	-2.21992e-07	0.216791	211808	96.6326	211711
0.0315922	30.7818	8.51357	31.9375	-15.4603	221.811	0.21688	-0.00276882	591737	42048.6	1	12	0.00456768	0.00014302	0	-0.000361901	0.000366324	1.45681e-06	-7.63798	0.0101861	0.0100957	0.00135387	-15.4578	31.9475	30.7919	8.51492	0.0301782	0.00834663	0.0313112	15.4603	4.20486e+07	1.52032e+08	1.57739e+08	-74.5397	0.0000000E+000	0.0000000E+000	0.0000000E+000	74.5397	0.0000000E+000	0.0000000E+000	0.0000000E+000	-74.5397	0.0000000E+000	0.0000000E+000	0.0000000E+000	-15.4603	0.0000000E+000	0.0000000E+000	0.0000000E+000	15.4603	3.61562	74.5397	-0.00012654	-6.00504e-07	-1.01429e-09	-5.99489e-07	0.216514	78329.5	132.303	78197.2
0.0100092	36.0587	20.9122	41.6839	-30.1115	673.032	0.216885	-0.00240618	760366	191374	1	12	0.00456594	0.000109537	0	-0.000141248	0.000194441	2.32834e-06	24.2571	0.0212562	0.0193795	-0.00873272	-30.0878	41.6963	36.0781	20.9035	0.0207526	0.0120354	0.0239901	30.1115	1.91374e+08	3.29986e+08	3.81464e+08	-59.8885	0.0000000E+000	0.0000000E+000	0.0000000E+000	59.8885	0.0000000E+000	0.0000000E+000	0.0000000E+000	-59.8885	0.0000000E+000	0.0000000E+000	0.0000000E+000	-30.1115	0.0000000E+000	0.0000000E+000	0.0000000E+000	30.1115	1.72429	59.8885	0.000187696	-5.21863e-07	-4.6786e-10	-5.21395e-07	0.21669	90136.6	80.8092	90055.8