Folder: EIS/txt (part 191)

File: 19501_R316_UA716_SOC00_C03.mpt
EC-Lab ASCII FILE
Nb header lines : 65

Potentio Electrochemical Impedance Spectroscopy

Run on channel : 3 (SN 65921)
User :
CE vs. WE compliance from -10 V to 10 V
Electrode connection : standard
Potential control : Ewe
Ewe ctrl range : min = -10.00 V, max = 10.00 V
Safety Limits :
	Do not start on E overload
Acquisition started on : 12/04/2025 15:14:48.653
Technique started on : 12/04/2025 15:14:50.380
Loaded Setting File :  C:\Users\Celltest\OneDrive - store-dot.com\Documents\EC-Lab\Data\@Biologic Test Protocols\anode half cell EIS SOC00.mps
Saved on :
	File : 19501_R316_UA716_SOC00_C03.mpr
	Directory : C:\Users\Celltest\OneDrive - store-dot.com\Documents\EC-Lab\Data\Charmaine\
	Host : 169.254.61.224
Device : VMP-3e (SN .003165)
Address : USB
EC-LAB for windows v11.62 (software)
Internet server v27.00 (firmware)
Command interpretor v12.03 (firmware)
Electrode material :
Initial state :
Electrolyte :
Comments :
Electrode surface area : 0.001 cm²
Characteristic mass : 0.001 g
Equivalent Weight : 0.000 g/eq.
Density : 0.000 g/cm3
Volume (V) : 0.001 cm³
Record Ece
Cycle Definition : Charge/Discharge alternance
Mode                Single sine
E (V)               0.0000
vs.                 Eoc
tE (h:m:s)          0:00:0.0000
record              0
dI                  0.000
unit dI             mA
dt (s)              0.000
fi                  100.000
unit fi             kHz
ff                  10.000
unit ff             mHz
Nd                  6
Points              per decade
spacing             Logarithmic
Va (mV)             5.0
pw                  0.10
Na                  2
corr                0
E range min (V)     -10.000
E range max (V)     10.000
I Range             Auto
Bandwidth           5
nc cycles           0
goto Ns'            0
nr cycles           0
inc. cycle          0

freq/Hz	Re(Z)/Ohm	-Im(Z)/Ohm	|Z|/Ohm	Phase(Z)/deg	time/s	<Ewe>/V	<I>/mA	Cs/µF	Cp/µF	cycle number	I Range	|Ewe|/V	|I|/A	Ns	(Q-Qo)/mA.h	<Ece>/V	|Ece|/V	Phase(Zce)/deg	|Zce|/Ohm	Re(Zce)/Ohm	-Im(Zce)/Ohm	Phase(Zwe-ce)/deg	|Zwe-ce|/Ohm	Re(Zwe-ce)/Ohm	-Im(Zwe-ce)/Ohm	Re(Y)/Ohm-1	Im(Y)/Ohm-1	|Y|/Ohm-1	Phase(Y)/deg	Re(C)/nF	Im(C)/nF	|C|/nF	Phase(C)/deg	Re(M)	Im(M)	|M|	Phase(M)/deg	Re(Permittivity)	Im(Permittivity)	|Permittivity|	Phase(Permittivity)/deg	Re(Resistivity)/Ohm.cm	Im(Resistivity)/Ohm.cm	|Resistivity|/Ohm.cm	Phase(Resistivity)/deg	Re(Conductivity)/mS/cm	Im(Conductivity)/mS/cm	|Conductivity|/mS/cm	Phase(Conductivity)/deg	Tan(Delta)	Loss Angle(Delta)/deg	dq/mA.h	Pwe/W	Pce/W	Pwe-ce/W	<Ewe-Ece>/V	Rwe/Ohm	Rce/Ohm	Rwe-ce/Ohm		Ewe-Ece/V
100004	1.38675	0.472739	1.46511	-18.8241	1.72656	0.218913	0.0201321	3.36653	0.350495	1	9	0.00456605	0.00311652	0	-3.18057e-06	-3.58827e-05	3.63849e-05	90.7945	0.0116749	-0.000161892	-0.0116737	-18.3929	1.46124	1.38659	0.461065	0.646034	0.220231	0.682541	18.8241	350.495	1028.16	1086.26	-71.1759	0.0000000E+000	0.0000000E+000	0.0000000E+000	71.1759	0.0000000E+000	0.0000000E+000	0.0000000E+000	-71.1759	0.0000000E+000	0.0000000E+000	0.0000000E+000	-18.8241	0.0000000E+000	0.0000000E+000	0.0000000E+000	18.8241	2.93344	71.1759	-3.18057e-06	4.40718e-06	-7.22395e-10	4.40791e-06	0.218949	10873.8	1.78236	10875.6
31621.1	1.79161	0.69662	1.92227	-21.2473	3.24752	0.218905	0.019349	7.22514	0.948874	1	9	0.00513067	0.00266906	0	-5.27055e-06	0.00011687	1.74602e-05	22.9353	0.00654171	0.00602456	-0.00254925	-21.1117	1.92697	1.79763	0.694071	0.484856	0.188524	0.520217	21.2473	948.874	2440.37	2618.35	-68.7527	0.0000000E+000	0.0000000E+000	0.0000000E+000	68.7527	0.0000000E+000	0.0000000E+000	0.0000000E+000	-68.7527	0.0000000E+000	0.0000000E+000	0.0000000E+000	-21.2473	0.0000000E+000	0.0000000E+000	0.0000000E+000	21.2473	2.57186	68.7527	2.87172e-06	4.23558e-06	2.26131e-09	4.23332e-06	0.218788	11313.5	6.04011	11307.5
10002.2	2.35689	1.00182	2.56097	-23.0283	4.27255	0.218914	0.012114	15.8831	2.43053	1	9	0.00486178	0.00189841	0	8.89075e-07	4.04936e-05	1.07697e-05	-130.379	0.00567302	-0.00367525	0.00432154	-23.1495	2.55929	2.35322	1.00614	0.35936	0.152749	0.390477	23.0283	2430.53	5718.12	6213.25	-66.9717	0.0000000E+000	0.0000000E+000	0.0000000E+000	66.9717	0.0000000E+000	0.0000000E+000	0.0000000E+000	-66.9717	0.0000000E+000	0.0000000E+000	0.0000000E+000	-23.0283	0.0000000E+000	0.0000000E+000	0.0000000E+000	23.0283	2.35262	66.9717	1.29784e-06	2.65192e-06	4.90539e-10	2.65143e-06	0.218873	18071.2	3.34271	18067.8
3163.08	3.14327	1.50368	3.48442	-25.5655	5.34864	0.218679	-0.02421	33.4623	6.23165	1	9	0.00496339	0.00142445	0	-1.64601e-06	-0.000112259	5.42438e-06	-3.38527	0.00380804	0.0038014	0.000224864	-25.5419	3.48795	3.14707	1.5039	0.258893	0.123849	0.286992	25.5655	6231.65	13026.6	14440.4	-64.4345	0.0000000E+000	0.0000000E+000	0.0000000E+000	64.4345	0.0000000E+000	0.0000000E+000	0.0000000E+000	-64.4345	0.0000000E+000	0.0000000E+000	0.0000000E+000	-25.5655	0.0000000E+000	0.0000000E+000	0.0000000E+000	25.5655	2.09039	64.4345	-2.15592e-06	-5.29421e-06	2.71779e-09	-5.29693e-06	0.218791	9032.6	4.63689	9037.24
1000.32	4.16557	2.43308	4.82409	-30.2889	6.94681	0.218854	-0.0174406	65.392	16.6344	1	10	0.00496637	0.00102949	0	-1.93661e-06	-3.58827e-05	8.39773e-06	-46.1847	0.00815715	0.00564749	0.005886	-30.3154	4.83194	4.17122	2.43897	0.178996	0.10455	0.207293	30.2889	16634.4	28479	32981.1	-59.7111	0.0000000E+000	0.0000000E+000	0.0000000E+000	59.7111	0.0000000E+000	0.0000000E+000	0.0000000E+000	-59.7111	0.0000000E+000	0.0000000E+000	0.0000000E+000	-30.2889	0.0000000E+000	0.0000000E+000	0.0000000E+000	30.2889	1.71206	59.7111	-2.4085e-06	-3.81694e-06	6.25815e-10	-3.81757e-06	0.21889	12548.5	2.05742	12550.6
316.316	5.76787	4.53964	7.34007	-38.2048	8.29708	0.218844	-0.0174965	110.835	42.3956	1	10	0.00489071	0.000666303	0	-7.23703e-06	5.95877e-05	1.13855e-05	-52.7588	0.0170875	0.0103409	0.0136033	-38.2382	7.35661	5.77821	4.55324	0.107057	0.0842599	0.136239	38.2048	42395.5	53865.9	68548.7	-51.7952	0.0000000E+000	0.0000000E+000	0.0000000E+000	51.7952	0.0000000E+000	0.0000000E+000	0.0000000E+000	-51.7952	0.0000000E+000	0.0000000E+000	0.0000000E+000	-38.2048	0.0000000E+000	0.0000000E+000	0.0000000E+000	38.2048	1.27056	51.7952	-1.56104e-06	-3.82902e-06	-1.04258e-09	-3.82798e-06	0.218785	12507.9	3.40568	12504.5
100.032	9.72326	9.39029	13.5174	-44.002	9.64485	0.218838	-0.0160162	169.435	81.7665	1	10	0.00485964	0.000359511	0	-1.34558e-05	-0.0003032	1.03899e-05	-120.243	0.0289002	-0.0145562	0.0249667	-44.1209	13.5243	9.70871	9.41526	0.0532142	0.0513919	0.0739789	44.002	81766.5	84665.9	117703	-45.998	0.0000000E+000	0.0000000E+000	0.0000000E+000	45.998	0.0000000E+000	0.0000000E+000	0.0000000E+000	-45.998	0.0000000E+000	0.0000000E+000	0.0000000E+000	-44.002	0.0000000E+000	0.0000000E+000	0.0000000E+000	44.002	1.03546	45.998	-1.62641e-06	-3.50496e-06	4.8561e-09	-3.50981e-06	0.219142	13663.6	18.9308	13682.5
[...]
1.00006	40.044	3.46456	40.1936	-4.94485	19.3809	0.218875	-0.00798582	45935	341.292	1	12	0.00485858	0.000120879	0	-3.41707e-05	7.86817e-05	2.12383e-06	-15.7833	0.0175698	0.0169074	0.00477899	-4.94956	40.2109	40.0609	3.46934	0.024787	0.00214454	0.0248796	4.94485	341292	3.94472e+06	3.95945e+06	-85.0551	0.0000000E+000	0.0000000E+000	0.0000000E+000	85.0551	0.0000000E+000	0.0000000E+000	0.0000000E+000	-85.0551	0.0000000E+000	0.0000000E+000	0.0000000E+000	-4.94485	0.0000000E+000	0.0000000E+000	0.0000000E+000	4.94485	11.5582	85.0551	-4.11396e-06	-1.7479e-06	-6.28338e-10	-1.74727e-06	0.218796	27408	9.85267	27398.1
0.316193	41.7201	2.91949	41.8221	-4.00292	33.7231	0.218888	-0.0064506	172409	840.16	1	12	0.00485993	0.000116205	0	-8.11554e-05	2.30547e-06	2.07715e-06	43.9822	0.0178749	0.012862	-0.0124129	-3.98473	41.8341	41.733	2.90708	0.0238524	0.00166915	0.0239108	4.00292	840160	1.20061e+07	1.20354e+07	-85.9971	0.0000000E+000	0.0000000E+000	0.0000000E+000	85.9971	0.0000000E+000	0.0000000E+000	0.0000000E+000	-85.9971	0.0000000E+000	0.0000000E+000	0.0000000E+000	-4.00292	0.0000000E+000	0.0000000E+000	0.0000000E+000	4.00292	14.2902	85.9971	-2.15717e-05	-1.41196e-06	-1.48717e-11	-1.41195e-06	0.218886	33933	0.357404	33932.7
0.0999041	43.3188	3.97219	43.5005	-5.23918	78.9308	0.218881	-0.00530112	401058	3344.09	1	12	0.00486126	0.000111752	0	-0.000127795	4.04936e-05	2.78737e-06	5.50992	0.0249425	0.0248273	-0.00239493	-5.23306	43.525	43.3436	3.96979	0.0228922	0.00209914	0.0229882	5.23918	3.34409e+06	3.6469e+07	3.6622e+07	-84.7608	0.0000000E+000	0.0000000E+000	0.0000000E+000	84.7608	0.0000000E+000	0.0000000E+000	0.0000000E+000	-84.7608	0.0000000E+000	0.0000000E+000	0.0000000E+000	-5.23918	0.0000000E+000	0.0000000E+000	0.0000000E+000	5.23918	10.9055	84.7608	-5.99821e-06	-1.16032e-06	-2.14661e-10	-1.1601e-06	0.218841	41289.6	7.63869	41282
0.0315922	45.9025	7.12064	46.4516	-8.81774	221.813	0.218888	-0.00150769	707491	16624.9	1	12	0.00486238	0.000104676	0	-0.000123209	-3.58827e-05	3.2328e-06	39.9422	0.0308838	0.0236784	-0.0198278	-8.7891	46.4719	45.9262	7.10081	0.0212734	0.00330003	0.0215278	8.81774	1.66249e+07	1.07171e+08	1.08453e+08	-81.1823	0.0000000E+000	0.0000000E+000	0.0000000E+000	81.1823	0.0000000E+000	0.0000000E+000	0.0000000E+000	-81.1823	0.0000000E+000	0.0000000E+000	0.0000000E+000	-8.81774	0.0000000E+000	0.0000000E+000	0.0000000E+000	8.81774	6.44641	81.1823	-1.18358e-05	-3.30017e-07	5.41001e-11	-3.30071e-07	0.218924	145181	23.7997	145205
0.0100092	50.7222	14.7537	52.8244	-16.2182	673.035	0.218884	-0.000180726	1.07776e+06	84072.3	1	12	0.00485945	9.19924e-05	0	-0.00065608	4.04936e-05	1.73111e-06	-39.3664	0.018818	0.0145483	0.0119358	-16.2262	52.8417	50.7368	14.7656	0.0181773	0.00528726	0.0189306	16.2182	8.40723e+07	2.89036e+08	3.01015e+08	-73.7818	0.0000000E+000	0.0000000E+000	0.0000000E+000	73.7818	0.0000000E+000	0.0000000E+000	0.0000000E+000	-73.7818	0.0000000E+000	0.0000000E+000	0.0000000E+000	-16.2182	0.0000000E+000	0.0000000E+000	0.0000000E+000	16.2182	3.43794	73.7818	-0.000267078	-3.9558e-08	-7.31825e-12	-3.95507e-08	0.218843	1.21114e+06	224.061	1.21091e+06

File: 19502_R316_UA716_SOC00_C04.mpt
EC-Lab ASCII FILE
Nb header lines : 65

Potentio Electrochemical Impedance Spectroscopy

Run on channel : 4 (SN 66756)
User :
CE vs. WE compliance from -10 V to 10 V
Electrode connection : standard
Potential control : Ewe
Ewe ctrl range : min = -10.00 V, max = 10.00 V
Safety Limits :
	Do not start on E overload
Acquisition started on : 12/04/2025 15:14:54.157
Technique started on : 12/04/2025 15:14:55.883
Loaded Setting File :  C:\Users\Celltest\OneDrive - store-dot.com\Documents\EC-Lab\Data\@Biologic Test Protocols\anode half cell EIS SOC00.mps
Saved on :
	File : 19502_R316_UA716_SOC00_C04.mpr
	Directory : C:\Users\Celltest\OneDrive - store-dot.com\Documents\EC-Lab\Data\Charmaine\
	Host : 169.254.61.224
Device : VMP-3e (SN .003165)
Address : USB
EC-LAB for windows v11.62 (software)
Internet server v27.00 (firmware)
Command interpretor v12.03 (firmware)
Electrode material :
Initial state :
Electrolyte :
Comments :
Electrode surface area : 0.001 cm²
Characteristic mass : 0.001 g
Equivalent Weight : 0.000 g/eq.
Density : 0.000 g/cm3
Volume (V) : 0.001 cm³
Record Ece
Cycle Definition : Charge/Discharge alternance
Mode                Single sine
E (V)               0.0000
vs.                 Eoc
tE (h:m:s)          0:00:0.0000
record              0
dI                  0.000
unit dI             mA
dt (s)              0.000
fi                  100.000
unit fi             kHz
ff                  10.000
unit ff             mHz
Nd                  6
Points              per decade
spacing             Logarithmic
Va (mV)             5.0
pw                  0.10
Na                  2
corr                0
E range min (V)     -10.000
E range max (V)     10.000
I Range             Auto
Bandwidth           5
nc cycles           0
goto Ns'            0
nr cycles           0
inc. cycle          0

freq/Hz	Re(Z)/Ohm	-Im(Z)/Ohm	|Z|/Ohm	Phase(Z)/deg	time/s	<Ewe>/V	<I>/mA	Cs/µF	Cp/µF	cycle number	I Range	|Ewe|/V	|I|/A	Ns	(Q-Qo)/mA.h	<Ece>/V	|Ece|/V	Phase(Zce)/deg	|Zce|/Ohm	Re(Zce)/Ohm	-Im(Zce)/Ohm	Phase(Zwe-ce)/deg	|Zwe-ce|/Ohm	Re(Zwe-ce)/Ohm	-Im(Zwe-ce)/Ohm	Re(Y)/Ohm-1	Im(Y)/Ohm-1	|Y|/Ohm-1	Phase(Y)/deg	Re(C)/nF	Im(C)/nF	|C|/nF	Phase(C)/deg	Re(M)	Im(M)	|M|	Phase(M)/deg	Re(Permittivity)	Im(Permittivity)	|Permittivity|	Phase(Permittivity)/deg	Re(Resistivity)/Ohm.cm	Im(Resistivity)/Ohm.cm	|Resistivity|/Ohm.cm	Phase(Resistivity)/deg	Re(Conductivity)/mS/cm	Im(Conductivity)/mS/cm	|Conductivity|/mS/cm	Phase(Conductivity)/deg	Tan(Delta)	Loss Angle(Delta)/deg	dq/mA.h	Pwe/W	Pce/W	Pwe-ce/W	<Ewe-Ece>/V	Rwe/Ohm	Rce/Ohm	Rwe-ce/Ohm		Ewe-Ece/V
100004	1.1283	0.482	1.22694	-23.1318	1.72555	0.218817	-0.0122188	3.30185	0.509571	1	9	0.00465402	0.00379319	0	7.05824e-06	-0.000196903	2.77945e-05	83.6721	0.00732747	0.000807624	-0.00728283	-22.8037	1.22484	1.12911	0.474717	0.74951	0.320185	0.815036	23.1318	509.571	1192.84	1297.12	-66.8682	0.0000000E+000	0.0000000E+000	0.0000000E+000	66.8682	0.0000000E+000	0.0000000E+000	0.0000000E+000	-66.8682	0.0000000E+000	0.0000000E+000	0.0000000E+000	-23.1318	0.0000000E+000	0.0000000E+000	0.0000000E+000	23.1318	2.34087	66.8682	7.05824e-06	-2.67368e-06	2.40591e-09	-2.67609e-06	0.219014	17908.3	16.1148	17924.4
31621.1	1.55526	0.700157	1.70559	-24.2367	3.24853	0.218819	-0.00927232	7.18865	1.2114	1	9	0.00508644	0.00298221	0	-4.7312e-06	-0.000311563	1.31014e-05	10.7838	0.00439317	0.00431559	-0.00082198	-24.1521	1.70919	1.55957	0.699335	0.534628	0.240683	0.586307	24.2367	1211.4	2690.88	2950.99	-65.7634	0.0000000E+000	0.0000000E+000	0.0000000E+000	65.7634	0.0000000E+000	0.0000000E+000	0.0000000E+000	-65.7634	0.0000000E+000	0.0000000E+000	0.0000000E+000	-24.2367	0.0000000E+000	0.0000000E+000	0.0000000E+000	24.2367	2.2213	65.7634	-1.19195e-06	-2.02896e-06	2.88891e-09	-2.03185e-06	0.21913	23599.1	33.6014	23632.7
10002.2	2.10289	0.971616	2.3165	-24.7987	4.27351	0.218817	-0.00889938	16.3768	2.88106	1	9	0.0045128	0.00194811	0	2.10935e-06	-0.000521772	1.02125e-05	-27.5062	0.00524224	0.00464966	0.0024211	-24.8049	2.32174	2.10754	0.974037	0.391878	0.181063	0.431685	24.7987	2881.06	6235.54	6868.95	-65.2012	0.0000000E+000	0.0000000E+000	0.0000000E+000	65.2012	0.0000000E+000	0.0000000E+000	0.0000000E+000	-65.2012	0.0000000E+000	0.0000000E+000	0.0000000E+000	-24.7987	0.0000000E+000	0.0000000E+000	0.0000000E+000	24.7987	2.16432	65.2012	-1.89485e-06	-1.94734e-06	4.64345e-09	-1.95198e-06	0.219339	24587.9	58.6302	24646.5
3163.08	2.83592	1.45159	3.18583	-27.106	5.29467	0.218591	-0.0590643	34.6631	7.19627	1	9	0.00460678	0.00144602	0	-6.55053e-06	-0.000388002	3.24821e-06	13.7871	0.00224631	0.00218159	-0.000535327	-27.0796	3.18753	2.8381	1.45105	0.279414	0.14302	0.31389	27.106	7196.27	14059.1	15793.8	-62.894	0.0000000E+000	0.0000000E+000	0.0000000E+000	62.894	0.0000000E+000	0.0000000E+000	0.0000000E+000	-62.894	0.0000000E+000	0.0000000E+000	0.0000000E+000	-27.106	0.0000000E+000	0.0000000E+000	0.0000000E+000	27.106	1.95367	62.894	-5.08937e-06	-1.29109e-05	2.29171e-08	-1.29338e-05	0.218979	3700.9	6.56916	3707.47
1000.32	3.85015	2.35596	4.51378	-31.463	6.89382	0.218737	-0.00208367	67.5325	18.3979	1	10	0.00460556	0.00102033	0	-3.19693e-06	-2.49133e-05	3.99838e-06	67.5525	0.0039187	0.0014963	-0.00362178	-31.4139	4.51317	3.85165	2.35234	0.188972	0.115634	0.221544	31.463	18397.9	30066.1	35248.5	-58.537	0.0000000E+000	0.0000000E+000	0.0000000E+000	58.537	0.0000000E+000	0.0000000E+000	0.0000000E+000	-58.537	0.0000000E+000	0.0000000E+000	0.0000000E+000	-31.463	0.0000000E+000	0.0000000E+000	0.0000000E+000	31.463	1.63422	58.537	-1.03927e-06	-4.55776e-07	5.19111e-11	-4.55828e-07	0.218762	104977	11.9565	104989
316.316	5.36158	4.45966	6.97389	-39.753	8.24408	0.218726	-0.00387044	112.823	46.1372	1	10	0.00452155	0.000648354	0	-3.75858e-06	0.000127966	5.30587e-06	48.4679	0.00818361	0.00542606	-0.00612612	-39.6858	6.97414	5.367	4.45353	0.110241	0.0916963	0.143392	39.753	46137.2	55468	72148	-50.247	0.0000000E+000	0.0000000E+000	0.0000000E+000	50.247	0.0000000E+000	0.0000000E+000	0.0000000E+000	-50.247	0.0000000E+000	0.0000000E+000	0.0000000E+000	-39.753	0.0000000E+000	0.0000000E+000	0.0000000E+000	39.753	1.20224	50.247	-2.03762e-07	-8.46564e-07	-4.95286e-10	-8.46069e-07	0.218598	56511.8	33.0625	56478.7
100.032	9.19136	9.3123	13.0843	-45.3745	9.80581	0.218734	-0.00372497	170.854	86.5434	1	10	0.0049892	0.000381311	0	-5.27091e-06	1.33066e-05	1.00366e-05	94.3119	0.0263213	-0.00197899	-0.0262468	-45.2998	13.0643	9.18939	9.28605	0.0536879	0.0543942	0.0764272	45.3745	86543.4	85419.5	121599	-44.6255	0.0000000E+000	0.0000000E+000	0.0000000E+000	44.6255	0.0000000E+000	0.0000000E+000	0.0000000E+000	-44.6255	0.0000000E+000	0.0000000E+000	0.0000000E+000	-45.3745	0.0000000E+000	0.0000000E+000	0.0000000E+000	45.3745	0.987014	44.6255	-6.25417e-08	-8.14777e-07	-4.95667e-11	-8.14728e-07	0.21872	58720.9	3.57227	58717.3
[...]
1.00006	39.9432	3.28384	40.0779	-4.69988	19.5447	0.218774	0.0118843	48463	325.36	1	12	0.00498757	0.000124447	0	2.06076e-05	7.06365e-05	2.00493e-06	-60.6284	0.0161107	0.00790183	0.0140398	-4.71895	40.087	39.9511	3.29788	0.0248675	0.00204443	0.0249514	4.69988	325360	3.95753e+06	3.97088e+06	-85.3001	0.0000000E+000	0.0000000E+000	0.0000000E+000	85.3001	0.0000000E+000	0.0000000E+000	0.0000000E+000	-85.3001	0.0000000E+000	0.0000000E+000	0.0000000E+000	-4.69988	0.0000000E+000	0.0000000E+000	0.0000000E+000	4.69988	12.1636	85.3001	3.05905e-06	2.59997e-06	8.39462e-10	2.59913e-06	0.218703	18408.7	5.9437	18402.8
0.316193	41.4219	2.84277	41.5193	-3.92603	33.8877	0.218778	0.00970197	177062	830.06	1	12	0.00498554	0.000120078	0	6.73576e-05	-0.000235123	2.18841e-06	63.2106	0.018225	0.00821422	-0.0162689	-3.90286	41.5264	41.4301	2.8265	0.0240287	0.00164908	0.0240852	3.92603	830059	1.20948e+07	1.21232e+07	-86.074	0.0000000E+000	0.0000000E+000	0.0000000E+000	86.074	0.0000000E+000	0.0000000E+000	0.0000000E+000	-86.074	0.0000000E+000	0.0000000E+000	0.0000000E+000	-3.92603	0.0000000E+000	0.0000000E+000	0.0000000E+000	3.92603	14.571	86.074	2.61514e-05	2.12258e-06	-2.28116e-09	2.12486e-06	0.219013	22549.8	24.2345	22574.1
0.0999041	43.1999	3.8273	43.3691	-5.06292	79.0949	0.218777	0.00844045	416240	3241.68	1	12	0.00498679	0.000114985	0	0.000222491	-5.80336e-06	5.07003e-07	-82.5705	0.00440929	0.000570146	0.00437228	-5.0686	43.37	43.2004	3.83167	0.0229679	0.00203485	0.0230579	5.06292	3.24167e+06	3.65897e+07	3.6733e+07	-84.9371	0.0000000E+000	0.0000000E+000	0.0000000E+000	84.9371	0.0000000E+000	0.0000000E+000	0.0000000E+000	-84.9371	0.0000000E+000	0.0000000E+000	0.0000000E+000	-5.06292	0.0000000E+000	0.0000000E+000	0.0000000E+000	5.06292	11.2873	84.9371	5.97531e-05	1.84657e-06	-4.8983e-11	1.84662e-06	0.218782	25920	0.687565	25920.7
0.0315922	45.6784	6.94444	46.2032	-8.64443	221.978	0.218776	0.00638132	725443	16388.2	1	12	0.00498751	0.000107947	0	0.000347173	-0.000216013	2.71473e-06	17.8335	0.0251487	0.0239403	-0.00770182	-8.63053	46.2258	45.7023	6.93674	0.0213976	0.00325306	0.0216435	8.64443	1.63882e+07	1.07797e+08	1.09035e+08	-81.3556	0.0000000E+000	0.0000000E+000	0.0000000E+000	81.3556	0.0000000E+000	0.0000000E+000	0.0000000E+000	-81.3556	0.0000000E+000	0.0000000E+000	0.0000000E+000	-8.64443	0.0000000E+000	0.0000000E+000	0.0000000E+000	8.64443	6.57769	81.3556	2.62845e-05	1.39608e-06	-1.37845e-09	1.39746e-06	0.218992	34283.8	33.8508	34317.7
0.0100092	51.0038	14.5024	53.0255	-15.8725	673.2	0.218789	0.00495592	1.09644e+06	82014.6	1	12	0.00499406	9.41821e-05	0	0.00105058	0.000147076	2.43689e-06	21.2892	0.0258742	0.0241085	-0.00939428	-15.8556	53.0462	51.0279	14.493	0.0181398	0.00515785	0.0188588	15.8725	8.20146e+07	2.88439e+08	2.99873e+08	-74.1275	0.0000000E+000	0.0000000E+000	0.0000000E+000	74.1275	0.0000000E+000	0.0000000E+000	0.0000000E+000	-74.1275	0.0000000E+000	0.0000000E+000	0.0000000E+000	-15.8725	0.0000000E+000	0.0000000E+000	0.0000000E+000	15.8725	3.51693	74.1275	0.000452509	1.0843e-06	7.28898e-10	1.08357e-06	0.218642	44147	29.6769	44117.4