Folder: EIS/txt (part 146)

File: 18952_R308_UA706_SOC00_C07.mpt
EC-Lab ASCII FILE
Nb header lines : 65

Potentio Electrochemical Impedance Spectroscopy

Run on channel : 7 (SN 66126)
Grouped channel(s) : 5, 6, 7, 8
User :
CE vs. WE compliance from -10 V to 10 V
Electrode connection : standard
Potential control : Ewe
Ewe ctrl range : min = -10.00 V, max = 10.00 V
Safety Limits :
	Do not start on E overload
Acquisition started on : 11/04/2025 15:53:30.548
Loaded Setting File :  C:\Users\Celltest\OneDrive - store-dot.com\Documents\EC-Lab\Data\@Biologic Test Protocols\anode half cell EIS SOC00.mps
Saved on :
	File : 18950_R308_UA706_SOC00_C07.mpr
	Directory : C:\Users\Celltest\OneDrive - store-dot.com\Documents\EC-Lab\Data\Charmaine\
	Host : 169.254.61.224
Device : VMP-3e (SN .003165)
Address : USB
EC-LAB for windows v11.62 (software)
Internet server v27.00 (firmware)
Command interpretor v12.03 (firmware)
Electrode material :
Initial state :
Electrolyte :
Comments :
Electrode surface area : 0.001 cm²
Characteristic mass : 0.001 g
Equivalent Weight : 0.000 g/eq.
Density : 0.000 g/cm3
Volume (V) : 0.001 cm³
Record Ece
Cycle Definition : Charge/Discharge alternance
Mode                Single sine
E (V)               0.0000
vs.                 Eoc
tE (h:m:s)          0:00:0.0000
record              0
dI                  0.000
unit dI             mA
dt (s)              0.000
fi                  100.000
unit fi             kHz
ff                  10.000
unit ff             mHz
Nd                  6
Points              per decade
spacing             Logarithmic
Va (mV)             5.0
pw                  0.10
Na                  2
corr                0
E range min (V)     -10.000
E range max (V)     10.000
I Range             Auto
Bandwidth           5
nc cycles           0
goto Ns'            0
nr cycles           0
inc. cycle          0

freq/Hz	Re(Z)/Ohm	-Im(Z)/Ohm	|Z|/Ohm	Phase(Z)/deg	time/s	<Ewe>/V	<I>/mA	Cs/µF	Cp/µF	cycle number	I Range	|Ewe|/V	|I|/A	Ns	(Q-Qo)/mA.h	<Ece>/V	|Ece|/V	Phase(Zce)/deg	|Zce|/Ohm	Re(Zce)/Ohm	-Im(Zce)/Ohm	Phase(Zwe-ce)/deg	|Zwe-ce|/Ohm	Re(Zwe-ce)/Ohm	-Im(Zwe-ce)/Ohm	Re(Y)/Ohm-1	Im(Y)/Ohm-1	|Y|/Ohm-1	Phase(Y)/deg	Re(C)/nF	Im(C)/nF	|C|/nF	Phase(C)/deg	Re(M)	Im(M)	|M|	Phase(M)/deg	Re(Permittivity)	Im(Permittivity)	|Permittivity|	Phase(Permittivity)/deg	Re(Resistivity)/Ohm.cm	Im(Resistivity)/Ohm.cm	|Resistivity|/Ohm.cm	Phase(Resistivity)/deg	Re(Conductivity)/mS/cm	Im(Conductivity)/mS/cm	|Conductivity|/mS/cm	Phase(Conductivity)/deg	Tan(Delta)	Loss Angle(Delta)/deg	dq/mA.h	Pwe/W	Pce/W	Pwe-ce/W	<Ewe-Ece>/V	Rwe/Ohm	Rce/Ohm	Rwe-ce/Ohm		Ewe-Ece/V
100004	1.80139	0.982524	2.05192	-28.6091	1.76555	0.212819	0.0551167	1.6198	0.371387	1	9	0.00472399	0.00230223	0	2.08985e-06	-0.000149242	4.51237e-05	83.6202	0.0196	0.00217792	-0.0194786	-28.1007	2.04459	1.80357	0.963045	0.427847	0.233358	0.487348	28.6091	371.387	680.914	775.61	-61.3909	0.0000000E+000	0.0000000E+000	0.0000000E+000	61.3909	0.0000000E+000	0.0000000E+000	0.0000000E+000	-61.3909	0.0000000E+000	0.0000000E+000	0.0000000E+000	-28.6091	0.0000000E+000	0.0000000E+000	0.0000000E+000	28.6091	1.83344	61.3909	2.08985e-06	1.17299e-05	-8.22575e-09	1.17381e-05	0.212969	3861.25	2.70775	3863.96
31621.1	2.82221	1.50461	3.19824	-28.0635	3.16452	0.212811	0.04618	3.34518	0.740364	1	9	0.00528643	0.00165292	0	1.59938e-06	-0.000187393	6.56859e-06	-100.58	0.00397393	-0.000729647	0.00390637	-28.1314	3.19943	2.82148	1.50852	0.27591	0.147097	0.312672	28.0635	740.364	1388.71	1573.74	-61.9365	0.0000000E+000	0.0000000E+000	0.0000000E+000	61.9365	0.0000000E+000	0.0000000E+000	0.0000000E+000	-61.9365	0.0000000E+000	0.0000000E+000	0.0000000E+000	-28.0635	0.0000000E+000	0.0000000E+000	0.0000000E+000	28.0635	1.87571	61.9365	6.86993e-06	9.8276e-06	-8.65383e-09	9.83625e-06	0.212998	4608.28	4.05789	4612.34
10002.2	4.11362	1.6913	4.44774	-22.3498	4.34753	0.21276	-0.013632	9.40813	1.36039	1	10	0.00453514	0.00101965	0	1.10761e-05	2.24364e-05	9.77547e-06	46.5159	0.00958709	0.00659739	-0.00695605	-22.2347	4.45121	4.12022	1.68434	0.207944	0.0854951	0.224833	22.3498	1360.39	3308.79	3577.54	-67.6502	0.0000000E+000	0.0000000E+000	0.0000000E+000	67.6502	0.0000000E+000	0.0000000E+000	0.0000000E+000	-67.6502	0.0000000E+000	0.0000000E+000	0.0000000E+000	-22.3498	0.0000000E+000	0.0000000E+000	0.0000000E+000	22.3498	2.43223	67.6502	2.55042e-07	-2.90034e-06	-3.05853e-10	-2.90003e-06	0.212737	15607.4	1.64586	15605.7
3163.08	5.26447	1.86249	5.58422	-19.483	5.42269	0.212656	-0.017768	27.0157	3.00523	1	10	0.00487377	0.000872776	0	6.39297e-06	-0.000111092	1.15469e-05	-59.4347	0.0132301	0.00672778	0.0113918	-19.57	5.59437	5.2712	1.87388	0.168822	0.0597266	0.179076	19.483	3005.23	8494.53	9010.46	-70.517	0.0000000E+000	0.0000000E+000	0.0000000E+000	70.517	0.0000000E+000	0.0000000E+000	0.0000000E+000	-70.517	0.0000000E+000	0.0000000E+000	0.0000000E+000	-19.483	0.0000000E+000	0.0000000E+000	0.0000000E+000	19.483	2.82658	70.517	-2.49907e-06	-3.77847e-06	1.97387e-09	-3.78044e-06	0.212767	11968.5	6.25235	11974.8
1000.32	6.48097	2.59443	6.98098	-21.817	6.77583	0.212684	-0.00439584	61.3252	8.47015	1	10	0.00478045	0.000684783	0	4.42136e-06	-1.57145e-05	6.68598e-06	31.4865	0.00976365	0.00832609	-0.00509953	-21.7528	6.98681	6.48929	2.58933	0.132987	0.0532366	0.143246	21.817	8470.15	21158.7	22791.1	-68.183	0.0000000E+000	0.0000000E+000	0.0000000E+000	68.183	0.0000000E+000	0.0000000E+000	0.0000000E+000	-68.183	0.0000000E+000	0.0000000E+000	0.0000000E+000	-21.817	0.0000000E+000	0.0000000E+000	0.0000000E+000	21.817	2.49803	68.183	-3.0853e-08	-9.34923e-07	6.90782e-11	-9.34992e-07	0.212699	48383	3.57485	48386.6
316.316	8.58592	4.42859	9.66076	-27.2845	8.12503	0.212689	-0.00572114	113.615	23.8749	1	10	0.00474504	0.000491166	0	2.41953e-06	-0.000301846	8.93328e-06	-10.6963	0.0181879	0.0178719	0.00337572	-27.2538	9.6782	8.60379	4.43196	0.0919949	0.0474507	0.103511	27.2845	23874.9	46287.4	52082	-62.7155	0.0000000E+000	0.0000000E+000	0.0000000E+000	62.7155	0.0000000E+000	0.0000000E+000	0.0000000E+000	-62.7155	0.0000000E+000	0.0000000E+000	0.0000000E+000	-27.2845	0.0000000E+000	0.0000000E+000	0.0000000E+000	27.2845	1.93875	62.7155	-2.90128e-07	-1.21682e-06	1.7269e-09	-1.21855e-06	0.212991	37176	52.7597	37228.8
100.032	13.4959	6.38065	14.9282	-25.3041	9.47183	0.212686	-0.00601524	249.354	45.5544	1	10	0.00474031	0.00031754	0	6.12401e-07	-0.000473525	7.829e-06	144.348	0.0246552	-0.020034	-0.0143706	-25.287	14.904	13.4759	6.36627	0.06056	0.0286318	0.0669872	25.3041	45554.4	96353.3	106579	-64.6959	0.0000000E+000	0.0000000E+000	0.0000000E+000	64.6959	0.0000000E+000	0.0000000E+000	0.0000000E+000	-64.6959	0.0000000E+000	0.0000000E+000	0.0000000E+000	-25.3041	0.0000000E+000	0.0000000E+000	0.0000000E+000	25.3041	2.11513	64.6959	-8.13e-07	-1.27936e-06	2.84837e-09	-1.28221e-06	0.21316	35357.9	78.7208	35436.6
[...]
1.00006	22.2251	0.950969	22.2454	-2.45008	19.5229	0.212749	-0.00363973	167350	305.827	1	12	0.00474167	0.000213152	0	-6.08101e-06	-0.000320921	3.88136e-06	93.3197	0.0182093	-0.00105446	-0.0181788	-2.40341	22.2436	22.2241	0.93279	0.0449119	0.00192169	0.044953	2.45008	305828	7.1475e+06	7.15404e+06	-87.5499	0.0000000E+000	0.0000000E+000	0.0000000E+000	87.5499	0.0000000E+000	0.0000000E+000	0.0000000E+000	-87.5499	0.0000000E+000	0.0000000E+000	0.0000000E+000	-2.45008	0.0000000E+000	0.0000000E+000	0.0000000E+000	2.45008	23.371	87.5499	-4.09924e-06	-7.74349e-07	1.16807e-09	-7.75517e-07	0.21307	58451.8	88.1717	58540
0.316193	22.7436	1.48798	22.7923	-3.7432	33.8661	0.212757	-0.00374458	338275	1441.76	1	12	0.00473494	0.000207744	0	-5.01081e-05	-9.20161e-05	1.73252e-06	44.0541	0.00833971	0.00599361	-0.00579891	-3.72767	22.7979	22.7496	1.48218	0.043781	0.00286433	0.0438746	3.7432	1.44175e+06	2.2037e+07	2.20841e+07	-86.2568	0.0000000E+000	0.0000000E+000	0.0000000E+000	86.2568	0.0000000E+000	0.0000000E+000	0.0000000E+000	-86.2568	0.0000000E+000	0.0000000E+000	0.0000000E+000	-3.7432	0.0000000E+000	0.0000000E+000	0.0000000E+000	3.7432	15.2849	86.2568	-1.68079e-05	-7.96686e-07	3.44561e-10	-7.97031e-07	0.212849	56817.5	24.5732	56842.1
0.0999041	23.603	3.21199	23.8206	-7.74943	79.0741	0.212751	-0.00332412	495978	9017.94	1	12	0.00473965	0.000198973	0	-1.32634e-05	0.000117813	2.18628e-06	-51.908	0.0109878	0.00677867	0.00864766	-7.76784	23.8284	23.6098	3.22064	0.0415972	0.00566071	0.0419806	7.74943	9.01794e+06	6.62675e+07	6.68783e+07	-82.2506	0.0000000E+000	0.0000000E+000	0.0000000E+000	82.2506	0.0000000E+000	0.0000000E+000	0.0000000E+000	-82.2506	0.0000000E+000	0.0000000E+000	0.0000000E+000	-7.74943	0.0000000E+000	0.0000000E+000	0.0000000E+000	7.74943	7.3484	82.2506	3.45908e-05	-7.07211e-07	-3.91627e-10	-7.0682e-07	0.212633	64002.2	35.442	63966.8
0.0315922	25.6235	7.83521	26.7947	-17.0027	221.959	0.212749	-0.00110721	642968	54978.7	1	12	0.00474063	0.000176924	0	-2.46525e-05	-0.000130167	2.59137e-06	18.083	0.0146468	0.0139233	-0.00454628	-16.9847	26.8066	25.6374	7.83066	0.0356896	0.0109133	0.0373209	17.0027	5.49787e+07	1.79797e+08	1.88015e+08	-72.9973	0.0000000E+000	0.0000000E+000	0.0000000E+000	72.9973	0.0000000E+000	0.0000000E+000	0.0000000E+000	-72.9973	0.0000000E+000	0.0000000E+000	0.0000000E+000	-17.0027	0.0000000E+000	0.0000000E+000	0.0000000E+000	17.0027	3.2703	72.9973	-7.93662e-05	-2.35558e-07	1.44122e-10	-2.35702e-07	0.212879	192148	117.563	192266
0.0100092	30.8927	18.9087	36.2202	-31.4699	673.183	0.212744	-0.00276865	840929	229184	1	12	0.0047387	0.00013083	0	-0.00100736	2.24364e-05	3.66038e-06	-17.7475	0.027978	0.0266465	0.00852837	-31.4594	36.2473	30.9194	18.9173	0.0235481	0.0144133	0.0276089	31.4699	2.29184e+08	3.74436e+08	4.39007e+08	-58.5301	0.0000000E+000	0.0000000E+000	0.0000000E+000	58.5301	0.0000000E+000	0.0000000E+000	0.0000000E+000	-58.5301	0.0000000E+000	0.0000000E+000	0.0000000E+000	-31.4699	0.0000000E+000	0.0000000E+000	0.0000000E+000	31.4699	1.63378	58.5301	-0.00035413	-5.89016e-07	-6.21186e-11	-5.88954e-07	0.212722	76840.4	8.10371	76832.3

File: 18953_R308_UA706_SOC00_C08.mpt
EC-Lab ASCII FILE
Nb header lines : 65

Potentio Electrochemical Impedance Spectroscopy

Run on channel : 8 (SN 65398)
Grouped channel(s) : 5, 6, 7, 8
User :
CE vs. WE compliance from -10 V to 10 V
Electrode connection : standard
Potential control : Ewe
Ewe ctrl range : min = -10.00 V, max = 10.00 V
Safety Limits :
	Do not start on E overload
Acquisition started on : 11/04/2025 15:53:30.548
Loaded Setting File :  C:\Users\Celltest\OneDrive - store-dot.com\Documents\EC-Lab\Data\@Biologic Test Protocols\anode half cell EIS SOC00.mps
Saved on :
	File : 18950_R308_UA706_SOC00_C08.mpr
	Directory : C:\Users\Celltest\OneDrive - store-dot.com\Documents\EC-Lab\Data\Charmaine\
	Host : 169.254.61.224
Device : VMP-3e (SN .003165)
Address : USB
EC-LAB for windows v11.62 (software)
Internet server v27.00 (firmware)
Command interpretor v12.03 (firmware)
Electrode material :
Initial state :
Electrolyte :
Comments :
Electrode surface area : 0.001 cm²
Characteristic mass : 0.001 g
Equivalent Weight : 0.000 g/eq.
Density : 0.000 g/cm3
Volume (V) : 0.001 cm³
Record Ece
Cycle Definition : Charge/Discharge alternance
Mode                Single sine
E (V)               0.0000
vs.                 Eoc
tE (h:m:s)          0:00:0.0000
record              0
dI                  0.000
unit dI             mA
dt (s)              0.000
fi                  100.000
unit fi             kHz
ff                  10.000
unit ff             mHz
Nd                  6
Points              per decade
spacing             Logarithmic
Va (mV)             5.0
pw                  0.10
Na                  2
corr                0
E range min (V)     -10.000
E range max (V)     10.000
I Range             Auto
Bandwidth           5
nc cycles           0
goto Ns'            0
nr cycles           0
inc. cycle          0

freq/Hz	Re(Z)/Ohm	-Im(Z)/Ohm	|Z|/Ohm	Phase(Z)/deg	time/s	<Ewe>/V	<I>/mA	Cs/µF	Cp/µF	cycle number	I Range	|Ewe|/V	|I|/A	Ns	(Q-Qo)/mA.h	<Ece>/V	|Ece|/V	Phase(Zce)/deg	|Zce|/Ohm	Re(Zce)/Ohm	-Im(Zce)/Ohm	Phase(Zwe-ce)/deg	|Zwe-ce|/Ohm	Re(Zwe-ce)/Ohm	-Im(Zwe-ce)/Ohm	Re(Y)/Ohm-1	Im(Y)/Ohm-1	|Y|/Ohm-1	Phase(Y)/deg	Re(C)/nF	Im(C)/nF	|C|/nF	Phase(C)/deg	Re(M)	Im(M)	|M|	Phase(M)/deg	Re(Permittivity)	Im(Permittivity)	|Permittivity|	Phase(Permittivity)/deg	Re(Resistivity)/Ohm.cm	Im(Resistivity)/Ohm.cm	|Resistivity|/Ohm.cm	Phase(Resistivity)/deg	Re(Conductivity)/mS/cm	Im(Conductivity)/mS/cm	|Conductivity|/mS/cm	Phase(Conductivity)/deg	Tan(Delta)	Loss Angle(Delta)/deg	dq/mA.h	Pwe/W	Pce/W	Pwe-ce/W	<Ewe-Ece>/V	Rwe/Ohm	Rce/Ohm	Rwe-ce/Ohm		Ewe-Ece/V
100004	1.68771	0.865141	1.89653	-27.1403	1.91056	0.199765	0.0186779	1.83957	0.3828	1	9	0.00475829	0.00250895	0	7.20234e-06	-4.92848e-05	3.9514e-05	68.7079	0.0157492	0.00571891	-0.0146742	-26.6666	1.89499	1.69343	0.850467	0.469221	0.240529	0.527279	27.1403	382.8	746.761	839.159	-62.8597	0.0000000E+000	0.0000000E+000	0.0000000E+000	62.8597	0.0000000E+000	0.0000000E+000	0.0000000E+000	-62.8597	0.0000000E+000	0.0000000E+000	0.0000000E+000	-27.1403	0.0000000E+000	0.0000000E+000	0.0000000E+000	27.1403	1.95079	62.8597	7.20234e-06	3.7312e-06	-9.20538e-10	3.73212e-06	0.199815	10695.3	2.63867	10697.9
31621.1	2.56372	1.30419	2.87638	-26.9629	3.43154	0.199755	0.0159249	3.85925	0.793397	1	9	0.00510999	0.00177654	0	1.17226e-05	-4.92848e-05	1.14664e-05	-6.07466	0.00645437	0.00641813	0.00068303	-26.9171	2.88241	2.57013	1.30487	0.309869	0.157633	0.34766	26.9629	793.397	1559.63	1749.83	-63.0371	0.0000000E+000	0.0000000E+000	0.0000000E+000	63.0371	0.0000000E+000	0.0000000E+000	0.0000000E+000	-63.0371	0.0000000E+000	0.0000000E+000	0.0000000E+000	-26.9629	0.0000000E+000	0.0000000E+000	0.0000000E+000	26.9629	1.96576	63.0371	4.64037e-06	3.18108e-06	-7.84857e-10	3.18187e-06	0.199804	12543.5	3.09482	12546.6
10002.2	3.63059	1.43306	3.90318	-21.54	4.58255	0.199746	0.00178808	11.1035	1.49675	1	9	0.00511257	0.00130985	0	9.88965e-06	-0.000182901	6.82542e-06	-39.9658	0.00521086	0.00399374	0.00334709	-21.5642	3.90813	3.63458	1.4364	0.238309	0.0940645	0.256201	21.54	1496.75	3791.95	4076.66	-68.46	0.0000000E+000	0.0000000E+000	0.0000000E+000	68.46	0.0000000E+000	0.0000000E+000	0.0000000E+000	-68.46	0.0000000E+000	0.0000000E+000	0.0000000E+000	-21.54	0.0000000E+000	0.0000000E+000	0.0000000E+000	21.54	2.53346	68.46	-1.72087e-06	3.57163e-07	-3.27043e-10	3.5749e-07	0.199929	111710	102.289	111812
3163.08	4.614	1.64224	4.89755	-19.592	5.63864	0.199652	-0.0174054	30.6388	3.44501	1	10	0.00522375	0.00106661	0	7.15482e-06	0.000122508	8.14797e-06	8.00315	0.00763916	0.00756476	-0.00106358	-19.5506	4.90432	4.62156	1.64118	0.192363	0.0684669	0.204184	19.592	3445.01	9679	10273.8	-70.408	0.0000000E+000	0.0000000E+000	0.0000000E+000	70.408	0.0000000E+000	0.0000000E+000	0.0000000E+000	-70.408	0.0000000E+000	0.0000000E+000	0.0000000E+000	-19.592	0.0000000E+000	0.0000000E+000	0.0000000E+000	19.592	2.80957	70.408	-1.4233e-06	-3.47504e-06	-2.1323e-09	-3.47291e-06	0.19953	11470.7	7.03847	11463.6
1000.32	5.65467	2.422	6.15153	-23.1864	6.99282	0.199669	-0.00663244	65.6911	10.1833	1	10	0.00507815	0.000825509	0	5.31861e-06	0.000561533	6.19227e-06	170.173	0.00750116	-0.0073911	-0.00128028	-23.2025	6.14424	5.64728	2.42072	0.149431	0.0640041	0.162561	23.1864	10183.3	23775	25864.1	-66.8136	0.0000000E+000	0.0000000E+000	0.0000000E+000	66.8136	0.0000000E+000	0.0000000E+000	0.0000000E+000	-66.8136	0.0000000E+000	0.0000000E+000	0.0000000E+000	-23.1864	0.0000000E+000	0.0000000E+000	0.0000000E+000	23.1864	2.33471	66.8136	-1.38157e-06	-1.32429e-06	-3.72433e-09	-1.32057e-06	0.199107	30104.9	84.6646	30020.2
316.316	7.64487	4.46142	8.85146	-30.2671	8.34202	0.199668	-0.00629393	112.778	28.6512	1	10	0.00501128	0.000566153	0	3.69365e-06	-3.01967e-05	8.08108e-06	-4.24434	0.0142737	0.0142345	0.00105639	-30.2267	8.86429	7.6591	4.46248	0.0975754	0.0569434	0.112976	30.2671	28651.2	49095.3	56844	-59.7329	0.0000000E+000	0.0000000E+000	0.0000000E+000	59.7329	0.0000000E+000	0.0000000E+000	0.0000000E+000	-59.7329	0.0000000E+000	0.0000000E+000	0.0000000E+000	-30.2671	0.0000000E+000	0.0000000E+000	0.0000000E+000	30.2671	1.71355	59.7329	-1.1484e-06	-1.2567e-06	1.90056e-10	-1.25689e-06	0.199698	31723.9	4.79776	31728.7
100.032	12.7186	6.60073	14.3294	-27.4285	9.68882	0.199673	-0.00607818	241.04	51.1466	1	10	0.00499932	0.000348885	0	1.22379e-06	-0.000316518	5.98193e-06	-26.7031	0.0171458	0.0153172	0.00770479	-27.4277	14.3466	12.7339	6.60843	0.0619415	0.0321466	0.0697865	27.4285	51146.5	98551.5	111033	-62.5715	0.0000000E+000	0.0000000E+000	0.0000000E+000	62.5715	0.0000000E+000	0.0000000E+000	0.0000000E+000	-62.5715	0.0000000E+000	0.0000000E+000	0.0000000E+000	-27.4285	0.0000000E+000	0.0000000E+000	0.0000000E+000	27.4285	1.92685	62.5715	-3.283e-07	-1.21365e-06	1.92385e-09	-1.21557e-06	0.19999	32850.8	52.0744	32902.9
[...]
1.00006	21.6751	0.981806	21.6973	-2.59352	19.7386	0.199743	-0.000431676	162094	331.898	1	12	0.00499111	0.000230033	0	-1.34851e-05	-1.11087e-05	4.21316e-06	10.5237	0.0183154	0.0180074	-0.00334515	-2.58255	21.7152	21.6931	0.978461	0.0460414	0.00208551	0.0460886	2.59352	331898	7.32724e+06	7.33476e+06	-87.4065	0.0000000E+000	0.0000000E+000	0.0000000E+000	87.4065	0.0000000E+000	0.0000000E+000	0.0000000E+000	-87.4065	0.0000000E+000	0.0000000E+000	0.0000000E+000	-2.59352	0.0000000E+000	0.0000000E+000	0.0000000E+000	2.59352	22.0768	87.4065	-2.40932e-06	-8.62241e-08	4.79536e-12	-8.62289e-08	0.199754	462714	25.7339	462740
0.316193	22.1685	1.50366	22.2194	-3.88034	34.0816	0.199735	-0.000792263	334749	1533.03	1	12	0.00499139	0.000224641	0	1.94887e-05	4.61555e-05	1.97344e-06	-5.49809	0.00878485	0.00874443	0.000841698	-3.88098	22.2282	22.1772	1.5045	0.0449025	0.00304567	0.0450057	3.88034	1.53303e+06	2.26015e+07	2.26535e+07	-86.1197	0.0000000E+000	0.0000000E+000	0.0000000E+000	86.1197	0.0000000E+000	0.0000000E+000	0.0000000E+000	-86.1197	0.0000000E+000	0.0000000E+000	0.0000000E+000	-3.88034	0.0000000E+000	0.0000000E+000	0.0000000E+000	3.88034	14.7431	86.1197	1.4384e-05	-1.58243e-07	-3.65673e-11	-1.58206e-07	0.199689	252107	58.2578	252049
0.0999041	22.9129	3.25133	23.1425	-8.0763	79.2896	0.199725	0.00040974	489978	9671.15	1	12	0.00499721	0.000215932	0	-4.11359e-05	-0.000182901	4.20402e-06	9.30119	0.0194692	0.0192132	-0.00314669	-8.06192	23.1611	22.9322	3.24818	0.042782	0.00607073	0.0432106	8.0763	9.67114e+06	6.81551e+07	6.88378e+07	-81.9237	0.0000000E+000	0.0000000E+000	0.0000000E+000	81.9237	0.0000000E+000	0.0000000E+000	0.0000000E+000	-81.9237	0.0000000E+000	0.0000000E+000	0.0000000E+000	-8.0763	0.0000000E+000	0.0000000E+000	0.0000000E+000	8.0763	7.04726	81.9237	-5.19348e-05	8.18352e-08	-7.4942e-11	8.19102e-08	0.199908	487442	446.383	487888
0.0315922	24.7889	7.86623	26.007	-17.6058	222.174	0.199718	-0.00272724	640432	58590.3	1	12	0.00499145	0.000191927	0	-0.000278114	-0.000144725	1.52767e-06	-13.9884	0.00795964	0.00772359	0.00192405	-17.6047	26.015	24.7966	7.86816	0.0366501	0.0116302	0.0384512	17.6058	5.85903e+07	1.84636e+08	1.93709e+08	-72.3942	0.0000000E+000	0.0000000E+000	0.0000000E+000	72.3942	0.0000000E+000	0.0000000E+000	0.0000000E+000	-72.3942	0.0000000E+000	0.0000000E+000	0.0000000E+000	-17.6058	0.0000000E+000	0.0000000E+000	0.0000000E+000	17.6058	3.1513	72.3942	-4.40545e-05	-5.44678e-07	3.94699e-10	-5.45072e-07	0.199863	73230.9	53.0666	73284
0.0100092	29.8762	18.8303	35.3152	-32.2223	673.397	0.199716	-0.00192021	844434	240079	1	12	0.00499237	0.000141366	0	0.000291068	0.00019886	2.07411e-06	-4.22083	0.0146719	0.0146322	0.00107987	-32.2111	35.3282	29.8908	18.8313	0.0239553	0.0150985	0.0283164	32.2223	2.40079e+08	3.80911e+08	4.50257e+08	-57.7777	0.0000000E+000	0.0000000E+000	0.0000000E+000	57.7777	0.0000000E+000	0.0000000E+000	0.0000000E+000	-57.7777	0.0000000E+000	0.0000000E+000	0.0000000E+000	-32.2223	0.0000000E+000	0.0000000E+000	0.0000000E+000	32.2223	1.5866	57.7777	0.000213782	-3.83498e-07	-3.81853e-10	-3.83116e-07	0.199518	104007	103.561	103904