Folder: EIS/txt (part 152)

File: 19008_R308_UA709_SOC00_C07.mpt
EC-Lab ASCII FILE
Nb header lines : 66

Potentio Electrochemical Impedance Spectroscopy

Run on channel : 7 (SN 66126)
Grouped channel(s) : 7, 8
User :
CE vs. WE compliance from -10 V to 10 V
Electrode connection : standard
Potential control : Ewe
Ewe ctrl range : min = -10.00 V, max = 10.00 V
Safety Limits :
	Do not start on E overload
Acquisition started on : 11/04/2025 16:09:03.172
Technique started on : 11/04/2025 16:09:04.899
Loaded Setting File :  C:\Users\Celltest\OneDrive - store-dot.com\Documents\EC-Lab\Data\@Biologic Test Protocols\anode half cell EIS SOC00.mps
Saved on :
	File : 19008_R308_UA709_SOC00_C07.mpr
	Directory : C:\Users\Celltest\OneDrive - store-dot.com\Documents\EC-Lab\Data\Charmaine\
	Host : 169.254.61.224
Device : VMP-3e (SN .003165)
Address : USB
EC-LAB for windows v11.62 (software)
Internet server v27.00 (firmware)
Command interpretor v12.03 (firmware)
Electrode material :
Initial state :
Electrolyte :
Comments :
Electrode surface area : 0.001 cm²
Characteristic mass : 0.001 g
Equivalent Weight : 0.000 g/eq.
Density : 0.000 g/cm3
Volume (V) : 0.001 cm³
Record Ece
Cycle Definition : Charge/Discharge alternance
Mode                Single sine
E (V)               0.0000
vs.                 Eoc
tE (h:m:s)          0:00:0.0000
record              0
dI                  0.000
unit dI             mA
dt (s)              0.000
fi                  100.000
unit fi             kHz
ff                  10.000
unit ff             mHz
Nd                  6
Points              per decade
spacing             Logarithmic
Va (mV)             5.0
pw                  0.10
Na                  2
corr                0
E range min (V)     -10.000
E range max (V)     10.000
I Range             Auto
Bandwidth           5
nc cycles           0
goto Ns'            0
nr cycles           0
inc. cycle          0

freq/Hz	Re(Z)/Ohm	-Im(Z)/Ohm	|Z|/Ohm	Phase(Z)/deg	time/s	<Ewe>/V	<I>/mA	Cs/µF	Cp/µF	cycle number	I Range	|Ewe|/V	|I|/A	Ns	(Q-Qo)/mA.h	<Ece>/V	|Ece|/V	Phase(Zce)/deg	|Zce|/Ohm	Re(Zce)/Ohm	-Im(Zce)/Ohm	Phase(Zwe-ce)/deg	|Zwe-ce|/Ohm	Re(Zwe-ce)/Ohm	-Im(Zwe-ce)/Ohm	Re(Y)/Ohm-1	Im(Y)/Ohm-1	|Y|/Ohm-1	Phase(Y)/deg	Re(C)/nF	Im(C)/nF	|C|/nF	Phase(C)/deg	Re(M)	Im(M)	|M|	Phase(M)/deg	Re(Permittivity)	Im(Permittivity)	|Permittivity|	Phase(Permittivity)/deg	Re(Resistivity)/Ohm.cm	Im(Resistivity)/Ohm.cm	|Resistivity|/Ohm.cm	Phase(Resistivity)/deg	Re(Conductivity)/mS/cm	Im(Conductivity)/mS/cm	|Conductivity|/mS/cm	Phase(Conductivity)/deg	Tan(Delta)	Loss Angle(Delta)/deg	dq/mA.h	Pwe/W	Pce/W	Pwe-ce/W	<Ewe-Ece>/V	Rwe/Ohm	Rce/Ohm	Rwe-ce/Ohm		Ewe-Ece/V
100004	2.24823	0.943762	2.43828	-22.7717	1.72654	0.241651	0.0215297	1.68633	0.252638	1	9	0.00453374	0.0018594	0	2.46373e-06	-5.38653e-05	3.91912e-05	59.4699	0.0210773	0.0107071	-0.0181552	-22.2816	2.44121	2.25893	0.925607	0.378158	0.158743	0.410125	22.7717	252.638	601.834	652.71	-67.2283	0.0000000E+000	0.0000000E+000	0.0000000E+000	67.2283	0.0000000E+000	0.0000000E+000	0.0000000E+000	-67.2283	0.0000000E+000	0.0000000E+000	0.0000000E+000	-22.7717	0.0000000E+000	0.0000000E+000	0.0000000E+000	22.7717	2.3822	67.2283	2.46373e-06	5.20269e-06	-1.15971e-09	5.20385e-06	0.241705	11224.1	2.5019	11226.6
31621.1	3.1626	1.26484	3.40615	-21.7982	3.00152	0.241692	0.0539251	3.97931	0.548719	1	9	0.00532583	0.00156359	0	1.73428e-05	-0.000301846	1.29803e-05	36.8136	0.00830159	0.00664616	-0.00497443	-21.6792	3.41048	3.16925	1.25986	0.272594	0.10902	0.293587	21.7982	548.719	1372.02	1477.68	-68.2018	0.0000000E+000	0.0000000E+000	0.0000000E+000	68.2018	0.0000000E+000	0.0000000E+000	0.0000000E+000	-68.2018	0.0000000E+000	0.0000000E+000	0.0000000E+000	-21.7982	0.0000000E+000	0.0000000E+000	0.0000000E+000	21.7982	2.5004	68.2018	5.40651e-06	1.30333e-05	-1.62771e-08	1.30496e-05	0.241994	4482	5.5975	4487.6
10002.2	4.18699	1.34084	4.39645	-17.7572	4.43157	0.241688	-0.0071246	11.8671	1.10382	1	10	0.0048984	0.00111417	0	3.28391e-05	-0.000187393	5.27732e-06	36.8152	0.00473654	0.00379194	-0.0028383	-17.7069	4.39919	4.19078	1.338	0.21662	0.0693704	0.227456	17.7572	1103.82	3446.84	3619.28	-72.2428	0.0000000E+000	0.0000000E+000	0.0000000E+000	72.2428	0.0000000E+000	0.0000000E+000	0.0000000E+000	-72.2428	0.0000000E+000	0.0000000E+000	0.0000000E+000	-17.7572	0.0000000E+000	0.0000000E+000	0.0000000E+000	17.7572	3.12266	72.2428	1.23444e-06	-1.72193e-06	1.3351e-09	-1.72326e-06	0.241875	33923	26.3023	33949.3
3163.08	5.0925	1.47592	5.30207	-16.1628	5.45461	0.24164	-0.0119158	34.0915	2.6417	1	10	0.00512802	0.000967174	0	2.941e-05	-7.29407e-05	4.64412e-06	-46.9095	0.00480174	0.00328032	0.00350659	-16.1893	5.30619	5.09578	1.47943	0.181151	0.0525017	0.188606	16.1628	2641.7	9114.88	9489.97	-73.8372	0.0000000E+000	0.0000000E+000	0.0000000E+000	73.8372	0.0000000E+000	0.0000000E+000	0.0000000E+000	-73.8372	0.0000000E+000	0.0000000E+000	0.0000000E+000	-16.1628	0.0000000E+000	0.0000000E+000	0.0000000E+000	16.1628	3.45038	73.8372	-1.63793e-06	-2.87933e-06	8.69147e-10	-2.8802e-06	0.241713	20279	6.12135	20285.1
1000.32	6.08208	2.05342	6.41936	-18.6556	6.80882	0.241632	-0.00684913	77.4824	7.92821	1	10	0.0050599	0.000788224	0	2.6414e-05	-0.000473525	7.22164e-06	-38.708	0.00916191	0.00714943	0.00572942	-18.6836	6.42797	6.08923	2.05915	0.147594	0.0498303	0.155779	18.6556	7928.21	23482.8	24785	-71.3444	0.0000000E+000	0.0000000E+000	0.0000000E+000	71.3444	0.0000000E+000	0.0000000E+000	0.0000000E+000	-71.3444	0.0000000E+000	0.0000000E+000	0.0000000E+000	-18.6556	0.0000000E+000	0.0000000E+000	0.0000000E+000	18.6556	2.96193	71.3444	-1.27184e-07	-1.65497e-06	3.24323e-09	-1.65821e-06	0.242105	35279.2	69.1365	35348.3
316.316	7.75229	3.42174	8.47386	-23.8159	8.15909	0.241638	-0.00740755	147.046	23.9764	1	10	0.00500035	0.000590091	0	2.33665e-05	-5.38653e-05	1.12933e-05	-40.7134	0.0191382	0.0145064	0.0124834	-23.8535	8.49218	7.7668	3.43423	0.107961	0.0476524	0.11801	23.8159	23976.4	54320.8	59376.9	-66.1841	0.0000000E+000	0.0000000E+000	0.0000000E+000	66.1841	0.0000000E+000	0.0000000E+000	0.0000000E+000	-66.1841	0.0000000E+000	0.0000000E+000	0.0000000E+000	-23.8159	0.0000000E+000	0.0000000E+000	0.0000000E+000	23.8159	2.2656	66.1841	-1.11236e-06	-1.78994e-06	3.9901e-10	-1.79034e-06	0.241691	32620.5	7.27168	32627.7
100.032	11.3803	4.9193	12.398	-23.3771	9.50584	0.241627	-0.00697944	323.428	50.9191	1	10	0.0049845	0.00040204	0	2.1266e-05	-7.29407e-05	7.49872e-06	32.4707	0.0186516	0.0157358	-0.0100135	-23.3059	12.4085	11.396	4.90929	0.0740371	0.0320037	0.0806581	23.3771	50919.1	117796	128330	-66.6229	0.0000000E+000	0.0000000E+000	0.0000000E+000	66.6229	0.0000000E+000	0.0000000E+000	0.0000000E+000	-66.6229	0.0000000E+000	0.0000000E+000	0.0000000E+000	-23.3771	0.0000000E+000	0.0000000E+000	0.0000000E+000	23.3771	2.3134	66.6229	-9.83939e-07	-1.68642e-06	5.09085e-10	-1.68693e-06	0.2417	34619.9	10.4508	34630.3
[...]
1.00006	19.2679	0.925456	19.2901	-2.74986	19.5539	0.241676	-0.00345018	171964	395.803	1	12	0.00497544	0.000257927	0	-1.28629e-06	-0.000301846	2.13118e-06	-9.72799	0.00826272	0.00814391	0.00139616	-2.75284	19.2983	19.276	0.926852	0.0517804	0.00248706	0.0518401	2.74986	395803	8.24058e+06	8.25008e+06	-87.2501	0.0000000E+000	0.0000000E+000	0.0000000E+000	87.2501	0.0000000E+000	0.0000000E+000	0.0000000E+000	-87.2501	0.0000000E+000	0.0000000E+000	0.0000000E+000	-2.74986	0.0000000E+000	0.0000000E+000	0.0000000E+000	2.74986	20.8199	87.2501	-1.17835e-05	-8.33826e-07	1.04142e-09	-8.34868e-07	0.241978	70047.5	87.487	70135
0.316193	19.6619	1.39098	19.7111	-4.04664	33.8969	0.241672	-0.00529752	361865	1802.05	1	12	0.0049779	0.000252543	0	-1.29358e-05	-0.000206469	2.49912e-06	-24.4921	0.0098958	0.00900536	0.00410248	-4.05668	19.7204	19.6709	1.39508	0.0506064	0.00358014	0.0507329	4.04664	1.80205e+06	2.54726e+07	2.55363e+07	-85.9534	0.0000000E+000	0.0000000E+000	0.0000000E+000	85.9534	0.0000000E+000	0.0000000E+000	0.0000000E+000	-85.9534	0.0000000E+000	0.0000000E+000	0.0000000E+000	-4.04664	0.0000000E+000	0.0000000E+000	0.0000000E+000	4.04664	14.1353	85.9534	5.41025e-06	-1.28026e-06	1.09377e-09	-1.28136e-06	0.241879	45619.9	38.9746	45658.9
0.0999041	20.4184	3.00542	20.6384	-8.37334	79.1049	0.241686	-0.000596804	530069	11240.6	1	12	0.0049829	0.000241439	0	5.57028e-05	-0.000225544	3.11808e-06	3.17367	0.0129146	0.0128948	-0.000714986	-8.36616	20.651	20.4313	3.0047	0.0479369	0.00705591	0.0484534	8.37334	1.12406e+07	7.63672e+07	7.719e+07	-81.6267	0.0000000E+000	0.0000000E+000	0.0000000E+000	81.6267	0.0000000E+000	0.0000000E+000	0.0000000E+000	-81.6267	0.0000000E+000	0.0000000E+000	0.0000000E+000	-8.37334	0.0000000E+000	0.0000000E+000	0.0000000E+000	8.37334	6.79386	81.6267	1.84259e-05	-1.44239e-07	1.34606e-10	-1.44374e-07	0.241911	404966	377.92	405344
0.0315922	21.9975	7.201	23.1461	-18.1261	221.989	0.241686	-0.00196709	699596	67713.6	1	12	0.00497652	0.000215004	0	-0.000328248	6.05872e-05	2.18636e-06	11.8019	0.0101689	0.00995393	-0.00207983	-18.1136	23.155	22.0074	7.19892	0.0410597	0.0134411	0.0432037	18.1261	6.77136e+07	2.0685e+08	2.17651e+08	-71.8739	0.0000000E+000	0.0000000E+000	0.0000000E+000	71.8739	0.0000000E+000	0.0000000E+000	0.0000000E+000	-71.8739	0.0000000E+000	0.0000000E+000	0.0000000E+000	-18.1261	0.0000000E+000	0.0000000E+000	0.0000000E+000	18.1261	3.05478	71.8739	-0.000233533	-4.75417e-07	-1.1918e-10	-4.75297e-07	0.241625	122865	30.8005	122834
0.0100092	26.5459	17.9268	32.0321	-34.0317	673.213	0.241679	-0.00314683	886992	277814	1	12	0.00497701	0.000155376	0	-0.000519072	-0.00028277	2.19794e-06	1.6564	0.014146	0.01414	-0.000408899	-34.0169	32.0436	26.56	17.9264	0.0258718	0.0174716	0.0312187	34.0317	2.77814e+08	4.11386e+08	4.96406e+08	-55.9683	0.0000000E+000	0.0000000E+000	0.0000000E+000	55.9683	0.0000000E+000	0.0000000E+000	0.0000000E+000	-55.9683	0.0000000E+000	0.0000000E+000	0.0000000E+000	-34.0317	0.0000000E+000	0.0000000E+000	0.0000000E+000	34.0317	1.48079	55.9683	0.000166127	-7.60523e-07	8.8983e-10	-7.61412e-07	0.241962	76800.8	89.8588	76890.7

File: 19009_R308_UA709_SOC00_C08.mpt
EC-Lab ASCII FILE
Nb header lines : 65

Potentio Electrochemical Impedance Spectroscopy

Run on channel : 8 (SN 65398)
Grouped channel(s) : 7, 8
User :
CE vs. WE compliance from -10 V to 10 V
Electrode connection : standard
Potential control : Ewe
Ewe ctrl range : min = -10.00 V, max = 10.00 V
Safety Limits :
	Do not start on E overload
Acquisition started on : 11/04/2025 16:09:03.172
Loaded Setting File :  C:\Users\Celltest\OneDrive - store-dot.com\Documents\EC-Lab\Data\@Biologic Test Protocols\anode half cell EIS SOC00.mps
Saved on :
	File : 19008_R308_UA709_SOC00_C08.mpr
	Directory : C:\Users\Celltest\OneDrive - store-dot.com\Documents\EC-Lab\Data\Charmaine\
	Host : 169.254.61.224
Device : VMP-3e (SN .003165)
Address : USB
EC-LAB for windows v11.62 (software)
Internet server v27.00 (firmware)
Command interpretor v12.03 (firmware)
Electrode material :
Initial state :
Electrolyte :
Comments :
Electrode surface area : 0.001 cm²
Characteristic mass : 0.001 g
Equivalent Weight : 0.000 g/eq.
Density : 0.000 g/cm3
Volume (V) : 0.001 cm³
Record Ece
Cycle Definition : Charge/Discharge alternance
Mode                Single sine
E (V)               0.0000
vs.                 Eoc
tE (h:m:s)          0:00:0.0000
record              0
dI                  0.000
unit dI             mA
dt (s)              0.000
fi                  100.000
unit fi             kHz
ff                  10.000
unit ff             mHz
Nd                  6
Points              per decade
spacing             Logarithmic
Va (mV)             5.0
pw                  0.10
Na                  2
corr                0
E range min (V)     -10.000
E range max (V)     10.000
I Range             Auto
Bandwidth           5
nc cycles           0
goto Ns'            0
nr cycles           0
inc. cycle          0

freq/Hz	Re(Z)/Ohm	-Im(Z)/Ohm	|Z|/Ohm	Phase(Z)/deg	time/s	<Ewe>/V	<I>/mA	Cs/µF	Cp/µF	cycle number	I Range	|Ewe|/V	|I|/A	Ns	(Q-Qo)/mA.h	<Ece>/V	|Ece|/V	Phase(Zce)/deg	|Zce|/Ohm	Re(Zce)/Ohm	-Im(Zce)/Ohm	Phase(Zwe-ce)/deg	|Zwe-ce|/Ohm	Re(Zwe-ce)/Ohm	-Im(Zwe-ce)/Ohm	Re(Y)/Ohm-1	Im(Y)/Ohm-1	|Y|/Ohm-1	Phase(Y)/deg	Re(C)/nF	Im(C)/nF	|C|/nF	Phase(C)/deg	Re(M)	Im(M)	|M|	Phase(M)/deg	Re(Permittivity)	Im(Permittivity)	|Permittivity|	Phase(Permittivity)/deg	Re(Resistivity)/Ohm.cm	Im(Resistivity)/Ohm.cm	|Resistivity|/Ohm.cm	Phase(Resistivity)/deg	Re(Conductivity)/mS/cm	Im(Conductivity)/mS/cm	|Conductivity|/mS/cm	Phase(Conductivity)/deg	Tan(Delta)	Loss Angle(Delta)/deg	dq/mA.h	Pwe/W	Pce/W	Pwe-ce/W	<Ewe-Ece>/V	Rwe/Ohm	Rce/Ohm	Rwe-ce/Ohm		Ewe-Ece/V
100004	2.17156	0.867015	2.33824	-21.7648	1.86952	0.242273	0.0292061	1.8356	0.252378	1	9	0.00492496	0.00210626	0	-1.79695e-06	-0.000373782	4.89115e-05	53.7746	0.023222	0.0137233	-0.0187331	-21.2152	2.34415	2.18528	0.848282	0.397184	0.15858	0.427671	21.7648	252.378	632.115	680.635	-68.2352	0.0000000E+000	0.0000000E+000	0.0000000E+000	68.2352	0.0000000E+000	0.0000000E+000	0.0000000E+000	-68.2352	0.0000000E+000	0.0000000E+000	0.0000000E+000	-21.7648	0.0000000E+000	0.0000000E+000	0.0000000E+000	21.7648	2.50464	68.2352	-1.79695e-06	7.07585e-06	-1.09167e-08	7.08676e-06	0.242646	8295.26	12.7981	8308.06
31621.1	2.97053	1.10591	3.16971	-20.42	3.02055	0.242213	0.0106422	4.55117	0.554017	1	9	0.0053637	0.00169217	0	4.36949e-06	0.000313388	1.87387e-05	37.3051	0.0110738	0.00880829	-0.00671136	-20.2511	3.17564	2.97934	1.0992	0.295661	0.110073	0.315486	20.42	554.017	1488.12	1587.9	-69.58	0.0000000E+000	0.0000000E+000	0.0000000E+000	69.58	0.0000000E+000	0.0000000E+000	0.0000000E+000	-69.58	0.0000000E+000	0.0000000E+000	0.0000000E+000	-20.42	0.0000000E+000	0.0000000E+000	0.0000000E+000	20.42	2.68605	69.58	-1.41381e-07	2.57768e-06	3.33515e-09	2.57435e-06	0.2419	22759.6	29.4476	22730.2
10002.2	3.7989	1.2178	3.98932	-17.7741	4.16952	0.242231	0.0105678	13.0661	1.21759	1	9	0.00523847	0.00131312	0	1.58407e-05	0.000217948	3.66519e-06	-39.1492	0.00279119	0.00216458	0.0017622	-17.7887	3.99192	3.80106	1.21956	0.238704	0.0765206	0.250669	17.7741	1217.59	3798.25	3988.64	-72.2259	0.0000000E+000	0.0000000E+000	0.0000000E+000	72.2259	0.0000000E+000	0.0000000E+000	0.0000000E+000	-72.2259	0.0000000E+000	0.0000000E+000	0.0000000E+000	-17.7741	0.0000000E+000	0.0000000E+000	0.0000000E+000	17.7741	3.11947	72.2259	8.35842e-07	2.55985e-06	2.30323e-09	2.55754e-06	0.242013	22921.6	20.6238	22900.9
3163.08	4.6607	1.4333	4.87611	-17.0941	5.77462	0.242201	-0.0152702	35.1054	3.03318	1	10	0.00509685	0.00104527	0	1.39124e-05	-0.000316518	9.09273e-06	-65.8598	0.00869894	0.00355761	0.00793819	-17.1709	4.88185	4.66426	1.44124	0.196021	0.0602821	0.205081	17.0941	3033.18	9863.11	10319	-72.9059	0.0000000E+000	0.0000000E+000	0.0000000E+000	72.9059	0.0000000E+000	0.0000000E+000	0.0000000E+000	-72.9059	0.0000000E+000	0.0000000E+000	0.0000000E+000	-17.0941	0.0000000E+000	0.0000000E+000	0.0000000E+000	17.0941	3.25174	72.9059	-2.69534e-06	-3.69845e-06	4.83328e-09	-3.70328e-06	0.242517	15861	20.7278	15881.7
1000.32	5.65949	2.00852	6.00533	-19.5395	7.12777	0.242219	-0.0105719	79.2145	8.86102	1	10	0.00530166	0.000882826	0	9.2042e-06	-8.74609e-05	9.04246e-06	38.7374	0.0102426	0.00798948	-0.00640935	-19.4564	6.01072	5.66748	2.00211	0.156929	0.0556932	0.166519	19.5395	8861.02	24968	26493.8	-70.4605	0.0000000E+000	0.0000000E+000	0.0000000E+000	70.4605	0.0000000E+000	0.0000000E+000	0.0000000E+000	-70.4605	0.0000000E+000	0.0000000E+000	0.0000000E+000	-19.5395	0.0000000E+000	0.0000000E+000	0.0000000E+000	19.5395	2.81774	70.4605	-1.95982e-06	-2.56071e-06	9.24626e-10	-2.56164e-06	0.242307	22911.6	8.27298	22919.9
316.316	7.29765	3.27379	7.99834	-24.1614	8.478	0.242213	-0.0104529	153.691	25.7484	1	10	0.0051793	0.000647547	0	4.93121e-06	0.00010342	7.89234e-06	56.0302	0.0121881	0.00681015	-0.0101079	-24.0754	8.00042	7.30446	3.26368	0.114073	0.0511742	0.125026	24.1614	25748.4	57396.1	62907.1	-65.8386	0.0000000E+000	0.0000000E+000	0.0000000E+000	65.8386	0.0000000E+000	0.0000000E+000	0.0000000E+000	-65.8386	0.0000000E+000	0.0000000E+000	0.0000000E+000	-24.1614	0.0000000E+000	0.0000000E+000	0.0000000E+000	24.1614	2.22911	65.8386	-1.47235e-06	-2.53182e-06	-1.08103e-09	-2.53074e-06	0.24211	23172	9.89392	23162.1
100.032	10.7471	4.60927	11.6938	-23.2138	9.82485	0.242204	-0.0107467	345.182	53.6293	1	10	0.00513124	0.0004388	0	4.24395e-07	0.00019886	7.92747e-06	-15.0332	0.0180663	0.017448	0.00468599	-23.2013	11.7117	10.7645	4.61396	0.0785921	0.0337071	0.0855154	23.2138	53629.3	125043	136058	-66.7862	0.0000000E+000	0.0000000E+000	0.0000000E+000	66.7862	0.0000000E+000	0.0000000E+000	0.0000000E+000	-66.7862	0.0000000E+000	0.0000000E+000	0.0000000E+000	-23.2138	0.0000000E+000	0.0000000E+000	0.0000000E+000	23.2138	2.33162	66.7862	-7.65449e-07	-2.6029e-06	-2.13709e-09	-2.60076e-06	0.242005	22537.4	18.5042	22518.9
[...]
1.00006	18.0616	0.876683	18.0829	-2.77887	19.8746	0.242243	-0.00595416	181530	426.678	1	12	0.00512596	0.00028347	0	-8.26816e-06	0.000313388	3.08955e-06	10.532	0.010899	0.0107154	-0.00199217	-2.77092	18.0935	18.0723	0.874691	0.0552359	0.00268107	0.0553009	2.77887	426678	8.7905e+06	8.80085e+06	-87.2211	0.0000000E+000	0.0000000E+000	0.0000000E+000	87.2211	0.0000000E+000	0.0000000E+000	0.0000000E+000	-87.2211	0.0000000E+000	0.0000000E+000	0.0000000E+000	-2.77887	0.0000000E+000	0.0000000E+000	0.0000000E+000	2.77887	20.6022	87.2211	9.46839e-08	-1.44236e-06	-1.86596e-09	-1.44049e-06	0.24193	40684.7	52.6335	40632.1
0.316193	18.4056	1.2953	18.4512	-4.02557	34.219	0.242226	-0.00438404	388594	1915.1	1	12	0.00512139	0.000277564	0	-7.01158e-05	-6.83729e-05	4.4281e-06	-22.3528	0.0159534	0.0147547	0.00606723	-4.04114	18.4663	18.4204	1.30137	0.0540634	0.00380473	0.0541971	4.02557	1.9151e+06	2.72127e+07	2.728e+07	-85.9744	0.0000000E+000	0.0000000E+000	0.0000000E+000	85.9744	0.0000000E+000	0.0000000E+000	0.0000000E+000	-85.9744	0.0000000E+000	0.0000000E+000	0.0000000E+000	-4.02557	0.0000000E+000	0.0000000E+000	0.0000000E+000	4.02557	14.2095	85.9744	-3.27374e-05	-1.06193e-06	2.99749e-10	-1.06223e-06	0.242294	55251.7	15.5959	55267.3
0.0999041	19.0719	2.99842	19.3062	-8.93471	79.4268	0.242237	-0.0056189	531306	12815.5	1	12	0.00511873	0.000265134	0	-0.000107167	-0.000106549	2.46482e-06	-24.9386	0.00929651	0.0084297	0.00391985	-8.94231	19.3151	19.0803	3.00234	0.0511684	0.00804451	0.0517969	8.93471	1.28155e+07	8.15152e+07	8.25164e+07	-81.0653	0.0000000E+000	0.0000000E+000	0.0000000E+000	81.0653	0.0000000E+000	0.0000000E+000	0.0000000E+000	-81.0653	0.0000000E+000	0.0000000E+000	0.0000000E+000	-8.93471	0.0000000E+000	0.0000000E+000	0.0000000E+000	8.93471	6.36066	81.0653	1.84445e-05	-1.36111e-06	5.98688e-10	-1.36171e-06	0.242344	43111.2	18.9626	43130.1
0.0315922	20.8762	7.11824	22.0564	-18.8281	222.309	0.242232	-0.00156141	707730	73713.1	1	12	0.00512179	0.000232214	0	9.71684e-05	-1.11087e-05	3.25209e-06	7.7701	0.0140047	0.0138762	-0.00189342	-18.8118	22.0689	20.89	7.11634	0.0429124	0.014632	0.0453384	18.8281	7.37131e+07	2.16184e+08	2.28405e+08	-71.1719	0.0000000E+000	0.0000000E+000	0.0000000E+000	71.1719	0.0000000E+000	0.0000000E+000	0.0000000E+000	-71.1719	0.0000000E+000	0.0000000E+000	0.0000000E+000	-18.8281	0.0000000E+000	0.0000000E+000	0.0000000E+000	18.8281	2.93277	71.1719	4.34278e-05	-3.78224e-07	1.73452e-11	-3.78241e-07	0.242243	155137	7.11452	155144
0.0100092	25.3628	16.9111	30.4837	-33.6942	673.532	0.242234	-0.00273754	940262	289374	1	12	0.00512356	0.000168075	0	-0.00114598	0.00019886	1.14475e-06	-18.746	0.00681096	0.00644966	0.00218886	-33.6909	30.4903	25.3692	16.9133	0.0272936	0.0181986	0.0328044	33.6942	2.89374e+08	4.33993e+08	5.2162e+08	-56.3058	0.0000000E+000	0.0000000E+000	0.0000000E+000	56.3058	0.0000000E+000	0.0000000E+000	0.0000000E+000	-56.3058	0.0000000E+000	0.0000000E+000	0.0000000E+000	-33.6942	0.0000000E+000	0.0000000E+000	0.0000000E+000	33.6942	1.49977	56.3058	-0.000635305	-6.63125e-07	-5.44387e-10	-6.62581e-07	0.242035	88485.9	72.6418	88413.2