Folder: EIS/txt (part 51)

File: 17689_R288_UA670_SOC00_C04.mpt
EC-Lab ASCII FILE
Nb header lines : 63

Potentio Electrochemical Impedance Spectroscopy

Run on channel : 4 (SN 66756)
User :
CE vs. WE compliance from -10 V to 10 V
Electrode connection : standard
Potential control : Ewe
Ewe ctrl range : min = -10.00 V, max = 10.00 V
Safety Limits :
	Do not start on E overload
Acquisition started on : 09/22/2025 08:43:58.498
Loaded Setting File :  C:\Users\Celltest\OneDrive - store-dot.com\Documents\EC-Lab\Data\Gyutae\17739_R277_UA674_SOC00_C03.mpr
Saved on :
	File : 17689_R288_UA670_SOC00_C04.mpr
	Directory : C:\Users\Celltest\OneDrive - store-dot.com\Documents\EC-Lab\Data\Charmaine\
	Host : 169.254.61.224
Device : VMP-3e (SN .003165)
Address : USB
EC-LAB for windows v11.62 (software)
Internet server v27.00 (firmware)
Command interpretor v12.03 (firmware)
Electrode material :
Initial state :
Electrolyte :
Comments :
Electrode surface area : 0.001 cm²
Characteristic mass : 0.001 g
Equivalent Weight : 0.000 g/eq.
Density : 0.000 g/cm3
Volume (V) : 0.001 cm³
Cycle Definition : Charge/Discharge alternance
Mode                Single sine
E (V)               0.0000
vs.                 Eoc
tE (h:m:s)          0:00:0.0000
record              0
dI                  0.000
unit dI             mA
dt (s)              0.000
fi                  100.000
unit fi             kHz
ff                  10.000
unit ff             mHz
Nd                  6
Points              per decade
spacing             Logarithmic
Va (mV)             5.0
pw                  0.10
Na                  2
corr                0
E range min (V)     -10.000
E range max (V)     10.000
I Range             Auto
Bandwidth           5
nc cycles           0
goto Ns'            0
nr cycles           0
inc. cycle          0

freq/Hz	Re(Z)/Ohm	-Im(Z)/Ohm	|Z|/Ohm	Phase(Z)/deg	time/s	<Ewe>/V	<I>/mA	Cs/µF	Cp/µF	cycle number	I Range	|Ewe|/V	|I|/A	Ns	(Q-Qo)/mA.h	Re(Y)/Ohm-1	Im(Y)/Ohm-1	|Y|/Ohm-1	Phase(Y)/deg	Re(C)/nF	Im(C)/nF	|C|/nF	Phase(C)/deg	Re(M)	Im(M)	|M|	Phase(M)/deg	Re(Permittivity)	Im(Permittivity)	|Permittivity|	Phase(Permittivity)/deg	Re(Resistivity)/Ohm.cm	Im(Resistivity)/Ohm.cm	|Resistivity|/Ohm.cm	Phase(Resistivity)/deg	Re(Conductivity)/mS/cm	Im(Conductivity)/mS/cm	|Conductivity|/mS/cm	Phase(Conductivity)/deg	Tan(Delta)	Loss Angle(Delta)/deg	dq/mA.h	Pwe/W	Rwe/Ohm
100004	0.926681	0.187049	0.94537	-11.4117	1.8655	0.276227	-0.0326017	8.50843	0.333085	1	9	0.00482827	0.00510728	0	-6.64334e-06	1.03688	0.209291	1.05779	11.4117	333.085	1650.18	1683.46	-78.5883	0.0000000E+000	0.0000000E+000	0.0000000E+000	78.5883	0.0000000E+000	0.0000000E+000	0.0000000E+000	-78.5883	0.0000000E+000	0.0000000E+000	0.0000000E+000	-11.4117	0.0000000E+000	0.0000000E+000	0.0000000E+000	11.4117	4.95423	78.5883	-6.64334e-06	-9.00546e-06	8472.77
46420.4	1.01281	0.214208	1.03522	-11.9419	2.73949	0.276157	-0.0311285	16.0058	0.685304	1	9	0.00549447	0.00530755	0	-2.40863e-05	0.945074	0.199881	0.96598	11.9419	685.304	3240.24	3311.92	-78.0581	0.0000000E+000	0.0000000E+000	0.0000000E+000	78.0581	0.0000000E+000	0.0000000E+000	0.0000000E+000	-78.0581	0.0000000E+000	0.0000000E+000	0.0000000E+000	-11.9419	0.0000000E+000	0.0000000E+000	0.0000000E+000	11.9419	4.72818	78.0581	-1.14888e-05	-8.59635e-06	8871.54
21544.7	1.11395	0.2679	1.14571	-13.5226	3.89649	0.276165	-0.0315947	27.5745	1.50767	1	9	0.00501265	0.00437516	0	-2.87205e-05	0.848627	0.204092	0.872823	13.5226	1507.67	6268.98	6447.72	-76.4774	0.0000000E+000	0.0000000E+000	0.0000000E+000	76.4774	0.0000000E+000	0.0000000E+000	0.0000000E+000	-76.4774	0.0000000E+000	0.0000000E+000	0.0000000E+000	-13.5226	0.0000000E+000	0.0000000E+000	0.0000000E+000	13.5226	4.15807	76.4774	-4.60322e-06	-8.72535e-06	8740.87
10002.2	1.23924	0.344303	1.28618	-15.5271	4.62948	0.276151	-0.0295434	46.215	3.31176	1	9	0.00494671	0.00384604	0	-3.34475e-05	0.749119	0.20813	0.777494	15.5271	3311.76	11919.9	12371.5	-74.4729	0.0000000E+000	0.0000000E+000	0.0000000E+000	74.4729	0.0000000E+000	0.0000000E+000	0.0000000E+000	-74.4729	0.0000000E+000	0.0000000E+000	0.0000000E+000	-15.5271	0.0000000E+000	0.0000000E+000	0.0000000E+000	15.5271	3.59928	74.4729	-1.6866e-06	-8.15843e-06	9347.3
4641.49	1.4099	0.454786	1.48144	-17.8779	5.7017	0.27611	-0.0508402	75.3973	7.10567	1	9	0.00496604	0.00335218	0	-6.21898e-05	0.642426	0.207225	0.675021	17.8779	7105.67	22028.6	23146.2	-72.1221	0.0000000E+000	0.0000000E+000	0.0000000E+000	72.1221	0.0000000E+000	0.0000000E+000	0.0000000E+000	-72.1221	0.0000000E+000	0.0000000E+000	0.0000000E+000	-17.8779	0.0000000E+000	0.0000000E+000	0.0000000E+000	17.8779	3.10014	72.1221	-1.35164e-05	-1.40375e-05	5430.95
2155.69	1.61529	0.602185	1.72389	-20.4456	6.6357	0.276162	-0.0509894	122.604	14.9605	1	9	0.00481562	0.00279347	0	-7.57467e-05	0.543542	0.202634	0.580085	20.4456	14960.5	40129.8	42827.8	-69.5544	0.0000000E+000	0.0000000E+000	0.0000000E+000	69.5544	0.0000000E+000	0.0000000E+000	0.0000000E+000	-69.5544	0.0000000E+000	0.0000000E+000	0.0000000E+000	-20.4456	0.0000000E+000	0.0000000E+000	0.0000000E+000	20.4456	2.68238	69.5544	-7.99841e-06	-1.40813e-05	5416.07
1000.32	1.87895	0.862548	2.06747	-24.6579	7.57171	0.276111	-0.0507283	184.458	32.106	1	9	0.00476612	0.00230529	0	-8.92791e-05	0.439578	0.201792	0.483683	24.6579	32106	69938.6	76955.9	-65.3421	0.0000000E+000	0.0000000E+000	0.0000000E+000	65.3421	0.0000000E+000	0.0000000E+000	0.0000000E+000	-65.3421	0.0000000E+000	0.0000000E+000	0.0000000E+000	-24.6579	0.0000000E+000	0.0000000E+000	0.0000000E+000	24.6579	2.17837	65.3421	-5.10721e-06	-1.40066e-05	5442.94
463.961	2.27276	1.25065	2.59414	-28.8229	8.50618	0.276117	-0.0524253	274.286	63.7508	1	9	0.00474577	0.00182942	0	-0.000102564	0.337728	0.185843	0.385484	28.8229	63750.8	115853	132235	-61.1771	0.0000000E+000	0.0000000E+000	0.0000000E+000	61.1771	0.0000000E+000	0.0000000E+000	0.0000000E+000	-61.1771	0.0000000E+000	0.0000000E+000	0.0000000E+000	-28.8229	0.0000000E+000	0.0000000E+000	0.0000000E+000	28.8229	1.81727	61.1771	-7.2193e-06	-1.44755e-05	5266.87
215.345	2.96623	1.84705	3.49429	-31.9103	9.69342	0.276165	-0.0330516	400.136	111.801	1	10	0.00477559	0.00136668	0	-0.000114228	0.242932	0.151272	0.286181	31.9103	111801	179544	211508	-58.0897	0.0000000E+000	0.0000000E+000	0.0000000E+000	58.0897	0.0000000E+000	0.0000000E+000	0.0000000E+000	-58.0897	0.0000000E+000	0.0000000E+000	0.0000000E+000	-31.9103	0.0000000E+000	0.0000000E+000	0.0000000E+000	31.9103	1.60593	58.0897	-2.7972e-06	-9.12768e-06	8355.57
100.032	4.09776	2.49213	4.79607	-31.3066	10.6247	0.27614	-0.0320295	638.427	172.377	1	10	0.00474563	0.000989483	0	-0.000123897	0.178145	0.108342	0.208504	31.3066	172377	283437	331738	-58.6934	0.0000000E+000	0.0000000E+000	0.0000000E+000	58.6934	0.0000000E+000	0.0000000E+000	0.0000000E+000	-58.6934	0.0000000E+000	0.0000000E+000	0.0000000E+000	-31.3066	0.0000000E+000	0.0000000E+000	0.0000000E+000	31.3066	1.64428	58.6934	-4.99144e-06	-8.84462e-06	8621.41
46.4415	5.69892	2.84491	6.36955	-26.5284	11.5585	0.27614	-0.0347526	1204.61	240.306	1	10	0.00472608	0.000741981	0	-0.000132653	0.140467	0.0701214	0.156997	26.5284	240306	481380	538028	-63.4716	0.0000000E+000	0.0000000E+000	0.0000000E+000	63.4716	0.0000000E+000	0.0000000E+000	0.0000000E+000	-63.4716	0.0000000E+000	0.0000000E+000	0.0000000E+000	-26.5284	0.0000000E+000	0.0000000E+000	0.0000000E+000	26.5284	2.0032	63.4716	-4.39553e-06	-9.59659e-06	7945.89
[...]
1.00006	10.4896	1.1602	10.5535	-6.31154	19.8582	0.276206	-0.0102818	137170	1657.78	1	11	0.00473794	0.000448943	0	-0.000185462	0.0941805	0.0104168	0.0947548	6.31154	1.65778e+06	1.49883e+07	1.50797e+07	-83.6885	0.0000000E+000	0.0000000E+000	0.0000000E+000	83.6885	0.0000000E+000	0.0000000E+000	0.0000000E+000	-83.6885	0.0000000E+000	0.0000000E+000	0.0000000E+000	-6.31154	0.0000000E+000	0.0000000E+000	0.0000000E+000	6.31154	9.0412	83.6885	-2.20909e-05	-2.83989e-06	26863.6
0.464091	10.8622	1.08066	10.9158	-5.68157	27.5429	0.276195	-0.0115441	317342	3110.24	1	11	0.00473263	0.000433557	0	-0.000223235	0.0911601	0.00906937	0.0916102	5.68157	3.11024e+06	3.12624e+07	3.14167e+07	-84.3184	0.0000000E+000	0.0000000E+000	0.0000000E+000	84.3184	0.0000000E+000	0.0000000E+000	0.0000000E+000	-84.3184	0.0000000E+000	0.0000000E+000	0.0000000E+000	-5.68157	0.0000000E+000	0.0000000E+000	0.0000000E+000	5.68157	10.0514	84.3184	-1.40253e-05	-3.18842e-06	23925.2
0.215268	11.2364	1.30353	11.3117	-6.61732	44.023	0.276209	-0.00913299	567177	7531.93	1	11	0.00474768	0.000419714	0	-0.00018537	0.087815	0.0101874	0.0884039	6.61732	7.53193e+06	6.49246e+07	6.53601e+07	-83.3827	0.0000000E+000	0.0000000E+000	0.0000000E+000	83.3827	0.0000000E+000	0.0000000E+000	0.0000000E+000	-83.3827	0.0000000E+000	0.0000000E+000	0.0000000E+000	-6.61732	0.0000000E+000	0.0000000E+000	0.0000000E+000	6.61732	8.61992	83.3827	3.06689e-05	-2.52261e-06	30243
0.0999041	11.731	1.96068	11.8937	-9.48853	79.4295	0.276202	-0.00173816	812513	22080.5	1	11	0.00473979	0.000398512	0	-0.000123234	0.0829277	0.0138603	0.084078	9.48853	2.20805e+07	1.3211e+08	1.33943e+08	-80.5115	0.0000000E+000	0.0000000E+000	0.0000000E+000	80.5115	0.0000000E+000	0.0000000E+000	0.0000000E+000	-80.5115	0.0000000E+000	0.0000000E+000	0.0000000E+000	-9.48853	0.0000000E+000	0.0000000E+000	0.0000000E+000	9.48853	5.98312	80.5115	1.97422e-05	-4.80084e-07	158904
0.0464052	12.4217	3.10164	12.8031	-14.0198	155.666	0.276193	0.00073712	1.10576e+06	64895.6	1	11	0.00473628	0.000369933	0	-0.000350728	0.0757795	0.0189218	0.0781062	14.0198	6.48956e+07	2.599e+08	2.67879e+08	-75.9802	0.0000000E+000	0.0000000E+000	0.0000000E+000	75.9802	0.0000000E+000	0.0000000E+000	0.0000000E+000	-75.9802	0.0000000E+000	0.0000000E+000	0.0000000E+000	-14.0198	0.0000000E+000	0.0000000E+000	0.0000000E+000	14.0198	4.00489	75.9802	-0.000184841	2.03588e-07	374693
0.0215268	13.6453	4.99969	14.5324	-20.1231	319.894	0.276191	-0.00230341	1.47876e+06	175029	1	11	0.00474235	0.00032633	0	-0.00104323	0.0646112	0.0236738	0.0688118	20.1231	1.75029e+08	4.77693e+08	5.08749e+08	-69.8769	0.0000000E+000	0.0000000E+000	0.0000000E+000	69.8769	0.0000000E+000	0.0000000E+000	0.0000000E+000	-69.8769	0.0000000E+000	0.0000000E+000	0.0000000E+000	-20.1231	0.0000000E+000	0.0000000E+000	0.0000000E+000	20.1231	2.72923	69.8769	-0.000358116	-6.3618e-07	119905
0.0100092	15.1263	8.41225	17.3082	-29.0799	773.185	0.276191	-0.00119445	1.89021e+06	446512	1	12	0.004735	0.00027357	0	-0.000804263	0.0504932	0.0280809	0.0577762	29.0799	4.46512e+08	8.02887e+08	9.18695e+08	-60.9201	0.0000000E+000	0.0000000E+000	0.0000000E+000	60.9201	0.0000000E+000	0.0000000E+000	0.0000000E+000	-60.9201	0.0000000E+000	0.0000000E+000	0.0000000E+000	-29.0799	0.0000000E+000	0.0000000E+000	0.0000000E+000	29.0799	1.79813	60.9201	0.000366303	-3.29896e-07	231229

File: 17690_R288_UA670_SOC00_C05.mpt
EC-Lab ASCII FILE

Nb header lines : 63

Potentio Electrochemical Impedance Spectroscopy

Run on channel : 5 (SN 65912)
User :
CE vs. WE compliance from -10 V to 10 V
Electrode connection : standard
Potential control : Ewe
Ewe ctrl range : min = -10.00 V, max = 10.00 V
Safety Limits :
	Do not start on E overload
Acquisition started on : 09/22/2025 08:44:07.659
Loaded Setting File :  C:\Users\Celltest\OneDrive - store-dot.com\Documents\EC-Lab\Data\Gyutae\17740_R277_UA674_SOC00_C04.mpr
Saved on :
	File : 17690_R288_UA670_SOC00_C05.mpr
	Directory : C:\Users\Celltest\OneDrive - store-dot.com\Documents\EC-Lab\Data\Charmaine\
	Host : 169.254.61.224
Device : VMP-3e (SN .003165)
Address : USB
EC-LAB for windows v11.62 (software)
Internet server v27.00 (firmware)
Command interpretor v12.03 (firmware)
Electrode material :
Initial state :
Electrolyte :
Comments :
Electrode surface area : 0.001 cm²
Characteristic mass : 0.001 g
Equivalent Weight : 0.000 g/eq.
Density : 0.000 g/cm3
Volume (V) : 0.001 cm³
Cycle Definition : Charge/Discharge alternance
Mode                Single sine
E (V)               0.0000
vs.                 Eoc
tE (h:m:s)          0:00:0.0000
record              0
dI                  0.000
unit dI             mA
dt (s)              0.000
fi                  100.000
unit fi             kHz
ff                  10.000
unit ff             mHz
Nd                  6
Points              per decade
spacing             Logarithmic
Va (mV)             5.0
pw                  0.10
Na                  2
corr                0
E range min (V)     -10.000
E range max (V)     10.000
I Range             Auto
Bandwidth           5
nc cycles           0
goto Ns'            0
nr cycles           0
inc. cycle          0

freq/Hz	Re(Z)/Ohm	-Im(Z)/Ohm	|Z|/Ohm	Phase(Z)/deg	time/s	<Ewe>/V	<I>/mA	Cs/µF	Cp/µF	cycle number	I Range	|Ewe|/V	|I|/A	Ns	(Q-Qo)/mA.h	Re(Y)/Ohm-1	Im(Y)/Ohm-1	|Y|/Ohm-1	Phase(Y)/deg	Re(C)/nF	Im(C)/nF	|C|/nF	Phase(C)/deg	Re(M)	Im(M)	|M|	Phase(M)/deg	Re(Permittivity)	Im(Permittivity)	|Permittivity|	Phase(Permittivity)/deg	Re(Resistivity)/Ohm.cm	Im(Resistivity)/Ohm.cm	|Resistivity|/Ohm.cm	Phase(Resistivity)/deg	Re(Conductivity)/mS/cm	Im(Conductivity)/mS/cm	|Conductivity|/mS/cm	Phase(Conductivity)/deg	Tan(Delta)	Loss Angle(Delta)/deg	dq/mA.h	Pwe/W	Rwe/Ohm
100004	1.15773	0.223049	1.17902	-10.905	1.86449	0.270293	-0.0354552	7.13517	0.255363	1	9	0.00460378	0.00390473	0	-1.2243e-05	0.832843	0.160455	0.848159	10.905	255.363	1325.46	1349.84	-79.095	0.0000000E+000	0.0000000E+000	0.0000000E+000	79.095	0.0000000E+000	0.0000000E+000	0.0000000E+000	-79.095	0.0000000E+000	0.0000000E+000	0.0000000E+000	-10.905	0.0000000E+000	0.0000000E+000	0.0000000E+000	10.905	5.1905	79.095	-1.2243e-05	-9.58328e-06	7623.51
46420.4	1.25403	0.247913	1.2783	-11.1828	2.73848	0.270289	-0.0374661	13.8297	0.520167	1	9	0.00546379	0.00427425	0	-1.27432e-05	0.767434	0.151716	0.782287	11.1828	520.168	2631.19	2682.12	-78.8172	0.0000000E+000	0.0000000E+000	0.0000000E+000	78.8172	0.0000000E+000	0.0000000E+000	0.0000000E+000	-78.8172	0.0000000E+000	0.0000000E+000	0.0000000E+000	-11.1828	0.0000000E+000	0.0000000E+000	0.0000000E+000	11.1828	5.05836	78.8172	-2.10221e-06	-1.01267e-05	7214.22
21544.7	1.3656	0.30276	1.39876	-12.5006	3.6135	0.27028	-0.0357717	24.3995	1.14313	1	9	0.00532205	0.00380484	0	-2.00025e-05	0.697973	0.154744	0.714921	12.5006	1143.13	5156.07	5281.26	-77.4994	0.0000000E+000	0.0000000E+000	0.0000000E+000	77.4994	0.0000000E+000	0.0000000E+000	0.0000000E+000	-77.4994	0.0000000E+000	0.0000000E+000	0.0000000E+000	-12.5006	0.0000000E+000	0.0000000E+000	0.0000000E+000	12.5006	4.51049	77.4994	-7.20483e-06	-9.66837e-06	7555.68
10002.2	1.51197	0.385852	1.56043	-14.3162	4.48849	0.270272	-0.033947	41.2384	2.52149	1	9	0.00523766	0.00335655	0	-2.97108e-05	0.620948	0.158465	0.640849	14.3162	2521.49	9880.5	10197.2	-75.6838	0.0000000E+000	0.0000000E+000	0.0000000E+000	75.6838	0.0000000E+000	0.0000000E+000	0.0000000E+000	-75.6838	0.0000000E+000	0.0000000E+000	0.0000000E+000	-14.3162	0.0000000E+000	0.0000000E+000	0.0000000E+000	14.3162	3.91852	75.6838	4.40906e-07	-9.17493e-06	7961.6
4641.49	1.70009	0.503316	1.77303	-16.4915	5.51471	0.270287	-0.0157553	68.1275	5.49	1	9	0.00531713	0.0029989	0	-4.1713e-05	0.540804	0.160107	0.564007	16.4915	5490	18544	19339.6	-73.5085	0.0000000E+000	0.0000000E+000	0.0000000E+000	73.5085	0.0000000E+000	0.0000000E+000	0.0000000E+000	-73.5085	0.0000000E+000	0.0000000E+000	0.0000000E+000	-16.4915	0.0000000E+000	0.0000000E+000	0.0000000E+000	16.4915	3.37778	73.5085	-3.22241e-08	-4.25846e-06	17155.3
2155.69	1.94198	0.663344	2.05215	-18.8592	6.44871	0.270277	-0.0244508	111.3	11.6293	1	9	0.00531137	0.0025882	0	-4.79923e-05	0.461133	0.157514	0.487293	18.8592	11629.3	34045.6	35976.9	-71.1408	0.0000000E+000	0.0000000E+000	0.0000000E+000	71.1408	0.0000000E+000	0.0000000E+000	0.0000000E+000	-71.1408	0.0000000E+000	0.0000000E+000	0.0000000E+000	-18.8592	0.0000000E+000	0.0000000E+000	0.0000000E+000	18.8592	2.92757	71.1408	-1.14284e-06	-6.60849e-06	11053.9
1000.32	2.22675	0.897378	2.40077	-21.9494	7.38471	0.270283	-0.0207269	177.299	24.7717	1	9	0.00522069	0.00217459	0	-5.33735e-05	0.386341	0.155695	0.416534	21.9494	24771.7	61468.3	66272.1	-68.0506	0.0000000E+000	0.0000000E+000	0.0000000E+000	68.0506	0.0000000E+000	0.0000000E+000	0.0000000E+000	-68.0506	0.0000000E+000	0.0000000E+000	0.0000000E+000	-21.9494	0.0000000E+000	0.0000000E+000	0.0000000E+000	21.9494	2.48139	68.0506	-3.54527e-06	-5.60213e-06	13040.2
463.961	2.63961	1.33989	2.96021	-26.9127	8.57318	0.270287	-0.0140375	256.018	52.4521	1	10	0.00522652	0.00176559	0	-5.91551e-05	0.301228	0.152906	0.337814	26.9127	52452.1	103332	115882	-63.0873	0.0000000E+000	0.0000000E+000	0.0000000E+000	63.0873	0.0000000E+000	0.0000000E+000	0.0000000E+000	-63.0873	0.0000000E+000	0.0000000E+000	0.0000000E+000	-26.9127	0.0000000E+000	0.0000000E+000	0.0000000E+000	26.9127	1.97002	63.0873	-7.32144e-07	-3.79415e-06	19254.6
215.345	3.32679	1.9784	3.87061	-30.7395	9.50642	0.270294	-0.0134883	373.569	97.5985	1	10	0.00516571	0.0013346	0	-6.44486e-05	0.222058	0.132056	0.258357	30.7395	97598.5	164117	190944	-59.2605	0.0000000E+000	0.0000000E+000	0.0000000E+000	59.2605	0.0000000E+000	0.0000000E+000	0.0000000E+000	-59.2605	0.0000000E+000	0.0000000E+000	0.0000000E+000	-30.7395	0.0000000E+000	0.0000000E+000	0.0000000E+000	30.7395	1.68155	59.2605	-2.72073e-06	-3.64581e-06	20039.1
100.032	4.48671	2.78896	5.28289	-31.8652	10.4377	0.270296	-0.0132426	570.479	158.994	1	10	0.00513938	0.000972836	0	-6.60363e-05	0.160763	0.0999308	0.18929	31.8652	158994	255780	301169	-58.1348	0.0000000E+000	0.0000000E+000	0.0000000E+000	58.1348	0.0000000E+000	0.0000000E+000	0.0000000E+000	-58.1348	0.0000000E+000	0.0000000E+000	0.0000000E+000	-31.8652	0.0000000E+000	0.0000000E+000	0.0000000E+000	31.8652	1.60874	58.1348	-6.05642e-07	-3.57942e-06	20411.2
46.4415	6.31538	3.39774	7.17138	-28.2808	11.3705	0.270291	-0.0143187	1008.61	226.412	1	10	0.00512539	0.000714701	0	-6.8224e-05	0.122799	0.0660671	0.139443	28.2808	226412	420831	477871	-61.7192	0.0000000E+000	0.0000000E+000	0.0000000E+000	61.7192	0.0000000E+000	0.0000000E+000	0.0000000E+000	-61.7192	0.0000000E+000	0.0000000E+000	0.0000000E+000	-28.2808	0.0000000E+000	0.0000000E+000	0.0000000E+000	28.2808	1.8587	61.7192	-1.19439e-06	-3.8702e-06	18876.8
[...]
0.464091	13.1	1.30749	13.1651	-5.69976	27.2919	0.270317	-0.00249952	262288	2587.09	1	11	0.00512576	0.000389346	0	-6.83471e-05	0.0755831	0.00754387	0.0759587	5.69976	2.58709e+06	2.59204e+07	2.60492e+07	-84.3002	0.0000000E+000	0.0000000E+000	0.0000000E+000	84.3002	0.0000000E+000	0.0000000E+000	0.0000000E+000	-84.3002	0.0000000E+000	0.0000000E+000	0.0000000E+000	-5.69976	0.0000000E+000	0.0000000E+000	0.0000000E+000	5.69976	10.0191	84.3002	-7.13416e-06	-6.75663e-07	108148
0.215268	13.5171	1.49538	13.5996	-6.31287	43.7718	0.270316	-0.00166454	494413	5977.78	1	11	0.00512598	0.000376922	0	-0.000155385	0.0730857	0.00808535	0.0735316	6.31287	5.97778e+06	5.40348e+07	5.43644e+07	-83.6871	0.0000000E+000	0.0000000E+000	0.0000000E+000	83.6871	0.0000000E+000	0.0000000E+000	0.0000000E+000	-83.6871	0.0000000E+000	0.0000000E+000	0.0000000E+000	-6.31287	0.0000000E+000	0.0000000E+000	0.0000000E+000	6.31287	9.03928	83.6871	-5.55119e-05	-4.49951e-07	162398
0.0999041	14.1169	2.12954	14.2766	-8.57844	79.1773	0.270324	-0.00441767	748085	16644.7	1	11	0.00512603	0.000359052	0	-0.000263875	0.0692612	0.0104481	0.0700448	8.57844	1.66447e+07	1.10338e+08	1.11587e+08	-81.4216	0.0000000E+000	0.0000000E+000	0.0000000E+000	81.4216	0.0000000E+000	0.0000000E+000	0.0000000E+000	-81.4216	0.0000000E+000	0.0000000E+000	0.0000000E+000	-8.57844	0.0000000E+000	0.0000000E+000	0.0000000E+000	8.57844	6.62906	81.4216	-4.30348e-05	-1.1942e-06	61191.5
0.0464052	14.9095	3.33081	15.277	-12.5932	155.413	0.270321	-0.0037044	1.02968e+06	48947	1	11	0.00512633	0.000335558	0	-0.000115206	0.063883	0.0142716	0.0654578	12.5932	4.8947e+07	2.19098e+08	2.24499e+08	-77.4068	0.0000000E+000	0.0000000E+000	0.0000000E+000	77.4068	0.0000000E+000	0.0000000E+000	0.0000000E+000	-77.4068	0.0000000E+000	0.0000000E+000	0.0000000E+000	-12.5932	0.0000000E+000	0.0000000E+000	0.0000000E+000	12.5932	4.47624	77.4068	0.000136278	-1.00138e-06	72972.9
0.0215268	16.3211	5.27993	17.1539	-17.9265	351.38	0.270319	0.000604899	1.40027e+06	132660	1	12	0.00512432	0.000298726	0	0.000372843	0.0554655	0.0179432	0.0582957	17.9265	1.3266e+08	4.10076e+08	4.31e+08	-72.0735	0.0000000E+000	0.0000000E+000	0.0000000E+000	72.0735	0.0000000E+000	0.0000000E+000	0.0000000E+000	-72.0735	0.0000000E+000	0.0000000E+000	0.0000000E+000	-17.9265	0.0000000E+000	0.0000000E+000	0.0000000E+000	17.9265	3.09117	72.0735	0.000246784	1.63516e-07	446883
0.0146812	17.1806	6.84633	18.4945	-21.7269	494.576	0.270317	0.00126886	1.58344e+06	216987	1	12	0.00512553	0.000277139	0	0.000384035	0.0502291	0.0200159	0.0540703	21.7269	2.16987e+08	5.44521e+08	5.86162e+08	-68.2731	0.0000000E+000	0.0000000E+000	0.0000000E+000	68.2731	0.0000000E+000	0.0000000E+000	0.0000000E+000	-68.2731	0.0000000E+000	0.0000000E+000	0.0000000E+000	-21.7269	0.0000000E+000	0.0000000E+000	0.0000000E+000	21.7269	2.50946	68.2731	1.11923e-05	3.42993e-07	213040

0.0100092	18.0696	8.75037	20.0769	-25.839	704.597	0.27032	0.000457166	1.81717e+06	345189	1	12	0.00512735	0.000255386	0	-8.88221e-05	0.0448289	0.0217087	0.0498086	25.839	3.45189e+08	7.1282e+08	7.92002e+08	-64.161	0.0000000E+000	0.0000000E+000	0.0000000E+000	64.161	0.0000000E+000	0.0000000E+000	0.0000000E+000	-64.161	0.0000000E+000	0.0000000E+000	0.0000000E+000	-25.839	0.0000000E+000	0.0000000E+000	0.0000000E+000	25.839	2.06501	64.161	-0.000472857	1.23581e-07	591296