Folder: EIS/txt (part 4)

File: 14958_R243_UA603_SOC00_C05.mpt
EC-Lab ASCII FILE
Nb header lines : 63

Potentio Electrochemical Impedance Spectroscopy

Run on channel : 5 (SN 65912)
User :
CE vs. WE compliance from -10 V to 10 V
Electrode connection : standard
Potential control : Ewe
Ewe ctrl range : min = -10.00 V, max = 10.00 V
Safety Limits :
	Do not start on E overload
Acquisition started on : 09/22/2025 10:44:05.538
Loaded Setting File :  C:\Users\Celltest\OneDrive - store-dot.com\Documents\EC-Lab\Data\Gyutae\17740_R277_UA674_SOC00_C04.mpr
Saved on :
	File : 14958_R243_UA603_SOC00_C05.mpr
	Directory : C:\Users\Celltest\OneDrive - store-dot.com\Documents\EC-Lab\Data\Anna\
	Host : 169.254.61.224
Device : VMP-3e (SN .003165)
Address : USB
EC-LAB for windows v11.62 (software)
Internet server v27.00 (firmware)
Command interpretor v12.03 (firmware)
Electrode material :
Initial state :
Electrolyte :
Comments :
Electrode surface area : 0.001 cm²
Characteristic mass : 0.001 g
Equivalent Weight : 0.000 g/eq.
Density : 0.000 g/cm3
Volume (V) : 0.001 cm³
Cycle Definition : Charge/Discharge alternance
Mode                Single sine
E (V)               0.0000
vs.                 Eoc
tE (h:m:s)          0:00:0.0000
record              0
dI                  0.000
unit dI             mA
dt (s)              0.000
fi                  100.000
unit fi             kHz
ff                  10.000
unit ff             mHz
Nd                  6
Points              per decade
spacing             Logarithmic
Va (mV)             5.0
pw                  0.10
Na                  2
corr                0
E range min (V)     -10.000
E range max (V)     10.000
I Range             Auto
Bandwidth           5
nc cycles           0
goto Ns'            0
nr cycles           0
inc. cycle          0

freq/Hz	Re(Z)/Ohm	-Im(Z)/Ohm	|Z|/Ohm	Phase(Z)/deg	time/s	<Ewe>/V	<I>/mA	Cs/µF	Cp/µF	cycle number	I Range	|Ewe|/V	|I|/A	Ns	(Q-Qo)/mA.h	Re(Y)/Ohm-1	Im(Y)/Ohm-1	|Y|/Ohm-1	Phase(Y)/deg	Re(C)/nF	Im(C)/nF	|C|/nF	Phase(C)/deg	Re(M)	Im(M)	|M|	Phase(M)/deg	Re(Permittivity)	Im(Permittivity)	|Permittivity|	Phase(Permittivity)/deg	Re(Resistivity)/Ohm.cm	Im(Resistivity)/Ohm.cm	|Resistivity|/Ohm.cm	Phase(Resistivity)/deg	Re(Conductivity)/mS/cm	Im(Conductivity)/mS/cm	|Conductivity|/mS/cm	Phase(Conductivity)/deg	Tan(Delta)	Loss Angle(Delta)/deg	dq/mA.h	Pwe/W	Rwe/Ohm
100004	3.47937	1.52319	3.79818	-23.6427	1.41847	0.345792	0.0943603	1.04484	0.168038	1	10	0.00494132	0.00130097	0	3.96996e-05	0.241185	0.105585	0.263284	23.6427	168.038	383.844	419.014	-66.3573	0.0000000E+000	0.0000000E+000	0.0000000E+000	66.3573	0.0000000E+000	0.0000000E+000	0.0000000E+000	-66.3573	0.0000000E+000	0.0000000E+000	0.0000000E+000	-23.6427	0.0000000E+000	0.0000000E+000	0.0000000E+000	23.6427	2.28427	66.3573	3.96996e-05	3.2629e-05	3664.59
46420.4	1.47688	0.265752	1.5006	-10.2007	2.60648	0.345775	0.118978	12.9014	0.404632	1	9	0.00480939	0.00320499	0	7.36623e-05	0.655868	0.118018	0.666401	10.2007	404.632	2248.68	2284.8	-79.7993	0.0000000E+000	0.0000000E+000	0.0000000E+000	79.7993	0.0000000E+000	0.0000000E+000	0.0000000E+000	-79.7993	0.0000000E+000	0.0000000E+000	0.0000000E+000	-10.2007	0.0000000E+000	0.0000000E+000	0.0000000E+000	10.2007	5.55736	79.7993	9.56589e-06	4.11398e-05	2906.21
21544.7	0.997713	0.220411	1.02177	-12.4575	3.34049	0.345772	0.106931	33.5155	1.55958	1	9	0.00523074	0.0051193	0	8.50076e-05	0.955652	0.21112	0.978695	12.4575	1559.58	7059.6	7229.82	-77.5425	0.0000000E+000	0.0000000E+000	0.0000000E+000	77.5425	0.0000000E+000	0.0000000E+000	0.0000000E+000	-77.5425	0.0000000E+000	0.0000000E+000	0.0000000E+000	-12.4575	0.0000000E+000	0.0000000E+000	0.0000000E+000	12.4575	4.52659	77.5425	5.36296e-06	3.69738e-05	3233.59
10002.2	0.914014	0.411204	1.00225	-24.2224	4.21448	0.345771	0.0614987	38.696	6.51368	1	9	0.00540429	0.00539214	0	0.000115429	0.90991	0.409357	0.997752	24.2224	6513.67	14478.4	15876.2	-65.7776	0.0000000E+000	0.0000000E+000	0.0000000E+000	65.7776	0.0000000E+000	0.0000000E+000	0.0000000E+000	-65.7776	0.0000000E+000	0.0000000E+000	0.0000000E+000	-24.2224	0.0000000E+000	0.0000000E+000	0.0000000E+000	24.2224	2.22278	65.7776	1.04533e-05	2.12645e-05	5622.41
4641.49	0.942553	0.854752	1.2724	-42.2032	5.68668	0.345803	0.0802675	40.1165	18.1032	1	9	0.00516941	0.00406271	0	0.000134635	0.582179	0.527948	0.785915	42.2032	18103.2	19962.7	26948.8	-47.7968	0.0000000E+000	0.0000000E+000	0.0000000E+000	47.7968	0.0000000E+000	0.0000000E+000	0.0000000E+000	-47.7968	0.0000000E+000	0.0000000E+000	0.0000000E+000	-42.2032	0.0000000E+000	0.0000000E+000	0.0000000E+000	42.2032	1.10272	47.7968	2.19763e-05	2.77567e-05	4308.13
2155.69	1.20801	1.81012	2.17619	-56.2823	6.84368	0.345794	0.0749981	40.7875	28.2194	1	9	0.00507275	0.00233103	0	0.000161019	0.25508	0.38222	0.459519	56.2823	28219.4	18832.6	33926.4	-33.7177	0.0000000E+000	0.0000000E+000	0.0000000E+000	33.7177	0.0000000E+000	0.0000000E+000	0.0000000E+000	-33.7177	0.0000000E+000	0.0000000E+000	0.0000000E+000	-56.2823	0.0000000E+000	0.0000000E+000	0.0000000E+000	56.2823	0.667364	33.7177	7.65419e-06	2.59338e-05	4610.7
1000.32	2.34239	3.25552	4.01064	-54.2645	8.47971	0.345796	0.0808759	48.872	32.2014	1	10	0.00506771	0.00126357	0	0.000189692	0.145624	0.202392	0.249337	54.2645	32201.4	23169.3	39670.5	-35.7355	0.0000000E+000	0.0000000E+000	0.0000000E+000	35.7355	0.0000000E+000	0.0000000E+000	0.0000000E+000	-35.7355	0.0000000E+000	0.0000000E+000	0.0000000E+000	-54.2645	0.0000000E+000	0.0000000E+000	0.0000000E+000	54.2645	0.719512	35.7355	1.72883e-05	2.79666e-05	4275.63
463.961	4.51268	4.41248	6.31144	-44.3567	9.41421	0.345781	0.0769235	77.7422	37.9983	1	10	0.00463124	0.000733785	0	0.000209934	0.113287	0.110771	0.158442	44.3567	37998.3	38861.3	54351.4	-45.6433	0.0000000E+000	0.0000000E+000	0.0000000E+000	45.6433	0.0000000E+000	0.0000000E+000	0.0000000E+000	-45.6433	0.0000000E+000	0.0000000E+000	0.0000000E+000	-44.3567	0.0000000E+000	0.0000000E+000	0.0000000E+000	44.3567	1.02271	45.6433	9.91935e-06	2.65987e-05	4495.12
215.345	6.83719	5.22998	8.60812	-37.4135	10.3484	0.34579	0.076864	141.314	52.1638	1	10	0.00454639	0.000528151	0	0.000228551	0.09227	0.0705802	0.116169	37.4135	52163.8	68194.1	85857.4	-52.5865	0.0000000E+000	0.0000000E+000	0.0000000E+000	52.5865	0.0000000E+000	0.0000000E+000	0.0000000E+000	-52.5865	0.0000000E+000	0.0000000E+000	0.0000000E+000	-37.4135	0.0000000E+000	0.0000000E+000	0.0000000E+000	37.4135	1.30731	52.5865	9.00613e-06	2.65788e-05	4498.73
100.032	9.64733	6.45127	11.6056	-33.7711	11.2797	0.345795	0.0751214	246.624	76.2064	1	10	0.00452243	0.000389677	0	0.000247838	0.0716263	0.0478972	0.0861653	33.7711	76206.4	113960	137093	-56.2289	0.0000000E+000	0.0000000E+000	0.0000000E+000	56.2289	0.0000000E+000	0.0000000E+000	0.0000000E+000	-56.2289	0.0000000E+000	0.0000000E+000	0.0000000E+000	-33.7711	0.0000000E+000	0.0000000E+000	0.0000000E+000	33.7711	1.49542	56.2289	9.93617e-06	2.59766e-05	4603.15
46.4415	11.6904	6.5221	13.3867	-29.1573	12.2136	0.345789	0.0799246	525.443	124.726	1	10	0.004505	0.000336529	0	0.000265961	0.0652355	0.0363951	0.0747012	29.1573	124726	223562	256001	-60.8427	0.0000000E+000	0.0000000E+000	0.0000000E+000	60.8427	0.0000000E+000	0.0000000E+000	0.0000000E+000	-60.8427	0.0000000E+000	0.0000000E+000	0.0000000E+000	-29.1573	0.0000000E+000	0.0000000E+000	0.0000000E+000	29.1573	1.79242	60.8427	8.97372e-06	2.7637e-05	4326.44
[...]
1.00006	26.3644	2.21127	26.457	-4.79436	21.7513	0.345816	0.0642916	71970	502.752	1	12	0.00500181	0.000189055	0	0.000446994	0.037665	0.00315909	0.0377972	4.79436	502752	5.99419e+06	6.01523e+06	-85.2056	0.0000000E+000	0.0000000E+000	0.0000000E+000	85.2056	0.0000000E+000	0.0000000E+000	0.0000000E+000	-85.2056	0.0000000E+000	0.0000000E+000	0.0000000E+000	-4.79436	0.0000000E+000	0.0000000E+000	0.0000000E+000	4.79436	11.9228	85.2056	5.31812e-05	2.22331e-05	5378.86
0.464091	26.9183	2.05627	26.9967	-4.3683	29.4356	0.345823	0.0573667	166777	967.555	1	12	0.00499798	0.000185133	0	0.000556961	0.0369339	0.00282136	0.0370415	4.3683	967554	1.26661e+07	1.2703e+07	-85.6317	0.0000000E+000	0.0000000E+000	0.0000000E+000	85.6317	0.0000000E+000	0.0000000E+000	0.0000000E+000	-85.6317	0.0000000E+000	0.0000000E+000	0.0000000E+000	-4.3683	0.0000000E+000	0.0000000E+000	0.0000000E+000	4.3683	13.0908	85.6317	6.5258e-05	1.98387e-05	6028.3
0.215268	27.5966	2.48983	27.7086	-5.1554	45.9149	0.345822	0.0447408	296942	2397.62	1	12	0.00500037	0.000180462	0	0.00079736	0.0359438	0.00324294	0.0360898	5.1554	2.39762e+06	2.65745e+07	2.66824e+07	-84.8446	0.0000000E+000	0.0000000E+000	0.0000000E+000	84.8446	0.0000000E+000	0.0000000E+000	0.0000000E+000	-84.8446	0.0000000E+000	0.0000000E+000	0.0000000E+000	-5.1554	0.0000000E+000	0.0000000E+000	0.0000000E+000	5.1554	11.0837	84.8446	0.000142885	1.54724e-05	7729.46
0.0999041	28.8515	4.01424	29.1294	-7.92099	81.322	0.345817	0.0279437	396856	7536.64	1	12	0.00500092	0.00017168	0	0.0011997	0.0340021	0.00473087	0.0343296	7.92099	7.53664e+06	5.41679e+07	5.46897e+07	-82.079	0.0000000E+000	0.0000000E+000	0.0000000E+000	82.079	0.0000000E+000	0.0000000E+000	0.0000000E+000	-82.079	0.0000000E+000	0.0000000E+000	0.0000000E+000	-7.92099	0.0000000E+000	0.0000000E+000	0.0000000E+000	7.92099	7.18727	82.079	0.000217829	9.66341e-06	12375.5
0.0464052	30.1198	5.95313	30.7025	-11.1803	157.557	0.345823	0.0199677	576114	21659.6	1	12	0.0049998	0.000162846	0	0.00166659	0.0319525	0.00631534	0.0325706	11.1803	2.16596e+07	1.09587e+08	1.11707e+08	-78.8197	0.0000000E+000	0.0000000E+000	0.0000000E+000	78.8197	0.0000000E+000	0.0000000E+000	0.0000000E+000	-78.8197	0.0000000E+000	0.0000000E+000	0.0000000E+000	-11.1803	0.0000000E+000	0.0000000E+000	0.0000000E+000	11.1803	5.0595	78.8197	0.000221885	6.9053e-06	17319.1
0.0215268	33.2157	9.64532	34.5878	-16.1925	321.787	0.345829	0.00984254	766521	59609.1	1	12	0.00499748	0.000144487	0	0.0019411	0.027765	0.00806253	0.028912	16.1925	5.96091e+07	2.05276e+08	2.13756e+08	-73.8075	0.0000000E+000	0.0000000E+000	0.0000000E+000	73.8075	0.0000000E+000	0.0000000E+000	0.0000000E+000	-73.8075	0.0000000E+000	0.0000000E+000	0.0000000E+000	-16.1925	0.0000000E+000	0.0000000E+000	0.0000000E+000	16.1925	3.44371	73.8075	8.25319e-05	3.40383e-06	35136.1
0.0100092	37.3115	15.464	40.3892	-22.5118	675.002	0.345825	0.00158616	1.02826e+06	150735	1	12	0.0049996	0.000123786	0	0.00211973	0.0228725	0.00947961	0.0247591	22.5118	1.50735e+08	3.63693e+08	3.93693e+08	-67.4882	0.0000000E+000	0.0000000E+000	0.0000000E+000	67.4882	0.0000000E+000	0.0000000E+000	0.0000000E+000	-67.4882	0.0000000E+000	0.0000000E+000	0.0000000E+000	-22.5118	0.0000000E+000	0.0000000E+000	0.0000000E+000	22.5118	2.41281	67.4882	0.000116741	5.48534e-07	218027

File: 16204_R266_UA637_SOC00_C07.mpt
EC-Lab ASCII FILE
Nb header lines : 63

Potentio Electrochemical Impedance Spectroscopy

Run on channel : 7 (SN 66126)
User :
CE vs. WE compliance from -10 V to 10 V
Electrode connection : standard
Potential control : Ewe
Ewe ctrl range : min = -10.00 V, max = 10.00 V
Safety Limits :
	Do not start on E overload
Acquisition started on : 09/15/2025 10:19:04.385
Loaded Setting File :  C:\Users\Celltest\OneDrive - store-dot.com\Documents\EC-Lab\Data\Charmaine\R279\17382_C01.mpr
Saved on :
	File : 16204 R266 G001- 26 half cell_C07.mpr
	Directory : C:\Users\Celltest\OneDrive - store-dot.com\Documents\EC-Lab\Data\Gyutae\
	Host : 169.254.61.224
Device : VMP-3e (SN .003165)
Address : USB
EC-LAB for windows v11.62 (software)
Internet server v27.00 (firmware)
Command interpretor v12.03 (firmware)
Electrode material :
Initial state :
Electrolyte :
Comments :
Electrode surface area : 0.001 cm²
Characteristic mass : 0.001 g
Equivalent Weight : 0.000 g/eq.
Density : 0.000 g/cm3
Volume (V) : 0.001 cm³
Cycle Definition : Charge/Discharge alternance
Mode                Single sine
E (V)               0.0000
vs.                 Eoc
tE (h:m:s)          0:00:0.0000
record              0
dI                  0.000
unit dI             mA
dt (s)              0.000
fi                  100.000
unit fi             kHz
ff                  10.000
unit ff             mHz
Nd                  6
Points              per decade
spacing             Logarithmic
Va (mV)             5.0
pw                  0.10
Na                  2
corr                0
E range min (V)     -10.000
E range max (V)     10.000
I Range             Auto
Bandwidth           5
nc cycles           0
goto Ns'            0
nr cycles           0
inc. cycle          0

freq/Hz	Re(Z)/Ohm	-Im(Z)/Ohm	|Z|/Ohm	Phase(Z)/deg	time/s	<Ewe>/V	<I>/mA	Cs/µF	Cp/µF	cycle number	I Range	|Ewe|/V	|I|/A	Ns	(Q-Qo)/mA.h	Re(Y)/Ohm-1	Im(Y)/Ohm-1	|Y|/Ohm-1	Phase(Y)/deg	Re(C)/nF	Im(C)/nF	|C|/nF	Phase(C)/deg	Re(M)	Im(M)	|M|	Phase(M)/deg	Re(Permittivity)	Im(Permittivity)	|Permittivity|	Phase(Permittivity)/deg	Re(Resistivity)/Ohm.cm	Im(Resistivity)/Ohm.cm	|Resistivity|/Ohm.cm	Phase(Resistivity)/deg	Re(Conductivity)/mS/cm	Im(Conductivity)/mS/cm	|Conductivity|/mS/cm	Phase(Conductivity)/deg	Tan(Delta)	Loss Angle(Delta)/deg	dq/mA.h	Pwe/W	Rwe/Ohm
100004	0.889822	0.132441	0.899624	-8.46575	1.9175	0.319163	0.0733996	12.0166	0.260438	1	9	0.00219667	0.00244176	0	1.14494e-05	1.09946	0.163644	1.11158	8.46575	260.438	1749.79	1769.06	-81.5342	0.0000000E+000	0.0000000E+000	0.0000000E+000	81.5342	0.0000000E+000	0.0000000E+000	0.0000000E+000	-81.5342	0.0000000E+000	0.0000000E+000	0.0000000E+000	-8.46575	0.0000000E+000	0.0000000E+000	0.0000000E+000	8.46575	6.71863	81.5342	1.14494e-05	2.34264e-05	4348.29
46420.4	0.945948	0.264966	0.982357	-15.6479	3.21449	0.319242	0.0533853	12.9396	0.941378	1	9	0.00504446	0.00513506	0	1.53964e-05	0.980232	0.274569	1.01796	15.6479	941.378	3360.78	3490.14	-74.3521	0.0000000E+000	0.0000000E+000	0.0000000E+000	74.3521	0.0000000E+000	0.0000000E+000	0.0000000E+000	-74.3521	0.0000000E+000	0.0000000E+000	0.0000000E+000	-15.6479	0.0000000E+000	0.0000000E+000	0.0000000E+000	15.6479	3.57007	74.3521	-7.91607e-06	1.70428e-05	5979.95
21544.7	1.08092	0.341481	1.13358	-17.5322	4.23048	0.319254	0.0521751	21.6328	1.96311	1	9	0.00523323	0.00461656	0	3.94386e-05	0.841184	0.265744	0.882162	17.5322	1963.11	6213.99	6516.71	-72.4678	0.0000000E+000	0.0000000E+000	0.0000000E+000	72.4678	0.0000000E+000	0.0000000E+000	0.0000000E+000	-72.4678	0.0000000E+000	0.0000000E+000	0.0000000E+000	-17.5322	0.0000000E+000	0.0000000E+000	0.0000000E+000	17.5322	3.16539	72.4678	1.54529e-05	1.66571e-05	6118.89
10002.2	1.24349	0.443506	1.32021	-19.6294	5.10549	0.31925	0.0465711	35.8776	4.04889	1	9	0.00519442	0.00393454	0	4.97274e-05	0.713434	0.254456	0.757454	19.6294	4048.89	11352.1	12052.6	-70.3706	0.0000000E+000	0.0000000E+000	0.0000000E+000	70.3706	0.0000000E+000	0.0000000E+000	0.0000000E+000	-70.3706	0.0000000E+000	0.0000000E+000	0.0000000E+000	-19.6294	0.0000000E+000	0.0000000E+000	0.0000000E+000	19.6294	2.80377	70.3706	4.69696e-06	1.48678e-05	6855.12
4641.49	1.45882	0.580607	1.57012	-21.7024	5.95469	0.319202	0.0262401	59.0583	8.07572	1	9	0.00509138	0.00324267	0	5.90498e-05	0.59175	0.235515	0.636895	21.7024	8075.72	20290.9	21838.9	-68.2976	0.0000000E+000	0.0000000E+000	0.0000000E+000	68.2976	0.0000000E+000	0.0000000E+000	0.0000000E+000	-68.2976	0.0000000E+000	0.0000000E+000	0.0000000E+000	-21.7024	0.0000000E+000	0.0000000E+000	0.0000000E+000	21.7024	2.51258	68.2976	6.20213e-06	8.37591e-06	12164.6
2155.69	1.70575	0.778038	1.87481	-24.519	6.88869	0.319201	0.0211016	94.8928	16.3426	1	9	0.00489975	0.00261347	0	6.52743e-05	0.485288	0.221353	0.533387	24.519	16342.6	35828.9	39380.1	-65.481	0.0000000E+000	0.0000000E+000	0.0000000E+000	65.481	0.0000000E+000	0.0000000E+000	0.0000000E+000	-65.481	0.0000000E+000	0.0000000E+000	0.0000000E+000	-24.519	0.0000000E+000	0.0000000E+000	0.0000000E+000	24.519	2.19237	65.481	4.84744e-06	6.73564e-06	15126.9
1000.32	1.9924	1.13228	2.29166	-29.6094	7.82468	0.319211	0.02449	140.517	34.303	1	9	0.00479822	0.00209377	0	7.10964e-05	0.379381	0.215601	0.436365	29.6094	34303	60361.1	69427.4	-60.3906	0.0000000E+000	0.0000000E+000	0.0000000E+000	60.3906	0.0000000E+000	0.0000000E+000	0.0000000E+000	-60.3906	0.0000000E+000	0.0000000E+000	0.0000000E+000	-29.6094	0.0000000E+000	0.0000000E+000	0.0000000E+000	29.6094	1.75964	60.3906	1.46749e-06	7.81748e-06	13034.3
463.961	2.39062	1.84376	3.01902	-37.6412	9.01321	0.319241	-0.00923726	186.052	69.3922	1	10	0.00482736	0.00159898	0	7.50996e-05	0.262287	0.202289	0.331233	37.6412	69392.1	89973.8	113625	-52.3588	0.0000000E+000	0.0000000E+000	0.0000000E+000	52.3588	0.0000000E+000	0.0000000E+000	0.0000000E+000	-52.3588	0.0000000E+000	0.0000000E+000	0.0000000E+000	-37.6412	0.0000000E+000	0.0000000E+000	0.0000000E+000	37.6412	1.2966	52.3588	2.74075e-06	-2.94891e-06	34560.2
215.345	3.16325	3.16399	4.47404	-45.0067	9.94745	0.319234	-0.0101177	233.588	116.821	1	10	0.00476719	0.00106552	0	7.13365e-05	0.158028	0.158065	0.223512	45.0067	116821	116794	165191	-44.9933	0.0000000E+000	0.0000000E+000	0.0000000E+000	44.9933	0.0000000E+000	0.0000000E+000	0.0000000E+000	-44.9933	0.0000000E+000	0.0000000E+000	0.0000000E+000	-45.0067	0.0000000E+000	0.0000000E+000	0.0000000E+000	45.0067	0.999768	44.9933	-1.78976e-06	-3.22991e-06	31552
100.032	4.94067	5.2041	7.17585	-46.4875	10.8787	0.319233	-0.0102368	305.728	160.798	1	10	0.00473529	0.000659892	0	7.00772e-05	0.0959487	0.101064	0.139356	46.4875	160798	152658	221721	-43.5125	0.0000000E+000	0.0000000E+000	0.0000000E+000	43.5125	0.0000000E+000	0.0000000E+000	0.0000000E+000	-43.5125	0.0000000E+000	0.0000000E+000	0.0000000E+000	-46.4875	0.0000000E+000	0.0000000E+000	0.0000000E+000	46.4875	0.949381	43.5125	-4.29303e-07	-3.26794e-06	31184.7
46.4415	8.57782	7.21733	11.2102	-40.0771	11.8126	0.319241	-0.0130103	474.828	196.817	1	10	0.00472893	0.000421841	0	6.85567e-05	0.0682573	0.0574314	0.0892044	40.0771	196817	233917	305703	-49.9229	0.0000000E+000	0.0000000E+000	0.0000000E+000	49.9229	0.0000000E+000	0.0000000E+000	0.0000000E+000	-49.9229	0.0000000E+000	0.0000000E+000	0.0000000E+000	-40.0771	0.0000000E+000	0.0000000E+000	0.0000000E+000	40.0771	1.1885	49.9229	-1.10551e-06	-4.15342e-06	24537.6
[...]
1.00006	22.1421	1.95547	22.2283	-5.04694	21.1352	0.319278	-0.00041957	81384.6	629.839	1	12	0.00473054	0.000212816	0	6.38587e-05	0.0448132	0.00395765	0.0449877	5.04694	629838	7.13179e+06	7.15955e+06	-84.9531	0.0000000E+000	0.0000000E+000	0.0000000E+000	84.9531	0.0000000E+000	0.0000000E+000	0.0000000E+000	-84.9531	0.0000000E+000	0.0000000E+000	0.0000000E+000	-5.04694	0.0000000E+000	0.0000000E+000	0.0000000E+000	5.04694	11.3232	84.9531	4.03484e-06	-1.33959e-07	760965
0.464091	22.8878	1.58714	22.9428	-3.96678	28.8199	0.319278	-0.000205767	216074	1034.04	1	12	0.00473228	0.000206264	0	8.29599e-05	0.0434822	0.00301524	0.0435866	3.96678	1.03405e+06	1.49118e+07	1.49476e+07	-86.0332	0.0000000E+000	0.0000000E+000	0.0000000E+000	86.0332	0.0000000E+000	0.0000000E+000	0.0000000E+000	-86.0332	0.0000000E+000	0.0000000E+000	0.0000000E+000	-3.96678	0.0000000E+000	0.0000000E+000	0.0000000E+000	3.96678	14.4208	86.0332	9.70096e-06	-6.5697e-08	1.55165e+06
0.215268	23.6645	1.66233	23.7228	-4.0182	45.3	0.319289	0.00111218	444757	2183.87	1	12	0.00472976	0.000199376	0	7.10405e-05	0.0420499	0.00295384	0.0421536	4.0182	2.18387e+06	3.1089e+07	3.11656e+07	-85.9818	0.0000000E+000	0.0000000E+000	0.0000000E+000	85.9818	0.0000000E+000	0.0000000E+000	0.0000000E+000	-85.9818	0.0000000E+000	0.0000000E+000	0.0000000E+000	-4.0182	0.0000000E+000	0.0000000E+000	0.0000000E+000	4.0182	14.2357	85.9818	-1.37496e-05	3.55106e-07	287085
0.0999041	24.7348	2.15879	24.8288	-4.98798	80.7066	0.319292	0.000166687	737950	5578.71	1	12	0.00473261	0.000190609	0	-9.05564e-06	0.0401232	0.00350185	0.0402758	4.98798	5.57872e+06	6.39194e+07	6.41624e+07	-85.012	0.0000000E+000	0.0000000E+000	0.0000000E+000	85.012	0.0000000E+000	0.0000000E+000	0.0000000E+000	-85.012	0.0000000E+000	0.0000000E+000	0.0000000E+000	-4.98798	0.0000000E+000	0.0000000E+000	0.0000000E+000	4.98798	11.4577	85.012	-4.71185e-05	5.32218e-08	1.91552e+06
0.0464052	26.2402	3.36602	26.4552	-7.30982	156.942	0.319292	-0.00170271	1.01891e+06	16494.8	1	12	0.00473534	0.000178995	0	-5.9344e-05	0.0374925	0.00480943	0.0377997	7.30982	1.64948e+07	1.28587e+08	1.29641e+08	-82.6902	0.0000000E+000	0.0000000E+000	0.0000000E+000	82.6902	0.0000000E+000	0.0000000E+000	0.0000000E+000	-82.6902	0.0000000E+000	0.0000000E+000	0.0000000E+000	-7.30982	0.0000000E+000	0.0000000E+000	0.0000000E+000	7.30982	7.79562	82.6902	-6.0847e-06	-5.43662e-07	187520
0.0215268	28.0451	5.47387	28.5743	-11.0442	321.173	0.319296	-0.000804001	1.35066e+06	49565.9	1	12	0.00473457	0.000165693	0	0.000205623	0.0343483	0.00670412	0.0349964	11.0442	4.95659e+07	2.53949e+08	2.58741e+08	-78.9558	0.0000000E+000	0.0000000E+000	0.0000000E+000	78.9558	0.0000000E+000	0.0000000E+000	0.0000000E+000	-78.9558	0.0000000E+000	0.0000000E+000	0.0000000E+000	-11.0442	0.0000000E+000	0.0000000E+000	0.0000000E+000	11.0442	5.12346	78.9558	0.000187949	-2.56714e-07	397134
0.0100092	30.4883	9.45519	31.9208	-17.23	674.39	0.319291	0.00102491	1.68171e+06	147552	1	12	0.00473207	0.000148244	0	0.000659494	0.0299217	0.00927947	0.0313275	17.23	1.47552e+08	4.75782e+08	4.98136e+08	-72.77	0.0000000E+000	0.0000000E+000	0.0000000E+000	72.77	0.0000000E+000	0.0000000E+000	0.0000000E+000	-72.77	0.0000000E+000	0.0000000E+000	0.0000000E+000	-17.23	0.0000000E+000	0.0000000E+000	0.0000000E+000	17.23	3.2245	72.77	0.000195882	3.27244e-07	311531