Folder: EIS/txt (part 185)

File: 19364_R311_UC99_SOC50_C03.mpt
EC-Lab ASCII FILE
Nb header lines : 65

Potentio Electrochemical Impedance Spectroscopy

Run on channel : 3 (SN 65921)
User :
CE vs. WE compliance from -10 V to 10 V
Electrode connection : standard
Potential control : Ewe
Ewe ctrl range : min = -10.00 V, max = 10.00 V
Safety Limits :
	Do not start on E overload
Acquisition started on : 11/19/2025 16:14:41.664
Technique started on : 11/19/2025 16:14:43.899
Loaded Setting File :  C:\Users\Celltest\OneDrive - store-dot.com\Documents\EC-Lab\Data\txt_done\19191_R297_UC94_SOC50_C08.mpr
Saved on :
	File : 19364_R311_UC99_SOC50_C03.mpr
	Directory : C:\Users\Celltest\OneDrive - store-dot.com\Documents\EC-Lab\Data\Gyutae\
	Host : 169.254.61.224
Device : VMP-3e (SN .003165)
Address : USB
EC-LAB for windows v11.62 (software)
Internet server v27.00 (firmware)
Command interpretor v12.03 (firmware)
Electrode material :
Initial state :
Electrolyte :
Comments :
Electrode surface area : 0.001 cm²
Characteristic mass : 0.001 g
Equivalent Weight : 0.000 g/eq.
Density : 0.000 g/cm3
Volume (V) : 0.001 cm³
Record Ece
Cycle Definition : Charge/Discharge alternance
Mode                Multi sine
E (V)               0.0000
vs.                 Eoc
tE (h:m:s)          0:00:0.0000
record              0
dI                  0.000
unit dI             mA
dt (s)              0.000
fi                  1.000
unit fi             MHz
ff                  0.100
unit ff             mHz
Nd                  10
Points              per decade
spacing             Logarithmic
Va (mV)             5.0
pw                  0.10
Na                  2
corr                0
E range min (V)     -10.000
E range max (V)     10.000
I Range             Auto
Bandwidth           5
nc cycles           0
goto Ns'            0
nr cycles           0
inc. cycle          0

freq/Hz	Re(Z)/Ohm	-Im(Z)/Ohm	|Z|/Ohm	Phase(Z)/deg	time/s	<Ewe>/V	<I>/mA	Cs/µF	Cp/µF	cycle number	I Range	|Ewe|/V	|I|/A	Ns	(Q-Qo)/mA.h	<Ece>/V	|Ece|/V	Phase(Zce)/deg	|Zce|/Ohm	Re(Zce)/Ohm	-Im(Zce)/Ohm	Phase(Zwe-ce)/deg	|Zwe-ce|/Ohm	Re(Zwe-ce)/Ohm	-Im(Zwe-ce)/Ohm	Re(Y)/Ohm-1	Im(Y)/Ohm-1	|Y|/Ohm-1	Phase(Y)/deg	Re(C)/nF	Im(C)/nF	|C|/nF	Phase(C)/deg	Re(M)	Im(M)	|M|	Phase(M)/deg	Re(Permittivity)	Im(Permittivity)	|Permittivity|	Phase(Permittivity)/deg	Re(Resistivity)/Ohm.cm	Im(Resistivity)/Ohm.cm	|Resistivity|/Ohm.cm	Phase(Resistivity)/deg	Re(Conductivity)/mS/cm	Im(Conductivity)/mS/cm	|Conductivity|/mS/cm	Phase(Conductivity)/deg	Tan(Delta)	Loss Angle(Delta)/deg	dq/mA.h	Pwe/W	Pce/W	Pwe-ce/W	<Ewe-Ece>/V	Rwe/Ohm	Rce/Ohm	Rwe-ce/Ohm		Ewe-Ece/V
1.00002e+06	2.46899	2.84933	3.77023	-49.0905	2.23454	3.89965	-0.0147894	0.0558559	0.0319021	1	10	0.00022113	5.86515e-05	0	-1.08956e-05	-0.000188635	0.000197903	-65.6084	3.37421	1.39345	3.07304	-56.8885	7.07057	3.86245	5.92237	0.173694	0.200451	0.265236	49.0905	31.9021	27.6437	42.2128	-40.9095	0.0000000E+000	0.0000000E+000	0.0000000E+000	40.9095	0.0000000E+000	0.0000000E+000	0.0000000E+000	-40.9095	0.0000000E+000	0.0000000E+000	0.0000000E+000	-49.0905	0.0000000E+000	0.0000000E+000	0.0000000E+000	49.0905	0.866516	40.9095	-1.08956e-05	-5.76734e-05	2.7898e-09	-5.76762e-05	3.89984	263679	12.7548	263691
251206	1.38159	0.237905	1.40192	-9.77031	4.93655	3.89924	0.00972721	2.6631	0.076691	1	9	0.00294684	0.002102	0	-3.07246e-06	7.86817e-05	5.52851e-05	97.0731	0.0263012	-0.0032386	-0.0261011	-8.73599	1.39453	1.37835	0.211804	0.70296	0.121047	0.713306	9.77031	76.691	445.37	451.924	-80.2297	0.0000000E+000	0.0000000E+000	0.0000000E+000	80.2297	0.0000000E+000	0.0000000E+000	0.0000000E+000	-80.2297	0.0000000E+000	0.0000000E+000	0.0000000E+000	-9.77031	0.0000000E+000	0.0000000E+000	0.0000000E+000	9.77031	5.80732	80.2297	2.08926e-06	3.79287e-05	7.65353e-10	3.79279e-05	3.89916	400859	8.08883	400851
63093.8	1.76796	0.583152	1.86165	-18.2548	7.11256	3.89919	0.0139414	4.32565	0.424441	1	9	0.00525206	0.00282118	0	2.49612e-05	-7.40708e-05	2.222e-05	56.6301	0.00787611	0.0043322	-0.00657763	-18.0211	1.86372	1.77229	0.576574	0.510123	0.168261	0.537157	18.2548	424.441	1286.79	1354.99	-71.7452	0.0000000E+000	0.0000000E+000	0.0000000E+000	71.7452	0.0000000E+000	0.0000000E+000	0.0000000E+000	-71.7452	0.0000000E+000	0.0000000E+000	0.0000000E+000	-18.2548	0.0000000E+000	0.0000000E+000	0.0000000E+000	18.2548	3.03173	71.7452	1.14844e-06	5.43602e-05	-1.03265e-09	5.43613e-05	3.89927	279684	5.31301	279689
15847.7	2.3684	0.939525	2.54794	-21.6379	9.41255	3.89919	0.000739454	10.6892	1.45339	1	9	0.00522618	0.00205114	0	3.66514e-05	0.000174152	8.64203e-06	28.215	0.00421328	0.00371266	-0.00199197	-21.5655	2.55066	2.37211	0.937533	0.364817	0.14472	0.392474	21.6379	1453.39	3663.78	3941.53	-68.3622	0.0000000E+000	0.0000000E+000	0.0000000E+000	68.3622	0.0000000E+000	0.0000000E+000	0.0000000E+000	-68.3622	0.0000000E+000	0.0000000E+000	0.0000000E+000	-21.6379	0.0000000E+000	0.0000000E+000	0.0000000E+000	21.6379	2.52084	68.3622	5.03104e-07	2.88328e-06	1.28777e-10	2.88315e-06	3.89902	5.27307e+06	235.514	5.27283e+06
3983.6	3.27022	1.52105	3.60665	-24.9441	11.652	3.89918	0.00514007	26.2665	4.67175	1	9	0.00509962	0.00141395	0	4.0144e-05	2.30547e-06	6.97862e-06	19.8026	0.00493554	0.00464368	-0.00167207	-24.889	3.61015	3.27486	1.51937	0.251402	0.116933	0.277266	24.9441	4671.75	10044.2	11077.5	-65.0559	0.0000000E+000	0.0000000E+000	0.0000000E+000	65.0559	0.0000000E+000	0.0000000E+000	0.0000000E+000	-65.0559	0.0000000E+000	0.0000000E+000	0.0000000E+000	-24.9441	0.0000000E+000	0.0000000E+000	0.0000000E+000	24.9441	2.14998	65.0559	3.35097e-06	2.0042e-05	1.18503e-11	2.0042e-05	3.89918	758585	0.448529	758585
1000.32	4.70364	2.75238	5.44975	-30.3345	14.4888	3.89918	-0.0427112	57.8059	14.7447	1	10	0.00496521	0.000911089	0	8.31097e-06	-0.0003032	5.66743e-06	104.514	0.00622049	-0.00155896	-0.00602198	-30.2881	5.44537	4.70208	2.74636	0.158373	0.0926734	0.183494	30.3345	14744.7	25197.7	29194.7	-59.6655	0.0000000E+000	0.0000000E+000	0.0000000E+000	59.6655	0.0000000E+000	0.0000000E+000	0.0000000E+000	-59.6655	0.0000000E+000	0.0000000E+000	0.0000000E+000	-30.3345	0.0000000E+000	0.0000000E+000	0.0000000E+000	30.3345	1.70893	59.6655	-4.83176e-06	-0.000166539	1.295e-08	-0.000166552	3.89949	91291.7	7.09882	91298.8
251.044	7.61167	5.44498	9.35871	-35.5779	17.19	3.89918	-0.0445309	116.432	39.4126	1	10	0.00475963	0.000508578	0	-2.2874e-05	-0.000226823	1.28842e-05	104.668	0.0253337	-0.00641487	-0.0245081	-35.4785	9.33924	7.60526	5.42047	0.0869057	0.0621677	0.106852	35.5779	39412.6	55095.8	67741.4	-54.4221	0.0000000E+000	0.0000000E+000	0.0000000E+000	54.4221	0.0000000E+000	0.0000000E+000	0.0000000E+000	-54.4221	0.0000000E+000	0.0000000E+000	0.0000000E+000	-35.5779	0.0000000E+000	0.0000000E+000	0.0000000E+000	35.5779	1.39792	54.4221	-5.31061e-06	-0.000173634	1.01007e-08	-0.000173644	3.8994	87561	5.09361	87566.1
[...]
0.0602816	27.8294	3.54395	28.0542	-7.25729	240.552	3.89918	-0.0703315	744985	11888.5	1	11	0.00505765	0.000180282	0	-0.00503077	2.13995e-05	2.10987e-07	-95.3242	0.00117032	-0.000108595	0.00116527	-7.25968	28.0542	27.8293	3.54512	0.0353597	0.0045029	0.0356453	7.25729	1.18885e+07	9.33564e+07	9.41104e+07	-82.7427	0.0000000E+000	0.0000000E+000	0.0000000E+000	82.7427	0.0000000E+000	0.0000000E+000	0.0000000E+000	-82.7427	0.0000000E+000	0.0000000E+000	0.0000000E+000	-7.25729	0.0000000E+000	0.0000000E+000	0.0000000E+000	7.25729	7.85266	82.7427	0.000000000000000E+000	-0.000274235	-1.50506e-09	-0.000274233	3.89915	55440	0.304267	55439.7
0.00796479	31.0186	8.10809	32.0608	-14.6491	20329.4	3.89917	-0.00161728	2.46449e+06	157622	1	11	0.0050527	0.000157598	0	-0.045419	2.13995e-05	7.77837e-07	1.26865	0.00493558	0.00493437	-0.000109275	-14.6466	32.0655	31.0235	8.10798	0.0301769	0.00788808	0.0311908	14.6491	1.57622e+08	6.03004e+08	6.23264e+08	-75.3509	0.0000000E+000	0.0000000E+000	0.0000000E+000	75.3509	0.0000000E+000	0.0000000E+000	0.0000000E+000	-75.3509	0.0000000E+000	0.0000000E+000	0.0000000E+000	-14.6491	0.0000000E+000	0.0000000E+000	0.0000000E+000	14.6491	3.82563	75.3509	-0.0403882	-6.30604e-06	-3.46089e-11	-6.30601e-06	3.89915	2.41095e+06	13.2318	2.41094e+06
0.0019912	38.6126	11.6199	40.3231	-16.7484	20329.4	3.89917	-0.00161728	6.87867e+06	571214	1	11	0.00506569	0.000125627	0	-0.045419	2.13995e-05	2.90373e-07	22.9282	0.00231139	0.00212877	-0.000900463	-16.7463	40.3249	38.6147	11.619	0.0237476	0.00714649	0.0247997	16.7484	5.71214e+08	1.89813e+09	1.98222e+09	-73.2516	0.0000000E+000	0.0000000E+000	0.0000000E+000	73.2516	0.0000000E+000	0.0000000E+000	0.0000000E+000	-73.2516	0.0000000E+000	0.0000000E+000	0.0000000E+000	-16.7484	0.0000000E+000	0.0000000E+000	0.0000000E+000	16.7484	3.32298	73.2516	0.000000000000000E+000	-6.30604e-06	-3.46089e-11	-6.30601e-06	3.89915	2.41095e+06	13.2318	2.41094e+06
0.000497799	41.7191	19.4715	46.0393	-25.0198	20329.4	3.89917	-0.00161728	1.64198e+07	2.93702e+06	1	11	0.00506618	0.00011004	0	-0.045419	2.13995e-05	1.33716e-06	-98.9487	0.0121516	-0.00189018	0.0120037	-25.0343	46.0427	41.7172	19.4835	0.0196823	0.00918629	0.0217206	25.0198	2.93702e+09	6.29278e+09	6.94444e+09	-64.9802	0.0000000E+000	0.0000000E+000	0.0000000E+000	64.9802	0.0000000E+000	0.0000000E+000	0.0000000E+000	-64.9802	0.0000000E+000	0.0000000E+000	0.0000000E+000	-25.0198	0.0000000E+000	0.0000000E+000	0.0000000E+000	25.0198	2.14258	64.9802	0.000000000000000E+000	-6.30604e-06	-3.46089e-11	-6.30601e-06	3.89915	2.41095e+06	13.2318	2.41094e+06
9.95598e-05	55.0674	112.19	124.976	-63.8563	20329.4	3.89917	-0.00161728	1.42489e+07	1.14825e+07	1	11	0.00506702	4.0544e-05	0	-0.045419	2.13995e-05	1.65932e-06	107.212	0.0409264	-0.0121107	-0.0390935	-63.8534	124.935	55.0553	112.151	0.00352567	0.00718292	0.00800154	63.8563	1.14825e+10	5.63609e+09	1.27912e+10	-26.1437	0.0000000E+000	0.0000000E+000	0.0000000E+000	26.1437	0.0000000E+000	0.0000000E+000	0.0000000E+000	-26.1437	0.0000000E+000	0.0000000E+000	0.0000000E+000	-63.8563	0.0000000E+000	0.0000000E+000	0.0000000E+000	63.8563	0.490841	26.1437	0.000000000000000E+000	-6.30604e-06	-3.46089e-11	-6.30601e-06	3.89915	2.41095e+06	13.2318	2.41094e+06

File: 19365_R311_UC99_SOC50_C04.mpt
EC-Lab ASCII FILE
Nb header lines : 65

Potentio Electrochemical Impedance Spectroscopy

Run on channel : 4 (SN 66756)
User :
CE vs. WE compliance from -10 V to 10 V
Electrode connection : standard
Potential control : Ewe
Ewe ctrl range : min = -10.00 V, max = 10.00 V
Safety Limits :
	Do not start on E overload
Acquisition started on : 11/19/2025 16:14:50.567
Technique started on : 11/19/2025 16:14:52.801
Loaded Setting File :  C:\Users\Celltest\OneDrive - store-dot.com\Documents\EC-Lab\Data\txt_done\19191_R297_UC94_SOC50_C08.mpr
Saved on :
	File : 19365_R311_UC99_SOC50_C04.mpr
	Directory : C:\Users\Celltest\OneDrive - store-dot.com\Documents\EC-Lab\Data\Gyutae\
	Host : 169.254.61.224
Device : VMP-3e (SN .003165)
Address : USB
EC-LAB for windows v11.62 (software)
Internet server v27.00 (firmware)
Command interpretor v12.03 (firmware)
Electrode material :
Initial state :
Electrolyte :
Comments :
Electrode surface area : 0.001 cm²
Characteristic mass : 0.001 g
Equivalent Weight : 0.000 g/eq.
Density : 0.000 g/cm3
Volume (V) : 0.001 cm³
Record Ece
Cycle Definition : Charge/Discharge alternance
Mode                Multi sine
E (V)               0.0000
vs.                 Eoc
tE (h:m:s)          0:00:0.0000
record              0
dI                  0.000
unit dI             mA
dt (s)              0.000
fi                  1.000
unit fi             MHz
ff                  0.100
unit ff             mHz
Nd                  10
Points              per decade
spacing             Logarithmic
Va (mV)             5.0
pw                  0.10
Na                  2
corr                0
E range min (V)     -10.000
E range max (V)     10.000
I Range             Auto
Bandwidth           5
nc cycles           0
goto Ns'            0
nr cycles           0
inc. cycle          0

freq/Hz	Re(Z)/Ohm	-Im(Z)/Ohm	|Z|/Ohm	Phase(Z)/deg	time/s	<Ewe>/V	<I>/mA	Cs/µF	Cp/µF	cycle number	I Range	|Ewe|/V	|I|/A	Ns	(Q-Qo)/mA.h	<Ece>/V	|Ece|/V	Phase(Zce)/deg	|Zce|/Ohm	Re(Zce)/Ohm	-Im(Zce)/Ohm	Phase(Zwe-ce)/deg	|Zwe-ce|/Ohm	Re(Zwe-ce)/Ohm	-Im(Zwe-ce)/Ohm	Re(Y)/Ohm-1	Im(Y)/Ohm-1	|Y|/Ohm-1	Phase(Y)/deg	Re(C)/nF	Im(C)/nF	|C|/nF	Phase(C)/deg	Re(M)	Im(M)	|M|	Phase(M)/deg	Re(Permittivity)	Im(Permittivity)	|Permittivity|	Phase(Permittivity)/deg	Re(Resistivity)/Ohm.cm	Im(Resistivity)/Ohm.cm	|Resistivity|/Ohm.cm	Phase(Resistivity)/deg	Re(Conductivity)/mS/cm	Im(Conductivity)/mS/cm	|Conductivity|/mS/cm	Phase(Conductivity)/deg	Tan(Delta)	Loss Angle(Delta)/deg	dq/mA.h	Pwe/W	Pce/W	Pwe-ce/W	<Ewe-Ece>/V	Rwe/Ohm	Rce/Ohm	Rwe-ce/Ohm		Ewe-Ece/V
1.00002e+06	4.17415	1.39344	4.40059	-18.4603	2.23354	3.90055	0.0235202	0.114215	0.0114519	1	10	0.000271168	6.16209e-05	0	3.91378e-06	1.33066e-05	0.000188226	-66.5744	3.05459	1.21437	2.80282	-37.9093	6.82969	5.38852	4.19626	0.215549	0.0719559	0.227242	18.4603	11.4519	34.3051	36.1661	-71.5397	0.0000000E+000	0.0000000E+000	0.0000000E+000	71.5397	0.0000000E+000	0.0000000E+000	0.0000000E+000	-71.5397	0.0000000E+000	0.0000000E+000	0.0000000E+000	-18.4603	0.0000000E+000	0.0000000E+000	0.0000000E+000	18.4603	2.99557	71.5397	3.91378e-06	9.17417e-05	3.12974e-10	9.17414e-05	3.90053	165838	0.565751	165837
251206	1.58096	0.21107	1.59499	-7.60443	5.05852	3.89918	-0.0400426	3.00167	0.0525654	1	9	0.00388324	0.00243465	0	-1.87728e-05	-0.000464442	4.34022e-05	72.143	0.0178269	0.00546648	-0.0169681	-6.97555	1.59826	1.58643	0.194102	0.621449	0.0829679	0.626963	7.60443	52.5654	393.727	397.22	-82.3956	0.0000000E+000	0.0000000E+000	0.0000000E+000	82.3956	0.0000000E+000	0.0000000E+000	0.0000000E+000	-82.3956	0.0000000E+000	0.0000000E+000	0.0000000E+000	-7.60443	0.0000000E+000	0.0000000E+000	0.0000000E+000	7.60443	7.49023	82.3956	-3.90023e-06	-0.000156133	1.85975e-08	-0.000156152	3.89965	97375.8	11.5987	97387.4
63093.8	1.93691	0.642872	2.04081	-18.3613	7.35652	3.8991	-0.036835	3.92382	0.38936	1	9	0.0052914	0.00259279	0	-4.9436e-05	-0.000235123	1.41529e-05	53.1811	0.00545857	0.00327125	-0.00436977	-18.216	2.04255	1.94018	0.638502	0.465055	0.154354	0.490001	18.3613	389.36	1173.11	1236.03	-71.6387	0.0000000E+000	0.0000000E+000	0.0000000E+000	71.6387	0.0000000E+000	0.0000000E+000	0.0000000E+000	-71.6387	0.0000000E+000	0.0000000E+000	0.0000000E+000	-18.3613	0.0000000E+000	0.0000000E+000	0.0000000E+000	18.3613	3.01291	71.6387	-9.11743e-06	-0.000143623	8.66076e-09	-0.000143632	3.89933	105853	6.38313	105859
15847.7	2.64104	1.16219	2.88544	-23.7519	9.65455	3.89908	-0.042467	8.64126	1.40187	1	9	0.00510047	0.00176766	0	-7.20907e-05	-0.000216013	4.28655e-06	-110.289	0.00242499	-0.000840864	0.00227454	-23.8	2.88559	2.6402	1.16446	0.317213	0.13959	0.346568	23.7519	1401.87	3185.7	3480.5	-66.2481	0.0000000E+000	0.0000000E+000	0.0000000E+000	66.2481	0.0000000E+000	0.0000000E+000	0.0000000E+000	-66.2481	0.0000000E+000	0.0000000E+000	0.0000000E+000	-23.7519	0.0000000E+000	0.0000000E+000	0.0000000E+000	23.7519	2.27247	66.2481	-4.11331e-06	-0.000165582	9.17341e-09	-0.000165591	3.8993	91814.5	5.08661	91819.6
3983.6	3.78234	1.9638	4.26176	-27.4385	11.6591	3.89907	-0.027087	20.3445	4.31981	1	10	0.0050424	0.00118317	0	-8.83947e-05	-0.000216013	9.5442e-06	-54.8283	0.0080666	0.0046466	0.00659388	-27.4883	4.26892	3.78698	1.9704	0.208249	0.108124	0.234645	27.4385	4319.81	8320.06	9374.66	-62.5615	0.0000000E+000	0.0000000E+000	0.0000000E+000	62.5615	0.0000000E+000	0.0000000E+000	0.0000000E+000	-62.5615	0.0000000E+000	0.0000000E+000	0.0000000E+000	-27.4385	0.0000000E+000	0.0000000E+000	0.0000000E+000	27.4385	1.92603	62.5615	-8.97088e-07	-0.000105614	5.85115e-09	-0.00010562	3.89929	143946	7.97477	143954
1000.32	5.65559	3.58093	6.69394	-32.3406	14.2878	3.89903	-0.018019	44.4309	12.7149	1	10	0.00473333	0.000707107	0	-0.000100992	-6.31332e-05	1.74065e-06	-50.7453	0.00246165	0.00155765	0.00190615	-32.3472	6.69627	5.65715	3.58283	0.126216	0.0799158	0.149389	32.3406	12714.9	20081.5	23768.4	-57.6594	0.0000000E+000	0.0000000E+000	0.0000000E+000	57.6594	0.0000000E+000	0.0000000E+000	0.0000000E+000	-57.6594	0.0000000E+000	0.0000000E+000	0.0000000E+000	-32.3406	0.0000000E+000	0.0000000E+000	0.0000000E+000	32.3406	1.57936	57.6594	-2.71661e-06	-7.02566e-05	1.1376e-09	-7.02577e-05	3.89909	216384	3.5037	216388
251.044	9.38797	7.03934	11.734	-36.8635	16.9881	3.89902	-0.0222378	90.0611	32.4124	1	10	0.00463235	0.000394781	0	-0.000113808	0.000127966	9.99438e-06	-0.591737	0.0253163	0.0253149	0.000261456	-36.7905	11.7544	9.41328	7.03961	0.0681837	0.0511259	0.0852226	36.8635	32412.4	43226.5	54028.7	-53.1365	0.0000000E+000	0.0000000E+000	0.0000000E+000	53.1365	0.0000000E+000	0.0000000E+000	0.0000000E+000	-53.1365	0.0000000E+000	0.0000000E+000	0.0000000E+000	-36.8635	0.0000000E+000	0.0000000E+000	0.0000000E+000	36.8635	1.33364	53.1365	-2.57922e-06	-8.67058e-05	-2.84569e-09	-8.6703e-05	3.89889	175333	5.75444	175327
[...]
0.0602816	37.1575	3.84802	37.3563	-5.91245	241.264	3.89903	-0.00647177	686117	7280.24	1	11	0.00508393	0.000136093	0	-0.00113971	-4.40233e-05	5.3283e-07	4.63621	0.00391519	0.00390238	-0.00031646	-5.91135	37.3601	37.1614	3.8477	0.0266269	0.00275747	0.0267693	5.91245	7.28023e+06	7.03e+07	7.0676e+07	-84.0876	0.0000000E+000	0.0000000E+000	0.0000000E+000	84.0876	0.0000000E+000	0.0000000E+000	0.0000000E+000	-84.0876	0.0000000E+000	0.0000000E+000	0.0000000E+000	-5.91245	0.0000000E+000	0.0000000E+000	0.0000000E+000	5.91245	9.65628	84.0876	0.000000000000000E+000	-2.52336e-05	2.84908e-10	-2.52339e-05	3.89907	602467	6.80235	602474
0.00796479	36.5094	9.77229	37.7946	-14.9848	20330.2	3.89904	-0.00169201	2.04479e+06	136704	1	11	0.00507488	0.000134275	0	-0.0175383	0.000127966	2.45271e-07	-34.1978	0.00182663	0.00151081	0.00102666	-14.9857	37.7963	36.5109	9.77332	0.0255591	0.00684127	0.0264588	14.9848	1.36704e+08	5.10729e+08	5.28708e+08	-75.0152	0.0000000E+000	0.0000000E+000	0.0000000E+000	75.0152	0.0000000E+000	0.0000000E+000	0.0000000E+000	-75.0152	0.0000000E+000	0.0000000E+000	0.0000000E+000	-14.9848	0.0000000E+000	0.0000000E+000	0.0000000E+000	14.9848	3.73601	75.0152	-0.0163986	-6.59721e-06	-2.1652e-10	-6.59699e-06	3.89891	2.30438e+06	75.6298	2.30431e+06
0.0019912	45.9371	14.4384	48.1527	-17.4484	20330.2	3.89904	-0.00169201	5.53587e+06	497719	1	11	0.00508988	0.000105703	0	-0.0175383	0.000127966	2.95996e-07	6.32499	0.00280027	0.00278322	-0.000308499	-17.447	48.1553	45.9399	14.4381	0.0198117	0.00622699	0.0207673	17.4484	4.97719e+08	1.58354e+09	1.65991e+09	-72.5516	0.0000000E+000	0.0000000E+000	0.0000000E+000	72.5516	0.0000000E+000	0.0000000E+000	0.0000000E+000	-72.5516	0.0000000E+000	0.0000000E+000	0.0000000E+000	-17.4484	0.0000000E+000	0.0000000E+000	0.0000000E+000	17.4484	3.18159	72.5516	0.000000000000000E+000	-6.59721e-06	-2.1652e-10	-6.59699e-06	3.89891	2.30438e+06	75.6298	2.30431e+06
0.000497799	48.6722	23.086	53.8697	-25.3757	20330.2	3.89904	-0.00169201	1.3849e+07	2.54346e+06	1	11	0.00508997	9.44867e-05	0	-0.0175383	0.000127966	2.12544e-06	-61.4911	0.0224946	0.0107366	0.019767	-25.3898	53.8878	48.6829	23.1057	0.0167723	0.00795535	0.0185633	25.3757	2.54346e+09	5.36239e+09	5.93501e+09	-64.6243	0.0000000E+000	0.0000000E+000	0.0000000E+000	64.6243	0.0000000E+000	0.0000000E+000	0.0000000E+000	-64.6243	0.0000000E+000	0.0000000E+000	0.0000000E+000	-25.3757	0.0000000E+000	0.0000000E+000	0.0000000E+000	25.3757	2.1083	64.6243	0.000000000000000E+000	-6.59721e-06	-2.1652e-10	-6.59699e-06	3.89891	2.30438e+06	75.6298	2.30431e+06
9.95598e-05	68.1708	113.037	132.003	-58.9066	20330.2	3.89904	-0.00169201	1.41421e+07	1.03703e+07	1	11	0.00508809	3.85454e-05	0	-0.0175383	0.000127966	4.76346e-06	-39.631	0.123581	0.0951778	0.0788247	-58.8889	132.119	68.2659	113.116	0.00391231	0.00648719	0.00757561	58.9066	1.03703e+10	6.25416e+09	1.21103e+10	-31.0934	0.0000000E+000	0.0000000E+000	0.0000000E+000	31.0934	0.0000000E+000	0.0000000E+000	0.0000000E+000	-31.0934	0.0000000E+000	0.0000000E+000	0.0000000E+000	-58.9066	0.0000000E+000	0.0000000E+000	0.0000000E+000	58.9066	0.603082	31.0934	0.000000000000000E+000	-6.59721e-06	-2.1652e-10	-6.59699e-06	3.89891	2.30438e+06	75.6298	2.30431e+06