Folder: EIS/txt (part 169)

File: 19149_R306_UA711_SOC00_C05.mpt
EC-Lab ASCII FILE
Nb header lines : 65

Potentio Electrochemical Impedance Spectroscopy

Run on channel : 5 (SN 65912)
Grouped channel(s) : 3, 4, 5, 6, 7
User :
CE vs. WE compliance from -10 V to 10 V
Electrode connection : standard
Potential control : Ewe
Ewe ctrl range : min = -10.00 V, max = 10.00 V
Safety Limits :
	Do not start on E overload
Acquisition started on : 11/12/2025 11:40:22.150
Loaded Setting File :  C:\Users\Celltest\OneDrive - store-dot.com\Documents\EC-Lab\Data\@Biologic Test Protocols\anode half cell EIS SOC00.mps
Saved on :
	File : 19147_R306_UA711_SOC00_C05.mpr
	Directory : C:\Users\Celltest\OneDrive - store-dot.com\Documents\EC-Lab\Data\Charmaine\
	Host : 169.254.61.224
Device : VMP-3e (SN .003165)
Address : USB
EC-LAB for windows v11.62 (software)
Internet server v27.00 (firmware)
Command interpretor v12.03 (firmware)
Electrode material :
Initial state :
Electrolyte :
Comments :
Electrode surface area : 0.001 cm²
Characteristic mass : 0.001 g
Equivalent Weight : 0.000 g/eq.
Density : 0.000 g/cm3
Volume (V) : 0.001 cm³
Record Ece
Cycle Definition : Charge/Discharge alternance
Mode                Single sine
E (V)               0.0000
vs.                 Eoc
tE (h:m:s)          0:00:0.0000
record              0
dI                  0.000
unit dI             mA
dt (s)              0.000
fi                  100.000
unit fi             kHz
ff                  10.000
unit ff             mHz
Nd                  6
Points              per decade
spacing             Logarithmic
Va (mV)             5.0
pw                  0.10
Na                  2
corr                0
E range min (V)     -10.000
E range max (V)     10.000
I Range             Auto
Bandwidth           5
nc cycles           0
goto Ns'            0
nr cycles           0
inc. cycle          0

freq/Hz	Re(Z)/Ohm	-Im(Z)/Ohm	|Z|/Ohm	Phase(Z)/deg	time/s	<Ewe>/V	<I>/mA	Cs/µF	Cp/µF	cycle number	I Range	|Ewe|/V	|I|/A	Ns	(Q-Qo)/mA.h	<Ece>/V	|Ece|/V	Phase(Zce)/deg	|Zce|/Ohm	Re(Zce)/Ohm	-Im(Zce)/Ohm	Phase(Zwe-ce)/deg	|Zwe-ce|/Ohm	Re(Zwe-ce)/Ohm	-Im(Zwe-ce)/Ohm	Re(Y)/Ohm-1	Im(Y)/Ohm-1	|Y|/Ohm-1	Phase(Y)/deg	Re(C)/nF	Im(C)/nF	|C|/nF	Phase(C)/deg	Re(M)	Im(M)	|M|	Phase(M)/deg	Re(Permittivity)	Im(Permittivity)	|Permittivity|	Phase(Permittivity)/deg	Re(Resistivity)/Ohm.cm	Im(Resistivity)/Ohm.cm	|Resistivity|/Ohm.cm	Phase(Resistivity)/deg	Re(Conductivity)/mS/cm	Im(Conductivity)/mS/cm	|Conductivity|/mS/cm	Phase(Conductivity)/deg	Tan(Delta)	Loss Angle(Delta)/deg	dq/mA.h	Pwe/W	Pce/W	Pwe-ce/W	<Ewe-Ece>/V	Rwe/Ohm	Rce/Ohm	Rwe-ce/Ohm		Ewe-Ece/V
100004	1.8302	1.26288	2.22362	-34.6065	1.91157	0.189327	-0.0641113	1.26021	0.406484	1	9	0.00458005	0.00205973	0	-1.39004e-05	-4.91898e-05	3.73127e-05	88.0425	0.0181154	0.000618782	-0.0181048	-34.2117	2.2139	1.83082	1.24477	0.37015	0.255411	0.449717	34.6065	406.484	589.089	715.72	-55.3935	0.0000000E+000	0.0000000E+000	0.0000000E+000	55.3935	0.0000000E+000	0.0000000E+000	0.0000000E+000	-55.3935	0.0000000E+000	0.0000000E+000	0.0000000E+000	-34.6065	0.0000000E+000	0.0000000E+000	0.0000000E+000	34.6065	1.44923	55.3935	-1.39004e-05	-1.2138e-05	3.15362e-09	-1.21412e-05	0.189376	2953.1	0.767257	2953.87
31621.1	3.12527	2.06403	3.74533	-33.4421	3.18856	0.189311	-0.0635527	2.43852	0.74059	1	9	0.00469169	0.00125268	0	-3.57014e-05	-0.000221011	3.97559e-06	-86.0777	0.00317368	0.000217092	0.00316624	-33.4807	3.74726	3.12549	2.0672	0.222795	0.147141	0.266999	33.4421	740.59	1121.37	1343.85	-56.5579	0.0000000E+000	0.0000000E+000	0.0000000E+000	56.5579	0.0000000E+000	0.0000000E+000	0.0000000E+000	-56.5579	0.0000000E+000	0.0000000E+000	0.0000000E+000	-33.4421	0.0000000E+000	0.0000000E+000	0.0000000E+000	33.4421	1.51416	56.5579	-5.42097e-06	-1.20312e-05	1.40458e-08	-1.20452e-05	0.189532	2978.8	3.4776	2982.28
10002.2	4.94887	2.54266	5.56385	-27.1934	4.36754	0.189363	-0.0282554	6.25801	1.30695	1	10	0.00484238	0.000870329	0	-4.81712e-05	0.000160814	1.06169e-05	-0.147742	0.0121987	0.0121986	3.14553e-05	-27.1364	5.57471	4.96107	2.54269	0.159866	0.0821367	0.179732	27.1934	1306.95	2543.78	2859.88	-62.8066	0.0000000E+000	0.0000000E+000	0.0000000E+000	62.8066	0.0000000E+000	0.0000000E+000	0.0000000E+000	-62.8066	0.0000000E+000	0.0000000E+000	0.0000000E+000	-27.1934	0.0000000E+000	0.0000000E+000	0.0000000E+000	27.1934	1.94634	62.8066	-1.67832e-06	-5.35053e-06	-4.54385e-09	-5.34599e-06	0.189203	6701.85	5.69143	6696.16
3163.08	6.77314	2.94181	7.38442	-23.477	5.26566	0.189227	-0.020399	17.1039	2.71451	1	10	0.00463707	0.000627953	0	-5.38192e-05	0.000122631	7.99629e-06	-37.4743	0.0127339	0.010106	0.00774737	-23.5009	7.39677	6.78324	2.94956	0.12421	0.0539488	0.13542	23.477	2714.51	6249.82	6813.87	-66.523	0.0000000E+000	0.0000000E+000	0.0000000E+000	66.523	0.0000000E+000	0.0000000E+000	0.0000000E+000	-66.523	0.0000000E+000	0.0000000E+000	0.0000000E+000	-23.477	0.0000000E+000	0.0000000E+000	0.0000000E+000	23.477	2.30237	66.523	-1.46551e-06	-3.86004e-06	-2.50155e-09	-3.85754e-06	0.189104	9276.29	6.01163	9270.28
1000.32	8.57507	4.22254	9.55833	-26.2166	6.61884	0.189313	-8.03386e-05	37.6797	7.35344	1	10	0.00453569	0.000474527	0	-5.39492e-05	0.000198996	6.29313e-06	105.544	0.0132619	-0.00355394	-0.0127768	-26.1572	9.5495	8.57152	4.20976	0.0938585	0.0462178	0.104621	26.2166	7353.44	14933.3	16645.6	-63.7834	0.0000000E+000	0.0000000E+000	0.0000000E+000	63.7834	0.0000000E+000	0.0000000E+000	0.0000000E+000	-63.7834	0.0000000E+000	0.0000000E+000	0.0000000E+000	-26.2166	0.0000000E+000	0.0000000E+000	0.0000000E+000	26.2166	2.03079	63.7834	-4.38488e-07	-1.52091e-08	-1.59871e-11	-1.51931e-08	0.189114	2.35644e+06	2476.97	2.35396e+06
316.316	11.6413	7.93815	14.0902	-34.29	7.96805	0.189302	-0.000717046	63.384	20.118	1	10	0.00451523	0.000320452	0	-5.35875e-05	0.000122631	1.38808e-05	62.2386	0.0433164	0.0201764	-0.0383305	-34.1149	14.0853	11.6615	7.89982	0.0586363	0.0399839	0.0709713	34.29	20118	29503	35709.4	-55.71	0.0000000E+000	0.0000000E+000	0.0000000E+000	55.71	0.0000000E+000	0.0000000E+000	0.0000000E+000	-55.71	0.0000000E+000	0.0000000E+000	0.0000000E+000	-34.29	0.0000000E+000	0.0000000E+000	0.0000000E+000	34.29	1.4665	55.71	-3.31433e-07	-1.35738e-07	-8.79322e-11	-1.3565e-07	0.189179	264002	171.023	263831
100.032	20.1002	14.3248	24.6823	-35.4764	9.55977	0.189338	-0.0051211	111.069	37.4109	1	11	0.00451092	0.000182759	0	-5.43467e-05	0.000218087	7.20278e-06	8.00521	0.0394114	0.0390273	-0.00548855	-35.4135	24.7109	20.1392	14.3193	0.0329934	0.0235135	0.0405148	35.4764	37410.9	52493.9	64460.7	-54.5236	0.0000000E+000	0.0000000E+000	0.0000000E+000	54.5236	0.0000000E+000	0.0000000E+000	0.0000000E+000	-54.5236	0.0000000E+000	0.0000000E+000	0.0000000E+000	-35.4764	0.0000000E+000	0.0000000E+000	0.0000000E+000	35.4764	1.40317	54.5236	-4.76897e-07	-9.69621e-07	-1.11685e-09	-9.68504e-07	0.18912	36972.2	42.586	36929.6
[...]
1.00006	47.7263	2.5505	47.7944	-3.05898	19.261	0.189342	-0.00257715	62397.6	177.69	1	12	0.00500203	0.000104657	0	-6.19679e-05	-0.000259193	4.10911e-06	7.80485	0.0392626	0.0388989	-0.00533183	-3.05012	47.833	47.7652	2.54516	0.0208931	0.00111653	0.020923	3.05898	177690	3.32503e+06	3.32978e+06	-86.941	0.0000000E+000	0.0000000E+000	0.0000000E+000	86.941	0.0000000E+000	0.0000000E+000	0.0000000E+000	-86.941	0.0000000E+000	0.0000000E+000	0.0000000E+000	-3.05898	0.0000000E+000	0.0000000E+000	0.0000000E+000	3.05898	18.7126	86.941	-2.66833e-06	-4.87963e-07	6.67979e-10	-4.88631e-07	0.189601	73469.8	100.574	73570.3
0.316193	49.1115	3.04123	49.2055	-3.54352	33.6031	0.189349	-0.00206616	165508	632.25	1	12	0.00500072	0.000101629	0	-8.6289e-05	-4.91898e-05	3.048e-06	-20.2533	0.0299914	0.0281371	0.0103822	-3.55355	49.2343	49.1396	3.05161	0.0202841	0.00125609	0.0203229	3.54352	632250	1.02099e+07	1.02295e+07	-86.4565	0.0000000E+000	0.0000000E+000	0.0000000E+000	86.4565	0.0000000E+000	0.0000000E+000	0.0000000E+000	-86.4565	0.0000000E+000	0.0000000E+000	0.0000000E+000	-3.54352	0.0000000E+000	0.0000000E+000	0.0000000E+000	3.54352	16.1486	86.4565	-9.10898e-06	-3.91227e-07	1.01634e-10	-3.91328e-07	0.189398	91642.9	23.8073	91666.7
0.0999041	50.7402	5.10459	50.9963	-5.74477	78.8101	0.189343	-0.00169612	312087	3126.95	1	12	0.00500423	9.81292e-05	0	-7.02851e-05	8.44487e-05	1.91803e-06	20.17	0.019546	0.0183473	-0.0067396	-5.73518	51.0139	50.7586	5.09786	0.0195108	0.00196283	0.0196093	5.74477	3.12695e+06	3.10822e+07	3.12391e+07	-84.2552	0.0000000E+000	0.0000000E+000	0.0000000E+000	84.2552	0.0000000E+000	0.0000000E+000	0.0000000E+000	-84.2552	0.0000000E+000	0.0000000E+000	0.0000000E+000	-5.74477	0.0000000E+000	0.0000000E+000	0.0000000E+000	5.74477	9.9401	84.2552	1.63497e-05	-3.21149e-07	-1.43235e-10	-3.21006e-07	0.189259	111633	49.7893	111583
0.0315922	53.5421	11.1353	54.6877	-11.7485	221.694	0.189343	0.000289128	452417	18756.9	1	12	0.00500086	9.14439e-05	0	-4.81333e-05	0.000179905	1.45771e-06	-22.5288	0.015941	0.0147245	0.00610776	-11.7516	54.7034	53.5568	11.1414	0.0179026	0.00372324	0.0182856	11.7485	1.87569e+07	9.01894e+07	9.21192e+07	-78.2515	0.0000000E+000	0.0000000E+000	0.0000000E+000	78.2515	0.0000000E+000	0.0000000E+000	0.0000000E+000	-78.2515	0.0000000E+000	0.0000000E+000	0.0000000E+000	-11.7485	0.0000000E+000	0.0000000E+000	0.0000000E+000	11.7485	4.80833	78.2515	-2.00304e-05	5.47446e-08	5.20156e-11	5.46925e-08	0.189163	654876	622.231	654254
0.0100092	60.7044	25.784	65.9533	-23.0132	672.917	0.189337	-0.000466668	616696	94254	1	12	0.00500223	7.5845e-05	0	-0.000482222	2.71751e-05	2.27878e-06	5.24121	0.0300453	0.0299197	-0.0027446	-23.0009	65.9798	60.7343	25.7813	0.0139555	0.00592758	0.0151622	23.0132	9.4254e+07	2.21906e+08	2.41094e+08	-66.9868	0.0000000E+000	0.0000000E+000	0.0000000E+000	66.9868	0.0000000E+000	0.0000000E+000	0.0000000E+000	-66.9868	0.0000000E+000	0.0000000E+000	0.0000000E+000	-23.0132	0.0000000E+000	0.0000000E+000	0.0000000E+000	23.0132	2.35434	66.9868	-0.000169186	-8.83573e-08	-1.26817e-11	-8.83447e-08	0.18931	405720	58.2321	405662

File: 19150_R306_UA711_SOC00_C06.mpt
EC-Lab ASCII FILE
Nb header lines : 65

Potentio Electrochemical Impedance Spectroscopy

Run on channel : 6 (SN 65795)
Grouped channel(s) : 3, 4, 5, 6, 7
User :
CE vs. WE compliance from -10 V to 10 V
Electrode connection : standard
Potential control : Ewe
Ewe ctrl range : min = -10.00 V, max = 10.00 V
Safety Limits :
	Do not start on E overload
Acquisition started on : 11/12/2025 11:40:22.150
Loaded Setting File :  C:\Users\Celltest\OneDrive - store-dot.com\Documents\EC-Lab\Data\@Biologic Test Protocols\anode half cell EIS SOC00.mps
Saved on :
	File : 19147_R306_UA711_SOC00_C06.mpr
	Directory : C:\Users\Celltest\OneDrive - store-dot.com\Documents\EC-Lab\Data\Charmaine\
	Host : 169.254.61.224
Device : VMP-3e (SN .003165)
Address : USB
EC-LAB for windows v11.62 (software)
Internet server v27.00 (firmware)
Command interpretor v12.03 (firmware)
Electrode material :
Initial state :
Electrolyte :
Comments :
Electrode surface area : 0.001 cm²
Characteristic mass : 0.001 g
Equivalent Weight : 0.000 g/eq.
Density : 0.000 g/cm3
Volume (V) : 0.001 cm³
Record Ece
Cycle Definition : Charge/Discharge alternance
Mode                Single sine
E (V)               0.0000
vs.                 Eoc
tE (h:m:s)          0:00:0.0000
record              0
dI                  0.000
unit dI             mA
dt (s)              0.000
fi                  100.000
unit fi             kHz
ff                  10.000
unit ff             mHz
Nd                  6
Points              per decade
spacing             Logarithmic
Va (mV)             5.0
pw                  0.10
Na                  2
corr                0
E range min (V)     -10.000
E range max (V)     10.000
I Range             Auto
Bandwidth           5
nc cycles           0
goto Ns'            0
nr cycles           0
inc. cycle          0

freq/Hz	Re(Z)/Ohm	-Im(Z)/Ohm	|Z|/Ohm	Phase(Z)/deg	time/s	<Ewe>/V	<I>/mA	Cs/µF	Cp/µF	cycle number	I Range	|Ewe|/V	|I|/A	Ns	(Q-Qo)/mA.h	<Ece>/V	|Ece|/V	Phase(Zce)/deg	|Zce|/Ohm	Re(Zce)/Ohm	-Im(Zce)/Ohm	Phase(Zwe-ce)/deg	|Zwe-ce|/Ohm	Re(Zwe-ce)/Ohm	-Im(Zwe-ce)/Ohm	Re(Y)/Ohm-1	Im(Y)/Ohm-1	|Y|/Ohm-1	Phase(Y)/deg	Re(C)/nF	Im(C)/nF	|C|/nF	Phase(C)/deg	Re(M)	Im(M)	|M|	Phase(M)/deg	Re(Permittivity)	Im(Permittivity)	|Permittivity|	Phase(Permittivity)/deg	Re(Resistivity)/Ohm.cm	Im(Resistivity)/Ohm.cm	|Resistivity|/Ohm.cm	Phase(Resistivity)/deg	Re(Conductivity)/mS/cm	Im(Conductivity)/mS/cm	|Conductivity|/mS/cm	Phase(Conductivity)/deg	Tan(Delta)	Loss Angle(Delta)/deg	dq/mA.h	Pwe/W	Pce/W	Pwe-ce/W	<Ewe-Ece>/V	Rwe/Ohm	Rce/Ohm	Rwe-ce/Ohm		Ewe-Ece/V
100004	1.88218	1.19405	2.22898	-32.391	1.72552	0.181275	-0.0100271	1.33285	0.382486	1	9	0.00458401	0.00205655	0	-3.20904e-06	0.000286255	4.29449e-05	98.1462	0.020882	-0.00295898	-0.0206713	-31.9806	2.21547	1.87922	1.17338	0.378833	0.240332	0.448636	32.391	382.486	602.909	713.999	-57.609	0.0000000E+000	0.0000000E+000	0.0000000E+000	57.609	0.0000000E+000	0.0000000E+000	0.0000000E+000	-57.609	0.0000000E+000	0.0000000E+000	0.0000000E+000	-32.391	0.0000000E+000	0.0000000E+000	0.0000000E+000	32.391	1.57629	57.609	-3.20904e-06	-1.81766e-06	-2.8703e-09	-1.81479e-06	0.180989	18078.5	28.5482	18050
31621.1	3.10264	1.85292	3.61382	-30.846	3.12155	0.181261	-0.0190788	2.71635	0.714112	1	9	0.00524059	0.00145015	0	-3.08786e-07	0.000209863	5.48733e-06	-11.4743	0.00378397	0.00370835	0.000752739	-30.8261	3.61739	3.10635	1.85367	0.237574	0.141881	0.276715	30.846	714.112	1195.75	1392.76	-59.154	0.0000000E+000	0.0000000E+000	0.0000000E+000	59.154	0.0000000E+000	0.0000000E+000	0.0000000E+000	-59.154	0.0000000E+000	0.0000000E+000	0.0000000E+000	-30.846	0.0000000E+000	0.0000000E+000	0.0000000E+000	30.846	1.67446	59.1541	4.02624e-07	-3.45825e-06	-4.00394e-09	-3.45425e-06	0.181051	9500.63	10.9998	9489.63
10002.2	4.69618	2.16801	5.17246	-24.7806	4.30355	0.181303	-0.0229115	7.33944	1.28941	1	10	0.00529433	0.00102356	0	-8.13177e-06	0.000248059	8.49723e-06	52.7197	0.00830163	0.00502842	-0.00660545	-24.6908	5.17426	4.70121	2.1614	0.17553	0.0810338	0.193332	24.7806	1289.41	2793.02	3076.28	-65.2194	0.0000000E+000	0.0000000E+000	0.0000000E+000	65.2194	0.0000000E+000	0.0000000E+000	0.0000000E+000	-65.2194	0.0000000E+000	0.0000000E+000	0.0000000E+000	-24.7806	0.0000000E+000	0.0000000E+000	0.0000000E+000	24.7806	2.16613	65.2194	-1.66075e-06	-4.15393e-06	-5.68341e-09	-4.14824e-06	0.181055	7913.16	10.8268	7902.34
3163.08	6.21723	2.49056	6.69752	-21.8305	5.20161	0.181156	-0.0216222	20.2029	2.79369	1	10	0.00523182	0.000781158	0	-1.39442e-05	0.000133471	6.37892e-06	83.1698	0.00816598	0.000971153	-0.00810802	-21.763	6.69541	6.2182	2.48245	0.138602	0.0555224	0.149309	21.8305	2793.69	6973.94	7512.7	-68.1695	0.0000000E+000	0.0000000E+000	0.0000000E+000	68.1695	0.0000000E+000	0.0000000E+000	0.0000000E+000	-68.1695	0.0000000E+000	0.0000000E+000	0.0000000E+000	-21.8305	0.0000000E+000	0.0000000E+000	0.0000000E+000	21.8305	2.49632	68.1695	-2.90892e-06	-3.91699e-06	-2.88592e-09	-3.9141e-06	0.181023	8378.26	6.17286	8372.09
1000.32	7.75007	3.61891	8.55337	-25.0303	6.55582	0.181231	-0.00336948	43.9646	7.87018	1	10	0.00512042	0.000598643	0	-1.50174e-05	0.000152569	5.23637e-06	-105.632	0.00874706	-0.00235695	0.00842353	-25.0881	8.5548	7.74771	3.62733	0.105933	0.0494657	0.116913	25.0303	7870.18	16854.4	18601.3	-64.9697	0.0000000E+000	0.0000000E+000	0.0000000E+000	64.9697	0.0000000E+000	0.0000000E+000	0.0000000E+000	-64.9697	0.0000000E+000	0.0000000E+000	0.0000000E+000	-25.0303	0.0000000E+000	0.0000000E+000	0.0000000E+000	25.0303	2.14155	64.9697	5.50273e-08	-6.10653e-07	-5.14077e-10	-6.10139e-07	0.181078	53785.9	45.2796	53740.6
316.316	10.3187	6.75653	12.3339	-33.2162	7.90508	0.181213	-0.00424895	74.469	22.347	1	10	0.00506721	0.000410835	0	-1.65807e-05	0.000152569	7.55648e-06	-108.57	0.018393	-0.00585752	0.0174353	-33.2989	12.3386	10.3128	6.77396	0.0678299	0.0444141	0.0810772	33.2162	22347	34128.7	40794.1	-56.7838	0.0000000E+000	0.0000000E+000	0.0000000E+000	56.7838	0.0000000E+000	0.0000000E+000	0.0000000E+000	-56.7838	0.0000000E+000	0.0000000E+000	0.0000000E+000	-33.2162	0.0000000E+000	0.0000000E+000	0.0000000E+000	33.2162	1.52722	56.7838	-1.86497e-07	-7.69964e-07	-6.48257e-10	-7.69315e-07	0.18106	42648.7	35.9073	42612.8
100.032	17.678	11.8743	21.2958	-33.8892	9.2518	0.181228	-0.00239686	133.99	41.6582	1	10	0.00505317	0.000237284	0	-1.70168e-05	0.000381745	8.89031e-06	-65.9439	0.0374669	0.0152727	0.0342128	-33.9426	21.3276	17.6933	11.9085	0.0389803	0.026183	0.0469576	33.8892	41658.2	62019.2	74711.4	-56.1108	0.0000000E+000	0.0000000E+000	0.0000000E+000	56.1108	0.0000000E+000	0.0000000E+000	0.0000000E+000	-56.1108	0.0000000E+000	0.0000000E+000	0.0000000E+000	-33.8892	0.0000000E+000	0.0000000E+000	0.0000000E+000	33.8892	1.48876	56.1108	-5.87034e-07	-4.34379e-07	-9.1499e-10	-4.33464e-07	0.180847	75610.7	159.269	75451.4
[...]
1.00006	39.3656	2.11838	39.4226	-3.08028	19.0006	0.181287	-0.00482211	75125.8	216.923	1	12	0.00505771	0.000128295	0	-3.38815e-05	-1.93137e-05	2.42472e-06	40.0317	0.0188996	0.0144712	-0.0121564	-3.06151	39.4364	39.3801	2.10622	0.0253295	0.00136305	0.0253662	3.08028	216923	4.03106e+06	4.0369e+06	-86.9197	0.0000000E+000	0.0000000E+000	0.0000000E+000	86.9197	0.0000000E+000	0.0000000E+000	0.0000000E+000	-86.9197	0.0000000E+000	0.0000000E+000	0.0000000E+000	-3.08028	0.0000000E+000	0.0000000E+000	0.0000000E+000	3.08028	18.5829	86.9197	-6.52885e-07	-8.74184e-07	9.31327e-11	-8.74277e-07	0.181306	37594.9	4.00524	37598.9
0.316193	40.4821	2.77624	40.5772	-3.92318	33.342	0.181293	-0.00274326	181305	848.714	1	12	0.0050574	0.000124637	0	-3.28909e-05	9.52745e-05	2.75467e-06	-22.8235	0.0221016	0.0203712	0.00857308	-3.93328	40.5981	40.5025	2.78482	0.0245866	0.00168614	0.0246444	3.92318	848714	1.23756e+07	1.24047e+07	-86.0768	0.0000000E+000	0.0000000E+000	0.0000000E+000	86.0768	0.0000000E+000	0.0000000E+000	0.0000000E+000	-86.0768	0.0000000E+000	0.0000000E+000	0.0000000E+000	-3.92318	0.0000000E+000	0.0000000E+000	0.0000000E+000	3.92318	14.5816	86.0768	-1.8906e-06	-4.97334e-07	-2.61362e-10	-4.97073e-07	0.181198	66087	34.7305	66052.2
0.0999041	42.0758	5.01623	42.3738	-6.79865	78.5499	0.181283	-0.00133429	317585	4450.61	1	12	0.00505422	0.000119277	0	-0.000113185	-7.66078e-05	2.6884e-06	-30.8474	0.0225391	0.0193506	0.011557	-6.81106	42.3944	42.0952	5.02779	0.0234336	0.00279372	0.0235995	6.79865	4.45061e+06	3.73315e+07	3.75958e+07	-83.2014	0.0000000E+000	0.0000000E+000	0.0000000E+000	83.2014	0.0000000E+000	0.0000000E+000	0.0000000E+000	-83.2014	0.0000000E+000	0.0000000E+000	0.0000000E+000	-6.79865	0.0000000E+000	0.0000000E+000	0.0000000E+000	6.79865	8.38794	83.2014	-4.20047e-05	-2.41885e-07	1.02217e-10	-2.41987e-07	0.18136	135864	57.4145	135922
0.0315922	44.9818	11.1196	46.3358	-13.8853	221.434	0.181274	-0.00160444	453056	26091.3	1	12	0.00506043	0.000109212	0	-0.000177126	0.000209863	1.15595e-06	-30.3472	0.0105845	0.00913417	0.00534767	-13.889	46.346	44.9909	11.1249	0.0209509	0.00517911	0.0215816	13.8853	2.60913e+07	1.05546e+08	1.08724e+08	-76.1147	0.0000000E+000	0.0000000E+000	0.0000000E+000	76.1147	0.0000000E+000	0.0000000E+000	0.0000000E+000	-76.1147	0.0000000E+000	0.0000000E+000	0.0000000E+000	-13.8853	0.0000000E+000	0.0000000E+000	0.0000000E+000	13.8853	4.04528	76.1147	1.99298e-05	-2.90843e-07	-3.36712e-10	-2.90506e-07	0.181064	112983	130.801	112852
0.0100092	52.2552	25.2996	58.0575	-25.8342	672.657	0.181266	7.05638e-05	628504	119349	1	12	0.00506353	8.72157e-05	0	0.000197552	0.000190765	2.23572e-06	-11.9811	0.0256344	0.025076	0.00532144	-25.8281	58.0824	52.2803	25.3049	0.0155029	0.0075058	0.0172243	25.8342	1.19349e+08	2.4651e+08	2.73882e+08	-64.1658	0.0000000E+000	0.0000000E+000	0.0000000E+000	64.1658	0.0000000E+000	0.0000000E+000	0.0000000E+000	-64.1658	0.0000000E+000	0.0000000E+000	0.0000000E+000	-25.8342	0.0000000E+000	0.0000000E+000	0.0000000E+000	25.8342	2.06545	64.1658	0.000109668	1.27908e-08	1.34611e-11	1.27774e-08	0.181076	2.56883e+06	2703.44	2.56613e+06