Folder: EIS/txt (part 56)

File: 17699_R287_UA660_SOC00_C06.mpt
EC-Lab ASCII FILE
Nb header lines : 63

Potentio Electrochemical Impedance Spectroscopy

Run on channel : 6 (SN 65795)
User :
CE vs. WE compliance from -10 V to 10 V
Electrode connection : standard
Potential control : Ewe
Ewe ctrl range : min = -10.00 V, max = 10.00 V
Safety Limits :
	Do not start on E overload
Acquisition started on : 09/22/2025 09:04:20.034
Loaded Setting File :  C:\Users\Celltest\OneDrive - store-dot.com\Documents\EC-Lab\Data\Charmaine\17689_R288_UA670_SOC00_C04.mpr
Saved on :
	File : 17699_R287_UA660_SOC00_C06.mpr
	Directory : C:\Users\Celltest\OneDrive - store-dot.com\Documents\EC-Lab\Data\Charmaine\
	Host : 169.254.61.224
Device : VMP-3e (SN .003165)
Address : USB
EC-LAB for windows v11.62 (software)
Internet server v27.00 (firmware)
Command interpretor v12.03 (firmware)
Electrode material :
Initial state :
Electrolyte :
Comments :
Electrode surface area : 0.001 cm²
Characteristic mass : 0.001 g
Equivalent Weight : 0.000 g/eq.
Density : 0.000 g/cm3
Volume (V) : 0.001 cm³
Cycle Definition : Charge/Discharge alternance
Mode                Single sine
E (V)               0.0000
vs.                 Eoc
tE (h:m:s)          0:00:0.0000
record              0
dI                  0.000
unit dI             mA
dt (s)              0.000
fi                  100.000
unit fi             kHz
ff                  10.000
unit ff             mHz
Nd                  6
Points              per decade
spacing             Logarithmic
Va (mV)             5.0
pw                  0.10
Na                  2
corr                0
E range min (V)     -10.000
E range max (V)     10.000
I Range             Auto
Bandwidth           5
nc cycles           0
goto Ns'            0
nr cycles           0
inc. cycle          0

freq/Hz	Re(Z)/Ohm	-Im(Z)/Ohm	|Z|/Ohm	Phase(Z)/deg	time/s	<Ewe>/V	<I>/mA	Cs/µF	Cp/µF	cycle number	I Range	|Ewe|/V	|I|/A	Ns	(Q-Qo)/mA.h	Re(Y)/Ohm-1	Im(Y)/Ohm-1	|Y|/Ohm-1	Phase(Y)/deg	Re(C)/nF	Im(C)/nF	|C|/nF	Phase(C)/deg	Re(M)	Im(M)	|M|	Phase(M)/deg	Re(Permittivity)	Im(Permittivity)	|Permittivity|	Phase(Permittivity)/deg	Re(Resistivity)/Ohm.cm	Im(Resistivity)/Ohm.cm	|Resistivity|/Ohm.cm	Phase(Resistivity)/deg	Re(Conductivity)/mS/cm	Im(Conductivity)/mS/cm	|Conductivity|/mS/cm	Phase(Conductivity)/deg	Tan(Delta)	Loss Angle(Delta)/deg	dq/mA.h	Pwe/W	Rwe/Ohm
100004	1.32214	0.25272	1.34608	-10.8212	1.86549	0.268951	0.0337789	6.29745	0.221975	1	9	0.0046004	0.00341764	0	-4.90109e-07	0.729689	0.139476	0.7429	10.8212	221.975	1161.29	1182.32	-79.1788	0.0000000E+000	0.0000000E+000	0.0000000E+000	79.1788	0.0000000E+000	0.0000000E+000	0.0000000E+000	-79.1788	0.0000000E+000	0.0000000E+000	0.0000000E+000	-10.8212	0.0000000E+000	0.0000000E+000	0.0000000E+000	10.8212	5.23164	79.1788	-4.90109e-07	9.08486e-06	7962.1
46420.4	1.4387	0.272854	1.46435	-10.7388	3.02148	0.268937	0.0308362	12.5655	0.43627	1	9	0.00503686	0.00343967	0	8.91386e-06	0.670939	0.127246	0.682899	10.7388	436.27	2300.36	2341.36	-79.2612	0.0000000E+000	0.0000000E+000	0.0000000E+000	79.2612	0.0000000E+000	0.0000000E+000	0.0000000E+000	-79.2612	0.0000000E+000	0.0000000E+000	0.0000000E+000	-10.7388	0.0000000E+000	0.0000000E+000	0.0000000E+000	10.7388	5.27278	79.2612	4.0452e-06	8.29299e-06	8721.5
21544.7	1.55781	0.317914	1.58992	-11.5344	3.89549	0.268934	0.031041	23.2365	0.929054	1	9	0.00529062	0.0033276	0	1.90627e-05	0.616261	0.125765	0.628963	11.5344	929.054	4552.45	4646.28	-78.4656	0.0000000E+000	0.0000000E+000	0.0000000E+000	78.4656	0.0000000E+000	0.0000000E+000	0.0000000E+000	-78.4656	0.0000000E+000	0.0000000E+000	0.0000000E+000	-11.5344	0.0000000E+000	0.0000000E+000	0.0000000E+000	11.5344	4.90009	78.4656	1.07645e-06	8.34799e-06	8663.83
10002.2	1.69081	0.403874	1.73838	-13.4342	4.76948	0.268931	0.0338348	39.3983	2.12658	1	9	0.00507141	0.00291732	0	2.96691e-05	0.559509	0.133647	0.575249	13.4342	2126.58	8902.88	9153.34	-76.5658	0.0000000E+000	0.0000000E+000	0.0000000E+000	76.5658	0.0000000E+000	0.0000000E+000	0.0000000E+000	-76.5658	0.0000000E+000	0.0000000E+000	0.0000000E+000	-13.4342	0.0000000E+000	0.0000000E+000	0.0000000E+000	13.4342	4.18648	76.5658	8.99977e-06	9.0992e-06	7948.35
4641.49	1.85609	0.558901	1.93841	-16.758	5.61767	0.26894	0.0453077	61.352	5.10043	1	9	0.00517214	0.00266824	0	3.60527e-05	0.493978	0.148745	0.515887	16.758	5100.43	16938.3	17689.6	-73.242	0.0000000E+000	0.0000000E+000	0.0000000E+000	73.242	0.0000000E+000	0.0000000E+000	0.0000000E+000	-73.242	0.0000000E+000	0.0000000E+000	0.0000000E+000	-16.758	0.0000000E+000	0.0000000E+000	0.0000000E+000	16.758	3.32096	73.242	6.33602e-06	1.21851e-05	5935.85
2155.69	2.08486	0.84016	2.24778	-21.9485	6.5517	0.268934	0.043855	87.8763	12.2769	1	9	0.0050771	0.00225871	0	4.56357e-05	0.412638	0.166285	0.444883	21.9485	12276.9	30465.1	32845.8	-68.0515	0.0000000E+000	0.0000000E+000	0.0000000E+000	68.0515	0.0000000E+000	0.0000000E+000	0.0000000E+000	-68.0515	0.0000000E+000	0.0000000E+000	0.0000000E+000	-21.9485	0.0000000E+000	0.0000000E+000	0.0000000E+000	21.9485	2.48151	68.0515	3.62422e-06	1.17941e-05	6132.35
1000.32	2.42756	1.31289	2.75985	-28.4057	7.48768	0.268924	0.043259	121.186	27.4246	1	9	0.00500587	0.00181382	0	5.68354e-05	0.318714	0.172369	0.362339	28.4057	27424.6	50708.6	57649.6	-61.5943	0.0000000E+000	0.0000000E+000	0.0000000E+000	61.5943	0.0000000E+000	0.0000000E+000	0.0000000E+000	-61.5943	0.0000000E+000	0.0000000E+000	0.0000000E+000	-28.4057	0.0000000E+000	0.0000000E+000	0.0000000E+000	28.4057	1.84902	61.5943	6.62949e-06	1.16334e-05	6216.6
463.961	3.02768	2.08694	3.67725	-34.5779	8.67719	0.268934	-0.00817486	164.373	52.9422	1	10	0.00502102	0.00136543	0	5.83916e-05	0.223905	0.154334	0.271942	34.5779	52942.2	76807.4	93285.8	-55.4221	0.0000000E+000	0.0000000E+000	0.0000000E+000	55.4221	0.0000000E+000	0.0000000E+000	0.0000000E+000	-55.4221	0.0000000E+000	0.0000000E+000	0.0000000E+000	-34.5779	0.0000000E+000	0.0000000E+000	0.0000000E+000	34.5779	1.45078	55.4221	-2.51939e-07	-2.19849e-06	32897.6
215.345	4.07343	3.24003	5.20486	-38.499	9.61143	0.268931	-0.00851212	228.106	88.3928	1	10	0.00496919	0.00095472	0	5.66922e-05	0.150363	0.1196	0.192128	38.499	88392.8	111129	141996	-51.501	0.0000000E+000	0.0000000E+000	0.0000000E+000	51.501	0.0000000E+000	0.0000000E+000	0.0000000E+000	-51.501	0.0000000E+000	0.0000000E+000	0.0000000E+000	-38.499	0.0000000E+000	0.0000000E+000	0.0000000E+000	38.499	1.25722	51.501	-1.25966e-06	-2.28917e-06	31593.9
100.032	5.88344	4.76405	7.57041	-38.9985	10.5427	0.268933	-0.00829972	333.968	132.257	1	10	0.00494929	0.000653768	0	5.44129e-05	0.102658	0.0831262	0.132093	38.9985	132257	163333	210166	-51.0015	0.0000000E+000	0.0000000E+000	0.0000000E+000	51.0015	0.0000000E+000	0.0000000E+000	0.0000000E+000	-51.0015	0.0000000E+000	0.0000000E+000	0.0000000E+000	-38.9985	0.0000000E+000	0.0000000E+000	0.0000000E+000	38.9985	1.23496	51.0015	-1.14912e-06	-2.23207e-06	32402.6
46.4415	8.83884	6.29075	10.8489	-35.4401	11.4766	0.268925	-0.00992077	544.768	183.166	1	10	0.00493419	0.00045481	0	5.19861e-05	0.0750973	0.0534479	0.0921753	35.4401	183166	257358	315884	-54.5599	0.0000000E+000	0.0000000E+000	0.0000000E+000	54.5599	0.0000000E+000	0.0000000E+000	0.0000000E+000	-54.5599	0.0000000E+000	0.0000000E+000	0.0000000E+000	-35.4401	0.0000000E+000	0.0000000E+000	0.0000000E+000	35.4401	1.40505	54.5599	-1.41173e-06	-2.66794e-06	27107.2
[...]
1.00006	24.6028	4.22362	24.9627	-9.74112	20.8163	0.268952	-0.00411225	37679.7	1078.68	1	12	0.00493485	0.000197689	0	3.50843e-05	0.0394821	0.00677797	0.0400597	9.74112	1.07868e+06	6.28337e+06	6.37529e+06	-80.2589	0.0000000E+000	0.0000000E+000	0.0000000E+000	80.2589	0.0000000E+000	0.0000000E+000	0.0000000E+000	-80.2589	0.0000000E+000	0.0000000E+000	0.0000000E+000	-9.74112	0.0000000E+000	0.0000000E+000	0.0000000E+000	9.74112	5.82506	80.2589	-1.77809e-06	-1.106e-06	65402.5
0.464091	26.3586	3.61953	26.606	-7.81888	28.5009	0.268964	-0.00332031	94746.9	1753.52	1	12	0.00493475	0.000185475	0	4.72082e-05	0.0372361	0.00511322	0.0375855	7.81888	1.75352e+06	1.27697e+07	1.28896e+07	-82.1811	0.0000000E+000	0.0000000E+000	0.0000000E+000	82.1811	0.0000000E+000	0.0000000E+000	0.0000000E+000	-82.1811	0.0000000E+000	0.0000000E+000	0.0000000E+000	-7.81888	0.0000000E+000	0.0000000E+000	0.0000000E+000	7.81888	7.28233	82.1811	7.1159e-06	-8.93046e-07	81005.7
0.215268	27.7969	3.4093	28.0052	-6.99241	44.981	0.268949	-0.00203664	216858	3213.87	1	12	0.00493949	0.000176378	0	3.42603e-05	0.0354421	0.00434698	0.0357076	6.99241	3.21387e+06	2.62035e+07	2.63999e+07	-83.0076	0.0000000E+000	0.0000000E+000	0.0000000E+000	83.0076	0.0000000E+000	0.0000000E+000	0.0000000E+000	-83.0076	0.0000000E+000	0.0000000E+000	0.0000000E+000	-6.99241	0.0000000E+000	0.0000000E+000	0.0000000E+000	6.99241	8.15327	83.0076	-1.35964e-05	-5.47754e-07	132055
0.0999041	28.9835	3.73607	29.2233	-7.3451	80.3891	0.268946	-0.00162154	426405	6969.35	1	12	0.00493372	0.000168828	0	-5.74311e-05	0.0339384	0.00437477	0.0342192	7.3451	6.96935e+06	5.40665e+07	5.45139e+07	-82.6549	0.0000000E+000	0.0000000E+000	0.0000000E+000	82.6549	0.0000000E+000	0.0000000E+000	0.0000000E+000	-82.6549	0.0000000E+000	0.0000000E+000	0.0000000E+000	-7.3451	0.0000000E+000	0.0000000E+000	0.0000000E+000	7.3451	7.75777	82.6549	-5.69986e-05	-4.36107e-07	165858
0.0464052	30.4807	5.06541	30.8988	-9.4354	156.626	0.268945	-0.00245123	677079	18196.4	1	12	0.00493702	0.000159781	0	-0.000176498	0.0319259	0.00530557	0.0323637	9.4354	1.81964e+07	1.09496e+08	1.10997e+08	-80.5646	0.0000000E+000	0.0000000E+000	0.0000000E+000	80.5646	0.0000000E+000	0.0000000E+000	0.0000000E+000	-80.5646	0.0000000E+000	0.0000000E+000	0.0000000E+000	-9.4354	0.0000000E+000	0.0000000E+000	0.0000000E+000	9.4354	6.01743	80.5646	-5.18001e-05	-6.59247e-07	109718
0.0215268	32.2704	7.72241	33.1815	-13.458	320.855	0.268939	-0.00198747	957389	51856.2	1	12	0.00493426	0.000148705	0	-4.16918e-05	0.0293097	0.0070139	0.0301372	13.458	5.18562e+07	2.16697e+08	2.22815e+08	-76.542	0.0000000E+000	0.0000000E+000	0.0000000E+000	76.542	0.0000000E+000	0.0000000E+000	0.0000000E+000	-76.542	0.0000000E+000	0.0000000E+000	0.0000000E+000	-13.458	0.0000000E+000	0.0000000E+000	0.0000000E+000	13.458	4.1788	76.542	0.000120421	-5.34509e-07	135317
0.0100092	35.4897	12.1164	37.501	-18.8503	674.072	0.268944	-0.000155347	1.31234e+06	136997	1	12	0.00493905	0.000131704	0	0.000391411	0.0252357	0.00861566	0.0266659	18.8503	1.36997e+08	4.01271e+08	4.24013e+08	-71.1497	0.0000000E+000	0.0000000E+000	0.0000000E+000	71.1497	0.0000000E+000	0.0000000E+000	0.0000000E+000	-71.1497	0.0000000E+000	0.0000000E+000	0.0000000E+000	-18.8503	0.0000000E+000	0.0000000E+000	0.0000000E+000	18.8503	2.92905	71.1497	0.000214374	-4.17796e-08	1.73125e+06

File: 17700_R287_UA660_SOC00_C07.mpt
EC-Lab ASCII FILE

Nb header lines : 63

Potentio Electrochemical Impedance Spectroscopy

Run on channel : 7 (SN 66126)
User :
CE vs. WE compliance from -10 V to 10 V
Electrode connection : standard
Potential control : Ewe
Ewe ctrl range : min = -10.00 V, max = 10.00 V
Safety Limits :
	Do not start on E overload
Acquisition started on : 09/22/2025 09:04:33.635
Loaded Setting File :  C:\Users\Celltest\OneDrive - store-dot.com\Documents\EC-Lab\Data\Charmaine\17689_R288_UA670_SOC00_C04.mpr
Saved on :
	File : 17700_R287_UA660_SOC00_C07.mpr
	Directory : C:\Users\Celltest\OneDrive - store-dot.com\Documents\EC-Lab\Data\Charmaine\
	Host : 169.254.61.224
Device : VMP-3e (SN .003165)
Address : USB
EC-LAB for windows v11.62 (software)
Internet server v27.00 (firmware)
Command interpretor v12.03 (firmware)
Electrode material :
Initial state :
Electrolyte :
Comments :
Electrode surface area : 0.001 cm²
Characteristic mass : 0.001 g
Equivalent Weight : 0.000 g/eq.
Density : 0.000 g/cm3
Volume (V) : 0.001 cm³
Cycle Definition : Charge/Discharge alternance
Mode                Single sine
E (V)               0.0000
vs.                 Eoc
tE (h:m:s)          0:00:0.0000
record              0
dI                  0.000
unit dI             mA
dt (s)              0.000
fi                  100.000
unit fi             kHz
ff                  10.000
unit ff             mHz
Nd                  6
Points              per decade
spacing             Logarithmic
Va (mV)             5.0
pw                  0.10
Na                  2
corr                0
E range min (V)     -10.000
E range max (V)     10.000
I Range             Auto
Bandwidth           5
nc cycles           0
goto Ns'            0
nr cycles           0
inc. cycle          0

freq/Hz	Re(Z)/Ohm	-Im(Z)/Ohm	|Z|/Ohm	Phase(Z)/deg	time/s	<Ewe>/V	<I>/mA	Cs/µF	Cp/µF	cycle number	I Range	|Ewe|/V	|I|/A	Ns	(Q-Qo)/mA.h	Re(Y)/Ohm-1	Im(Y)/Ohm-1	|Y|/Ohm-1	Phase(Y)/deg	Re(C)/nF	Im(C)/nF	|C|/nF	Phase(C)/deg	Re(M)	Im(M)	|M|	Phase(M)/deg	Re(Permittivity)	Im(Permittivity)	|Permittivity|	Phase(Permittivity)/deg	Re(Resistivity)/Ohm.cm	Im(Resistivity)/Ohm.cm	|Resistivity|/Ohm.cm	Phase(Resistivity)/deg	Re(Conductivity)/mS/cm	Im(Conductivity)/mS/cm	|Conductivity|/mS/cm	Phase(Conductivity)/deg	Tan(Delta)	Loss Angle(Delta)/deg	dq/mA.h	Pwe/W	Rwe/Ohm
100004	1.11832	0.227317	1.14119	-11.4898	2.06748	0.271845	0.0780542	7.00118	0.277794	1	9	0.00472884	0.00414379	0	1.3429e-06	0.85872	0.17455	0.876281	11.4898	277.794	1366.64	1394.59	-78.5102	0.0000000E+000	0.0000000E+000	0.0000000E+000	78.5102	0.0000000E+000	0.0000000E+000	0.0000000E+000	-78.5102	0.0000000E+000	0.0000000E+000	0.0000000E+000	-11.4898	0.0000000E+000	0.0000000E+000	0.0000000E+000	11.4898	4.91963	78.5102	1.3429e-06	2.12186e-05	3482.77
46420.4	1.23234	0.26441	1.26038	-12.1097	3.22349	0.271867	0.0841236	12.9669	0.570667	1	9	0.00503121	0.00399181	0	2.01364e-05	0.775753	0.166445	0.793409	12.1097	570.667	2659.72	2720.25	-77.8903	0.0000000E+000	0.0000000E+000	0.0000000E+000	77.8903	0.0000000E+000	0.0000000E+000	0.0000000E+000	-77.8903	0.0000000E+000	0.0000000E+000	0.0000000E+000	-12.1097	0.0000000E+000	0.0000000E+000	0.0000000E+000	12.1097	4.66072	77.8903	2.72681e-06	2.28704e-05	3231.75
21544.7	1.3598	0.32693	1.39855	-13.5187	4.23948	0.271874	0.0808469	22.5957	1.23474	1	9	0.0054126	0.00387014	0	4.80989e-05	0.695214	0.167146	0.715024	13.5187	1234.74	5135.68	5282.03	-76.4813	0.0000000E+000	0.0000000E+000	0.0000000E+000	76.4813	0.0000000E+000	0.0000000E+000	0.0000000E+000	-76.4813	0.0000000E+000	0.0000000E+000	0.0000000E+000	-13.5187	0.0000000E+000	0.0000000E+000	0.0000000E+000	13.5187	4.15931	76.4813	8.20823e-06	2.19801e-05	3362.82
10002.2	1.4998	0.417823	1.55691	-15.5671	4.9725	0.271872	0.0746098	38.083	2.74276	1	9	0.00504371	0.00323956	0	6.58836e-05	0.618735	0.172371	0.642297	15.5671	2742.76	9845.29	10220.2	-74.4329	0.0000000E+000	0.0000000E+000	0.0000000E+000	74.4329	0.0000000E+000	0.0000000E+000	0.0000000E+000	-74.4329	0.0000000E+000	0.0000000E+000	0.0000000E+000	-15.5671	0.0000000E+000	0.0000000E+000	0.0000000E+000	15.5671	3.58955	74.4329	9.84719e-06	2.02843e-05	3643.91
4641.49	1.67829	0.573635	1.77361	-18.8703	5.8227	0.271833	0.0701973	59.7761	6.25289	1	9	0.00455403	0.00256766	0	6.96006e-05	0.533517	0.182355	0.563821	18.8703	6252.89	18294.1	19333.2	-71.1297	0.0000000E+000	0.0000000E+000	0.0000000E+000	71.1297	0.0000000E+000	0.0000000E+000	0.0000000E+000	-71.1297	0.0000000E+000	0.0000000E+000	0.0000000E+000	-18.8703	0.0000000E+000	0.0000000E+000	0.0000000E+000	18.8703	2.92571	71.1297	6.773e-06	1.90819e-05	3872.41
2155.69	1.91724	0.843263	2.09449	-23.7414	6.9797	0.271837	0.0701601	87.553	14.1919	1	9	0.00481465	0.00229872	0	9.08526e-05	0.437038	0.192223	0.477443	23.7414	14191.9	32266.6	35249.7	-66.2586	0.0000000E+000	0.0000000E+000	0.0000000E+000	66.2586	0.0000000E+000	0.0000000E+000	0.0000000E+000	-66.2586	0.0000000E+000	0.0000000E+000	0.0000000E+000	-23.7414	0.0000000E+000	0.0000000E+000	0.0000000E+000	23.7414	2.27359	66.2586	1.0333e-05	1.90721e-05	3874.53
1000.32	2.28387	1.28126	2.61872	-29.2926	7.91569	0.271831	0.0696946	124.177	29.7263	1	9	0.00476344	0.00181899	0	0.00010757	0.333037	0.186835	0.381866	29.2926	29726.3	52987.6	60756.3	-60.7074	0.0000000E+000	0.0000000E+000	0.0000000E+000	60.7074	0.0000000E+000	0.0000000E+000	0.0000000E+000	-60.7074	0.0000000E+000	0.0000000E+000	0.0000000E+000	-29.2926	0.0000000E+000	0.0000000E+000	0.0000000E+000	29.2926	1.78252	60.7074	7.72038e-06	1.89452e-05	3900.32
463.961	2.8847	2.00288	3.51184	-34.7727	9.10418	0.271838	-0.00909208	171.271	55.7088	1	10	0.00481704	0.00137166	0	0.000119658	0.2339	0.1624	0.284751	34.7727	55708.8	80236.1	97679.6	-55.2273	0.0000000E+000	0.0000000E+000	0.0000000E+000	55.2273	0.0000000E+000	0.0000000E+000	0.0000000E+000	-55.2273	0.0000000E+000	0.0000000E+000	0.0000000E+000	-34.7727	0.0000000E+000	0.0000000E+000	0.0000000E+000	34.7727	1.44028	55.2273	5.38403e-06	-2.47157e-06	29898.3
215.345	3.89079	3.0325	4.93298	-37.933	10.0385	0.27184	-0.00961327	243.717	92.1018	1	10	0.00476258	0.000965457	0	0.000116112	0.159889	0.124618	0.202717	37.933	92101.8	118169	149822	-52.067	0.0000000E+000	0.0000000E+000	0.0000000E+000	52.067	0.0000000E+000	0.0000000E+000	0.0000000E+000	-52.067	0.0000000E+000	0.0000000E+000	0.0000000E+000	-37.933	0.0000000E+000	0.0000000E+000	0.0000000E+000	37.933	1.28303	52.067	-1.92609e-06	-2.61327e-06	28277.6
100.032	5.59004	4.37888	7.10092	-38.0729	10.9697	0.271858	-0.0095258	363.344	138.17	1	10	0.00473993	0.00066751	0	0.000115043	0.110863	0.0868426	0.140827	38.0729	138170	176387	224061	-51.9271	0.0000000E+000	0.0000000E+000	0.0000000E+000	51.9271	0.0000000E+000	0.0000000E+000	0.0000000E+000	-51.9271	0.0000000E+000	0.0000000E+000	0.0000000E+000	-38.0729	0.0000000E+000	0.0000000E+000	0.0000000E+000	38.0729	1.27659	51.9272	-3.56204e-07	-2.58966e-06	28539.1
46.4415	8.34277	5.69113	10.099	-34.3004	11.9025	0.271846	-0.0115342	602.164	191.228	1	10	0.00473725	0.000469079	0	0.000113599	0.0817993	0.0558004	0.0990192	34.3004	191228	280326	339338	-55.6996	0.0000000E+000	0.0000000E+000	0.0000000E+000	55.6996	0.0000000E+000	0.0000000E+000	0.0000000E+000	-55.6996	0.0000000E+000	0.0000000E+000	0.0000000E+000	-34.3004	0.0000000E+000	0.0000000E+000	0.0000000E+000	34.3004	1.46593	55.6996	-1.13569e-06	-3.13553e-06	23568.6
[...]
0.464091	23.721	3.16668	23.9314	-7.60386	28.9265	0.271875	-0.00159506	108296	1896.2	1	12	0.00474105	0.00019811	0	0.000102457	0.0414187	0.00552927	0.0417861	7.60386	1.8962e+06	1.42041e+07	1.43301e+07	-82.3961	0.0000000E+000	0.0000000E+000	0.0000000E+000	82.3961	0.0000000E+000	0.0000000E+000	0.0000000E+000	-82.3961	0.0000000E+000	0.0000000E+000	0.0000000E+000	-7.60386	0.0000000E+000	0.0000000E+000	0.0000000E+000	7.60386	7.49081	82.3961	5.21683e-06	-4.33657e-07	170448
0.215268	24.8957	2.97373	25.0726	-6.81158	45.4048	0.271884	-0.000851083	248622	3497.38	1	12	0.00473883	0.000189004	0	0.000137747	0.0396026	0.00473044	0.0398841	6.81158	3.49738e+06	2.92796e+07	2.94877e+07	-83.1884	0.0000000E+000	0.0000000E+000	0.0000000E+000	83.1884	0.0000000E+000	0.0000000E+000	0.0000000E+000	-83.1884	0.0000000E+000	0.0000000E+000	0.0000000E+000	-6.81158	0.0000000E+000	0.0000000E+000	0.0000000E+000	6.81158	8.37186	83.1884	2.07003e-05	-2.31396e-07	319457
0.0999041	26.0418	3.46876	26.2718	-7.58711	80.8104	0.271875	0.000554386	459265	8006.28	1	12	0.00473998	0.000180421	0	0.000144777	0.0377304	0.00502567	0.0380636	7.58711	8.00628e+06	6.01074e+07	6.06383e+07	-82.4129	0.0000000E+000	0.0000000E+000	0.0000000E+000	82.4129	0.0000000E+000	0.0000000E+000	0.0000000E+000	-82.4129	0.0000000E+000	0.0000000E+000	0.0000000E+000	-7.58711	0.0000000E+000	0.0000000E+000	0.0000000E+000	7.58711	7.50753	82.4129	-8.31253e-06	1.50724e-07	490408
0.0464052	27.2706	4.72415	27.6768	-9.82795	157.047	0.271885	0.000467823	725989	21151.8	1	12	0.00474053	0.000171282	0	4.86341e-06	0.0356012	0.00616727	0.0361314	9.82795	2.11518e+07	1.22101e+08	1.23919e+08	-80.172	0.0000000E+000	0.0000000E+000	0.0000000E+000	80.172	0.0000000E+000	0.0000000E+000	0.0000000E+000	-80.172	0.0000000E+000	0.0000000E+000	0.0000000E+000	-9.82795	0.0000000E+000	0.0000000E+000	0.0000000E+000	9.82795	5.77259	80.172	-9.78424e-05	1.27194e-07	581170
0.0215268	29.3595	7.27084	30.2464	-13.9094	321.276	0.271885	-0.00154985	1.01685e+06	58759.7	1	12	0.00474245	0.000156794	0	-0.000225557	0.0320924	0.00794764	0.0330618	13.9094	5.87597e+07	2.3727e+08	2.44437e+08	-76.0906	0.0000000E+000	0.0000000E+000	0.0000000E+000	76.0906	0.0000000E+000	0.0000000E+000	0.0000000E+000	-76.0906	0.0000000E+000	0.0000000E+000	0.0000000E+000	-13.9094	0.0000000E+000	0.0000000E+000	0.0000000E+000	13.9094	4.03797	76.0906	-9.93606e-05	-4.2138e-07	175427
0.0146812	30.569	9.23232	31.9327	-16.8052	464.472	0.271884	-0.00184437	1.17422e+06	98151.9	1	12	0.00474177	0.000148493	0	-0.00018612	0.0299785	0.00905398	0.0313159	16.8052	9.81519e+07	3.24989e+08	3.39487e+08	-73.1948	0.0000000E+000	0.0000000E+000	0.0000000E+000	73.1948	0.0000000E+000	0.0000000E+000	0.0000000E+000	-73.1948	0.0000000E+000	0.0000000E+000	0.0000000E+000	-16.8052	0.0000000E+000	0.0000000E+000	0.0000000E+000	16.8052	3.31108	73.1948	3.94368e-05	-5.01454e-07	147413

0.0100092	31.9056	11.519	33.9213	-19.8512	674.494	0.271883	-0.00137276	1.38041e+06	159180	1	12	0.00474169	0.000139785	0	7.75898e-05	0.0277282	0.0100108	0.02948	19.8512	1.5918e+08	4.40904e+08	4.68759e+08	-70.1488	0.0000000E+000	0.0000000E+000	0.0000000E+000	70.1488	0.0000000E+000	0.0000000E+000	0.0000000E+000	-70.1488	0.0000000E+000	0.0000000E+000	0.0000000E+000	-19.8512	0.0000000E+000	0.0000000E+000	0.0000000E+000	19.8512	2.76984	70.1488	0.000263709	-3.7323e-07	198056