Folder: EIS/txt (part 83)

File: 18395_R277_UA689_SOC00_C02.mpt
EC-Lab ASCII FILE
Nb header lines : 65

Potentio Electrochemical Impedance Spectroscopy

Run on channel : 2 (SN 66139)
User :
CE vs. WE compliance from -10 V to 10 V
Electrode connection : standard
Potential control : Ewe
Ewe ctrl range : min = -10.00 V, max = 10.00 V
Safety Limits :
	Do not start on E overload
Acquisition started on : 10/13/2025 14:53:41.347
Technique started on : 10/13/2025 14:53:43.258
Loaded Setting File :  C:\Users\Celltest\OneDrive - store-dot.com\Documents\EC-Lab\Data\@Biologic Test Protocols\anode half cell EIS SOC00.mps
Saved on :
	File : 18395_R277_UA689_SOC00_C02.mpr
	Directory : C:\Users\Celltest\OneDrive - store-dot.com\Documents\EC-Lab\Data\Gyutae\
	Host : 169.254.61.224
Device : VMP-3e (SN .003165)
Address : USB
EC-LAB for windows v11.62 (software)
Internet server v27.00 (firmware)
Command interpretor v12.03 (firmware)
Electrode material :
Initial state :
Electrolyte :
Comments :
Electrode surface area : 0.001 cm²
Characteristic mass : 0.001 g
Equivalent Weight : 0.000 g/eq.
Density : 0.000 g/cm3
Volume (V) : 0.001 cm³
Record Ece
Cycle Definition : Charge/Discharge alternance
Mode                Single sine
E (V)               0.0000
vs.                 Eoc
tE (h:m:s)          0:00:0.0000
record              0
dI                  0.000
unit dI             mA
dt (s)              0.000
fi                  100.000
unit fi             kHz
ff                  10.000
unit ff             mHz
Nd                  6
Points              per decade
spacing             Logarithmic
Va (mV)             5.0
pw                  0.10
Na                  2
corr                0
E range min (V)     -10.000
E range max (V)     10.000
I Range             Auto
Bandwidth           5
nc cycles           0
goto Ns'            0
nr cycles           0
inc. cycle          0

freq/Hz	Re(Z)/Ohm	-Im(Z)/Ohm	|Z|/Ohm	Phase(Z)/deg	time/s	<Ewe>/V	<I>/mA	Cs/µF	Cp/µF	cycle number	I Range	|Ewe|/V	|I|/A	Ns	(Q-Qo)/mA.h	<Ece>/V	|Ece|/V	Phase(Zce)/deg	|Zce|/Ohm	Re(Zce)/Ohm	-Im(Zce)/Ohm	Phase(Zwe-ce)/deg	|Zwe-ce|/Ohm	Re(Zwe-ce)/Ohm	-Im(Zwe-ce)/Ohm	Re(Y)/Ohm-1	Im(Y)/Ohm-1	|Y|/Ohm-1	Phase(Y)/deg	Re(C)/nF	Im(C)/nF	|C|/nF	Phase(C)/deg	Re(M)	Im(M)	|M|	Phase(M)/deg	Re(Permittivity)	Im(Permittivity)	|Permittivity|	Phase(Permittivity)/deg	Re(Resistivity)/Ohm.cm	Im(Resistivity)/Ohm.cm	|Resistivity|/Ohm.cm	Phase(Resistivity)/deg	Re(Conductivity)/mS/cm	Im(Conductivity)/mS/cm	|Conductivity|/mS/cm	Phase(Conductivity)/deg	Tan(Delta)	Loss Angle(Delta)/deg	dq/mA.h	Pwe/W	Pce/W	Pwe-ce/W	<Ewe-Ece>/V	Rwe/Ohm	Rce/Ohm	Rwe-ce/Ohm		Ewe-Ece/V
100004	1.68666	0.606736	1.79247	-19.785	1.91055	0.241921	0.00327993	2.62304	0.300538	1	9	0.004521	0.00252222	0	-4.23965e-06	-1.87484e-05	1.48352e-05	94.8929	0.0058818	-0.000501679	-0.00586037	-19.6139	1.79002	1.68616	0.600875	0.524956	0.18884	0.557889	19.785	300.538	835.463	887.875	-70.215	0.0000000E+000	0.0000000E+000	0.0000000E+000	70.215	0.0000000E+000	0.0000000E+000	0.0000000E+000	-70.215	0.0000000E+000	0.0000000E+000	0.0000000E+000	-19.785	0.0000000E+000	0.0000000E+000	0.0000000E+000	19.785	2.7799	70.215	-4.23965e-06	7.93485e-07	-6.14934e-11	7.93547e-07	0.24194	73758	5.71608	73763.8
31621.1	2.23764	0.944854	2.42894	-22.8922	3.43154	0.241904	0.00231151	5.32694	0.806069	1	9	0.00504749	0.00207806	0	-1.47552e-05	3.42479e-07	1.0173e-05	-6.57785	0.00489541	0.00486319	0.000560785	-22.8598	2.43364	2.2425	0.945414	0.379275	0.160151	0.411702	22.8922	806.07	1908.96	2072.17	-67.1078	0.0000000E+000	0.0000000E+000	0.0000000E+000	67.1078	0.0000000E+000	0.0000000E+000	0.0000000E+000	-67.1078	0.0000000E+000	0.0000000E+000	0.0000000E+000	-22.8922	0.0000000E+000	0.0000000E+000	0.0000000E+000	22.8922	2.36824	67.1078	-6.3633e-06	5.59164e-07	7.91645e-13	5.59163e-07	0.241904	104652	0.148162	104652
10002.2	3.0024	1.31357	3.27717	-23.6297	4.45656	0.241903	-0.00383407	12.1135	1.94615	1	9	0.00496731	0.00151573	0	-1.49768e-05	7.67059e-05	6.77354e-06	71.1157	0.00446884	0.00144638	-0.0042283	-23.5518	3.27681	3.00385	1.30934	0.279556	0.122308	0.305141	23.6297	1946.15	4448.29	4855.39	-66.3703	0.0000000E+000	0.0000000E+000	0.0000000E+000	66.3703	0.0000000E+000	0.0000000E+000	0.0000000E+000	-66.3703	0.0000000E+000	0.0000000E+000	0.0000000E+000	-23.6297	0.0000000E+000	0.0000000E+000	0.0000000E+000	23.6297	2.28568	66.3703	-9.34372e-07	-9.27471e-07	-2.94095e-10	-9.27177e-07	0.241826	63093	20.0064	63073
3163.08	4.00117	1.90564	4.43179	-25.4671	5.51267	0.241839	-0.0247464	26.404	4.88193	1	10	0.00481703	0.00108693	0	-1.95905e-05	0.000324887	8.36431e-06	-15.0598	0.00769538	0.00743109	0.00199947	-25.4492	4.43936	4.0086	1.90764	0.203717	0.0970246	0.225642	25.4671	4881.93	10250.3	11353.5	-64.5329	0.0000000E+000	0.0000000E+000	0.0000000E+000	64.5329	0.0000000E+000	0.0000000E+000	0.0000000E+000	-64.5329	0.0000000E+000	0.0000000E+000	0.0000000E+000	-25.4671	0.0000000E+000	0.0000000E+000	0.0000000E+000	25.4671	2.09964	64.5329	-3.25347e-06	-5.98464e-06	-8.03977e-09	-5.9766e-06	0.241514	9772.72	13.1287	9759.59
1000.32	5.31299	3.0413	6.12187	-29.788	6.86586	0.241851	-0.0167409	52.3146	12.9113	1	10	0.00462688	0.000755796	0	-2.4994e-05	0.000267614	3.19687e-06	77.5099	0.00422981	0.000914785	-0.00412971	-29.7502	6.12061	5.3139	3.03717	0.141765	0.0811503	0.163349	29.788	12911.3	22555.4	25989.4	-60.212	0.0000000E+000	0.0000000E+000	0.0000000E+000	60.212	0.0000000E+000	0.0000000E+000	0.0000000E+000	-60.212	0.0000000E+000	0.0000000E+000	0.0000000E+000	-29.788	0.0000000E+000	0.0000000E+000	0.0000000E+000	29.788	1.74695	60.212	-1.51462e-06	-4.04879e-06	-4.4801e-09	-4.04431e-06	0.241583	14446.7	15.9857	14430.7
316.316	7.534	5.76251	9.48513	-37.4112	8.21608	0.241847	-0.0166813	87.3147	32.2273	1	10	0.00455787	0.000480527	0	-3.13643e-05	5.7615e-05	8.50333e-06	-39.5981	0.0176958	0.0136353	0.0112793	-37.4153	9.50282	7.54764	5.77379	0.0837412	0.0640509	0.105428	37.4112	32227.3	42134.5	53046.4	-52.5888	0.0000000E+000	0.0000000E+000	0.0000000E+000	52.5888	0.0000000E+000	0.0000000E+000	0.0000000E+000	-52.5888	0.0000000E+000	0.0000000E+000	0.0000000E+000	-37.4112	0.0000000E+000	0.0000000E+000	0.0000000E+000	37.4112	1.30742	52.5888	-2.37637e-06	-4.03432e-06	-9.61093e-10	-4.03336e-06	0.241789	14498.1	3.45387	14494.6
100.032	13.6116	10.3377	17.0922	-37.2156	9.5638	0.241846	-0.0159214	153.907	56.2997	1	10	0.00455056	0.000266236	0	-3.71612e-05	0.000286705	4.80039e-06	87.0627	0.0180306	0.000923947	-0.0180069	-37.1657	17.0821	13.6126	10.3196	0.0465923	0.0353855	0.0585062	37.2156	56299.7	74130.1	93085.6	-52.7844	0.0000000E+000	0.0000000E+000	0.0000000E+000	52.7844	0.0000000E+000	0.0000000E+000	0.0000000E+000	-52.7844	0.0000000E+000	0.0000000E+000	0.0000000E+000	-37.2156	0.0000000E+000	0.0000000E+000	0.0000000E+000	37.2156	1.31671	52.7844	-2.27902e-06	-3.85052e-06	-4.56473e-09	-3.84596e-06	0.24156	15190.1	18.0076	15172.1
[...]
1.00006	38.3315	3.68854	38.5086	-5.4965	19.3119	0.241899	-0.00585259	43145.7	395.851	1	12	0.00454419	0.000118005	0	-5.95311e-05	0.000153069	1.83213e-06	35.9055	0.0155259	0.0125758	-0.00910517	-5.48123	38.5202	38.3441	3.67944	0.0258488	0.00248737	0.0259682	5.4965	395851	4.11371e+06	4.13271e+06	-84.5035	0.0000000E+000	0.0000000E+000	0.0000000E+000	84.5035	0.0000000E+000	0.0000000E+000	0.0000000E+000	-84.5035	0.0000000E+000	0.0000000E+000	0.0000000E+000	-5.4965	0.0000000E+000	0.0000000E+000	0.0000000E+000	5.4965	10.3921	84.5035	-4.27012e-06	-1.41574e-06	-8.95851e-10	-1.41484e-06	0.241746	41332	26.1541	41305.9
0.316193	40.1895	3.56049	40.3469	-5.06275	33.6557	0.241899	-0.00528186	141370	1100.92	1	12	0.00454887	0.000112744	0	-6.32134e-05	3.42479e-07	2.14578e-06	17.6364	0.0190324	0.0181378	-0.00576632	-5.05233	40.3645	40.2077	3.55472	0.0246883	0.0021872	0.024785	5.06275	1.10092e+06	1.24268e+07	1.24755e+07	-84.9372	0.0000000E+000	0.0000000E+000	0.0000000E+000	84.9372	0.0000000E+000	0.0000000E+000	0.0000000E+000	-84.9372	0.0000000E+000	0.0000000E+000	0.0000000E+000	-5.06275	0.0000000E+000	0.0000000E+000	0.0000000E+000	5.06275	11.2876	84.9372	-5.88224e-07	-1.27768e-06	-1.80893e-12	-1.27768e-06	0.241899	45798.1	0.0648407	45798.1
0.0999041	42.066	5.56896	42.433	-7.54132	78.8638	0.241893	-0.00401689	286064	4927.23	1	12	0.00454658	0.000107147	0	-0.000138802	0.000267614	1.27209e-06	-36.4121	0.0118724	0.00955453	0.00704732	-7.54906	42.4434	42.0756	5.57601	0.0233627	0.0030929	0.0235665	7.54132	4.92723e+06	3.72186e+07	3.75433e+07	-82.4587	0.0000000E+000	0.0000000E+000	0.0000000E+000	82.4587	0.0000000E+000	0.0000000E+000	0.0000000E+000	-82.4587	0.0000000E+000	0.0000000E+000	0.0000000E+000	-7.54132	0.0000000E+000	0.0000000E+000	0.0000000E+000	7.54132	7.55365	82.4587	-4.73541e-05	-9.71657e-07	-1.07498e-09	-9.70582e-07	0.241625	60219	66.6223	60152.4
0.0315922	45.882	11.2788	47.2479	-13.8107	221.746	0.241894	-0.00573033	446661	25452.9	1	12	0.00454678	9.62324e-05	0	-0.000452264	0.000114888	1.23731e-06	8.8402	0.0128576	0.0127048	-0.00197594	-13.8047	47.2598	45.8947	11.2768	0.0205531	0.00505239	0.021165	13.8107	2.54529e+07	1.03542e+08	1.06625e+08	-76.1893	0.0000000E+000	0.0000000E+000	0.0000000E+000	76.1893	0.0000000E+000	0.0000000E+000	0.0000000E+000	-76.1893	0.0000000E+000	0.0000000E+000	0.0000000E+000	-13.8107	0.0000000E+000	0.0000000E+000	0.0000000E+000	13.8107	4.06799	76.1893	-0.000123715	-1.38613e-06	-6.58344e-10	-1.38548e-06	0.241779	42213	20.049	42192.9
0.0100092	54.5641	23.855	59.5509	-23.6146	672.969	0.241886	-0.00648251	666565	106961	1	12	0.00454698	7.63545e-05	0	-0.00081024	0.000382159	1.40441e-06	-2.38853	0.0183933	0.0183773	0.000766552	-23.6082	59.568	54.5825	23.8558	0.0153862	0.00672672	0.0167924	23.6146	1.06961e+08	2.44654e+08	2.67014e+08	-66.3854	0.0000000E+000	0.0000000E+000	0.0000000E+000	66.3854	0.0000000E+000	0.0000000E+000	0.0000000E+000	-66.3854	0.0000000E+000	0.0000000E+000	0.0000000E+000	-23.6146	0.0000000E+000	0.0000000E+000	0.0000000E+000	23.6146	2.28732	66.3854	-0.000161058	-1.56803e-06	-2.47735e-09	-1.56555e-06	0.241503	37313.6	58.9524	37254.6

File: 18396_R277_UA690_SOC00_C05.mpt
EC-Lab ASCII FILE
Nb header lines : 65

Potentio Electrochemical Impedance Spectroscopy

Run on channel : 5 (SN 65912)
User :
CE vs. WE compliance from -10 V to 10 V
Electrode connection : standard
Potential control : Ewe
Ewe ctrl range : min = -10.00 V, max = 10.00 V
Safety Limits :
	Do not start on E overload
Acquisition started on : 10/13/2025 14:56:20.136
Technique started on : 10/13/2025 14:56:22.190
Loaded Setting File :  C:\Users\Celltest\OneDrive - store-dot.com\Documents\EC-Lab\Data\@Biologic Test Protocols\anode half cell EIS SOC00.mps
Saved on :
	File : 18396_R277_UA690_SOC00_C05.mpr
	Directory : C:\Users\Celltest\OneDrive - store-dot.com\Documents\EC-Lab\Data\Gyutae\
	Host : 169.254.61.224
Device : VMP-3e (SN .003165)
Address : USB
EC-LAB for windows v11.62 (software)
Internet server v27.00 (firmware)
Command interpretor v12.03 (firmware)
Electrode material :
Initial state :
Electrolyte :
Comments :
Electrode surface area : 0.001 cm²
Characteristic mass : 0.001 g
Equivalent Weight : 0.000 g/eq.
Density : 0.000 g/cm3
Volume (V) : 0.001 cm³
Record Ece
Cycle Definition : Charge/Discharge alternance
Mode                Single sine
E (V)               0.0000
vs.                 Eoc
tE (h:m:s)          0:00:0.0000
record              0
dI                  0.000
unit dI             mA
dt (s)              0.000
fi                  100.000
unit fi             kHz
ff                  10.000
unit ff             mHz
Nd                  6
Points              per decade
spacing             Logarithmic
Va (mV)             5.0
pw                  0.10
Na                  2
corr                0
E range min (V)     -10.000
E range max (V)     10.000
I Range             Auto
Bandwidth           5
nc cycles           0
goto Ns'            0
nr cycles           0
inc. cycle          0

freq/Hz	Re(Z)/Ohm	-Im(Z)/Ohm	|Z|/Ohm	Phase(Z)/deg	time/s	<Ewe>/V	<I>/mA	Cs/µF	Cp/µF	cycle number	I Range	|Ewe|/V	|I|/A	Ns	(Q-Qo)/mA.h	<Ece>/V	|Ece|/V	Phase(Zce)/deg	|Zce|/Ohm	Re(Zce)/Ohm	-Im(Zce)/Ohm	Phase(Zwe-ce)/deg	|Zwe-ce|/Ohm	Re(Zwe-ce)/Ohm	-Im(Zwe-ce)/Ohm	Re(Y)/Ohm-1	Im(Y)/Ohm-1	|Y|/Ohm-1	Phase(Y)/deg	Re(C)/nF	Im(C)/nF	|C|/nF	Phase(C)/deg	Re(M)	Im(M)	|M|	Phase(M)/deg	Re(Permittivity)	Im(Permittivity)	|Permittivity|	Phase(Permittivity)/deg	Re(Resistivity)/Ohm.cm	Im(Resistivity)/Ohm.cm	|Resistivity|/Ohm.cm	Phase(Resistivity)/deg	Re(Conductivity)/mS/cm	Im(Conductivity)/mS/cm	|Conductivity|/mS/cm	Phase(Conductivity)/deg	Tan(Delta)	Loss Angle(Delta)/deg	dq/mA.h	Pwe/W	Pce/W	Pwe-ce/W	<Ewe-Ece>/V	Rwe/Ohm	Rce/Ohm	Rwe-ce/Ohm		Ewe-Ece/V
100004	1.11846	0.377688	1.18051	-18.6591	2.05356	0.234093	-0.00449027	4.21377	0.43132	1	9	0.0050418	0.00427087	0	-5.06425e-06	-0.000117823	4.75253e-05	72.4143	0.0111278	0.00336206	-0.0106077	-18.119	1.18035	1.12182	0.36708	0.802569	0.271016	0.847093	18.6591	431.32	1277.28	1348.14	-71.3409	0.0000000E+000	0.0000000E+000	0.0000000E+000	71.3409	0.0000000E+000	0.0000000E+000	0.0000000E+000	-71.3409	0.0000000E+000	0.0000000E+000	0.0000000E+000	-18.6591	0.0000000E+000	0.0000000E+000	0.0000000E+000	18.6591	2.96133	71.3409	-5.06425e-06	-1.05114e-06	5.29056e-10	-1.05167e-06	0.234211	52133.5	26.2396	52159.7
31621.1	1.44684	0.546368	1.54656	-20.688	3.33052	0.234049	-0.0133534	9.21207	1.14973	1	9	0.00533748	0.00345119	0	-1.07023e-06	7.30894e-05	1.24729e-05	13.528	0.0036141	0.00351383	-0.000845414	-20.6129	1.54955	1.45035	0.545523	0.604902	0.228429	0.646596	20.688	1149.73	3044.58	3254.44	-69.312	0.0000000E+000	0.0000000E+000	0.0000000E+000	69.312	0.0000000E+000	0.0000000E+000	0.0000000E+000	-69.312	0.0000000E+000	0.0000000E+000	0.0000000E+000	-20.688	0.0000000E+000	0.0000000E+000	0.0000000E+000	20.688	2.6481	69.312	-3.7529e-06	-3.12535e-06	-9.7599e-10	-3.12437e-06	0.233976	17527.4	5.47349	17521.9
10002.2	1.87021	0.756948	2.01759	-22.0351	4.47953	0.234027	-0.0077674	21.0212	2.95887	1	9	0.00510357	0.00252954	0	-3.8783e-06	0.000264002	8.99494e-06	-58.2322	0.00355595	0.00187213	0.00302323	-22.0947	2.02046	1.87208	0.759972	0.459437	0.185953	0.495642	22.0351	2958.87	7310.54	7886.63	-67.9649	0.0000000E+000	0.0000000E+000	0.0000000E+000	67.9649	0.0000000E+000	0.0000000E+000	0.0000000E+000	-67.9649	0.0000000E+000	0.0000000E+000	0.0000000E+000	-22.0351	0.0000000E+000	0.0000000E+000	0.0000000E+000	22.0351	2.47072	67.9649	2.07389e-06	-1.81778e-06	-2.05061e-09	-1.81573e-06	0.233763	30129.4	33.9884	30095.4
3163.08	2.45797	1.10992	2.69695	-24.3019	5.80767	0.233989	-0.0362559	45.3336	7.67811	1	9	0.00511023	0.00189482	0	-1.00814e-05	9.21806e-05	9.83466e-06	12.8882	0.00519029	0.00505953	-0.00115769	-24.2354	2.70109	2.46303	1.10876	0.337933	0.152596	0.370789	24.3019	7678.11	17003.6	18656.8	-65.6981	0.0000000E+000	0.0000000E+000	0.0000000E+000	65.6981	0.0000000E+000	0.0000000E+000	0.0000000E+000	-65.6981	0.0000000E+000	0.0000000E+000	0.0000000E+000	-24.3019	0.0000000E+000	0.0000000E+000	0.0000000E+000	24.3019	2.21456	65.6981	-7.76867e-06	-8.48347e-06	-3.34209e-09	-8.48013e-06	0.233897	6453.82	2.5425	6451.28
1000.32	3.26274	1.73361	3.69471	-27.9833	7.40482	0.234013	-0.0137378	91.776	20.2057	1	10	0.00502053	0.00135884	0	-1.52503e-05	-7.96403e-05	1.3027e-05	157	0.00958683	-0.00882473	-0.00374587	-27.9963	3.68516	3.25391	1.72987	0.239013	0.126997	0.270657	27.9833	20205.7	38028	43062.7	-62.0167	0.0000000E+000	0.0000000E+000	0.0000000E+000	62.0167	0.0000000E+000	0.0000000E+000	0.0000000E+000	-62.0167	0.0000000E+000	0.0000000E+000	0.0000000E+000	-27.9833	0.0000000E+000	0.0000000E+000	0.0000000E+000	27.9833	1.88205	62.0167	-5.06979e-07	-3.21482e-06	1.09408e-09	-3.21591e-06	0.234092	17034.2	5.79717	17040
316.316	4.67285	3.10201	5.60874	-33.5777	8.75407	0.234024	-0.0128591	162.202	49.6148	1	10	0.00481011	0.000857609	0	-2.03814e-05	9.21806e-05	8.03205e-06	58.8011	0.00936563	0.00485149	-0.00801112	-33.4821	5.60836	4.6777	3.094	0.148543	0.0986081	0.178293	33.5777	49614.8	74739.5	89708.5	-56.4223	0.0000000E+000	0.0000000E+000	0.0000000E+000	56.4223	0.0000000E+000	0.0000000E+000	0.0000000E+000	-56.4223	0.0000000E+000	0.0000000E+000	0.0000000E+000	-33.5777	0.0000000E+000	0.0000000E+000	0.0000000E+000	33.5777	1.50639	56.4223	-8.33114e-07	-3.00933e-06	-1.18536e-09	-3.00815e-06	0.233932	18199.2	7.16853	18192
100.032	8.14047	4.57101	9.33603	-29.3149	10.1018	0.234018	-0.0130304	348.072	83.439	1	10	0.0047477	0.000508536	0	-2.46453e-05	0.000264002	1.04689e-05	-23.5693	0.0205864	0.018869	0.00823165	-29.3023	9.35651	8.15934	4.57924	0.0933954	0.052443	0.107112	29.3149	83439	148596	170419	-60.6851	0.0000000E+000	0.0000000E+000	0.0000000E+000	60.6851	0.0000000E+000	0.0000000E+000	0.0000000E+000	-60.6851	0.0000000E+000	0.0000000E+000	0.0000000E+000	-29.3149	0.0000000E+000	0.0000000E+000	0.0000000E+000	29.3149	1.78089	60.6851	-1.26867e-06	-3.04934e-06	-3.44004e-09	-3.0459e-06	0.233754	17959.5	20.2605	17939.2
[...]
1.00006	15.7595	1.09192	15.7973	-3.96348	19.1218	0.234026	-0.00648304	145747	696.333	1	11	0.00475116	0.000300757	0	-5.4997e-05	3.4907e-05	2.1248e-06	-27.4623	0.00706485	0.00626875	0.00325806	-3.9737	15.8038	15.7658	1.09518	0.0631505	0.00437547	0.0633019	3.96348	696333	1.00501e+07	1.00742e+07	-86.0365	0.0000000E+000	0.0000000E+000	0.0000000E+000	86.0365	0.0000000E+000	0.0000000E+000	0.0000000E+000	-86.0365	0.0000000E+000	0.0000000E+000	0.0000000E+000	-3.96348	0.0000000E+000	0.0000000E+000	0.0000000E+000	3.96348	14.4328	86.0365	-7.16234e-06	-1.5172e-06	-2.26303e-10	-1.51698e-06	0.233992	36098.3	5.38436	36092.9
0.316193	16.2695	1.27415	16.3193	-4.47799	34.9777	0.234028	-0.00546159	395046	2408.16	1	12	0.00474625	0.000290837	0	-3.54022e-05	0.000168545	3.30878e-06	-9.87207	0.0113768	0.0112083	0.00195053	-4.48175	16.3306	16.2807	1.2761	0.0610902	0.0047843	0.0612772	4.47799	2.40816e+06	3.07496e+07	3.08437e+07	-85.522	0.0000000E+000	0.0000000E+000	0.0000000E+000	85.522	0.0000000E+000	0.0000000E+000	0.0000000E+000	-85.522	0.0000000E+000	0.0000000E+000	0.0000000E+000	-4.47799	0.0000000E+000	0.0000000E+000	0.0000000E+000	4.47799	12.7689	85.522	1.31371e-05	-1.27816e-06	-9.20526e-10	-1.27724e-06	0.233859	42849.7	30.8602	42818.9
0.0999041	16.9485	2.46171	17.1263	-8.26424	80.1858	0.234027	-0.00304919	647142	13370.5	1	12	0.0047459	0.000277111	0	-0.00013979	-4.14579e-05	1.76428e-06	-30.1917	0.00636668	0.00550302	0.00320177	-8.27219	17.1322	16.954	2.46492	0.0577833	0.00839285	0.0583897	8.26424	1.33705e+07	9.20533e+07	9.30193e+07	-81.7358	0.0000000E+000	0.0000000E+000	0.0000000E+000	81.7358	0.0000000E+000	0.0000000E+000	0.0000000E+000	-81.7358	0.0000000E+000	0.0000000E+000	0.0000000E+000	-8.26424	0.0000000E+000	0.0000000E+000	0.0000000E+000	8.26424	6.88483	81.7358	-8.16443e-05	-7.13593e-07	1.26413e-10	-7.13719e-07	0.234068	76750.6	13.5964	76764.1
0.0315922	18.627	5.51961	19.4276	-16.5058	223.069	0.234027	-0.00758848	912707	73673.3	1	12	0.00475078	0.000244538	0	-0.000651369	0.000168545	2.2139e-06	-4.27345	0.0090534	0.00902823	0.000674629	-16.5001	19.4365	18.6361	5.52029	0.049352	0.0146241	0.0514731	16.5058	7.36733e+07	2.48625e+08	2.59311e+08	-73.4942	0.0000000E+000	0.0000000E+000	0.0000000E+000	73.4942	0.0000000E+000	0.0000000E+000	0.0000000E+000	-73.4942	0.0000000E+000	0.0000000E+000	0.0000000E+000	-16.5058	0.0000000E+000	0.0000000E+000	0.0000000E+000	16.5058	3.3747	73.4942	-0.000171746	-1.77591e-06	-1.279e-09	-1.77463e-06	0.233858	30839.7	22.2107	30817.5
0.0100092	22.5743	12.2008	25.6604	-28.39	674.292	0.23403	-0.00804219	1.30327e+06	294634	1	12	0.00475053	0.000185131	0	-0.000582115	0.000130363	3.15847e-06	-1.61369	0.0170607	0.017054	0.000480438	-28.3729	25.6757	22.5913	12.2013	0.0342836	0.0185294	0.0389705	28.39	2.94634e+08	5.4514e+08	6.19667e+08	-61.61	0.0000000E+000	0.0000000E+000	0.0000000E+000	61.61	0.0000000E+000	0.0000000E+000	0.0000000E+000	-61.61	0.0000000E+000	0.0000000E+000	0.0000000E+000	-28.39	0.0000000E+000	0.0000000E+000	0.0000000E+000	28.39	1.85023	61.61	2.56402e-05	-1.88211e-06	-1.0484e-09	-1.88106e-06	0.233899	29100.3	16.2099	29084.1