Folder: EIS/txt (part 150)

File: 19004_R309_UA708_SOC00_C03.mpt
EC-Lab ASCII FILE
Nb header lines : 65

Potentio Electrochemical Impedance Spectroscopy

Run on channel : 3 (SN 65921)
Grouped channel(s) : 2, 3, 4, 5, 6
User :
CE vs. WE compliance from -10 V to 10 V
Electrode connection : standard
Potential control : Ewe
Ewe ctrl range : min = -10.00 V, max = 10.00 V
Safety Limits :
	Do not start on E overload
Acquisition started on : 11/04/2025 16:08:38.802
Loaded Setting File :  C:\Users\Celltest\OneDrive - store-dot.com\Documents\EC-Lab\Data\@Biologic Test Protocols\anode half cell EIS SOC00.mps
Saved on :
	File : 19003_R309_UA708_SOC00_C03.mpr
	Directory : C:\Users\Celltest\OneDrive - store-dot.com\Documents\EC-Lab\Data\Charmaine\
	Host : 169.254.61.224
Device : VMP-3e (SN .003165)
Address : USB
EC-LAB for windows v11.62 (software)
Internet server v27.00 (firmware)
Command interpretor v12.03 (firmware)
Electrode material :
Initial state :
Electrolyte :
Comments :
Electrode surface area : 0.001 cm²
Characteristic mass : 0.001 g
Equivalent Weight : 0.000 g/eq.
Density : 0.000 g/cm3
Volume (V) : 0.001 cm³
Record Ece
Cycle Definition : Charge/Discharge alternance
Mode                Single sine
E (V)               0.0000
vs.                 Eoc
tE (h:m:s)          0:00:0.0000
record              0
dI                  0.000
unit dI             mA
dt (s)              0.000
fi                  100.000
unit fi             kHz
ff                  10.000
unit ff             mHz
Nd                  6
Points              per decade
spacing             Logarithmic
Va (mV)             5.0
pw                  0.10
Na                  2
corr                0
E range min (V)     -10.000
E range max (V)     10.000
I Range             Auto
Bandwidth           5
nc cycles           0
goto Ns'            0
nr cycles           0
inc. cycle          0

freq/Hz	Re(Z)/Ohm	-Im(Z)/Ohm	|Z|/Ohm	Phase(Z)/deg	time/s	<Ewe>/V	<I>/mA	Cs/µF	Cp/µF	cycle number	I Range	|Ewe|/V	|I|/A	Ns	(Q-Qo)/mA.h	<Ece>/V	|Ece|/V	Phase(Zce)/deg	|Zce|/Ohm	Re(Zce)/Ohm	-Im(Zce)/Ohm	Phase(Zwe-ce)/deg	|Zwe-ce|/Ohm	Re(Zwe-ce)/Ohm	-Im(Zwe-ce)/Ohm	Re(Y)/Ohm-1	Im(Y)/Ohm-1	|Y|/Ohm-1	Phase(Y)/deg	Re(C)/nF	Im(C)/nF	|C|/nF	Phase(C)/deg	Re(M)	Im(M)	|M|	Phase(M)/deg	Re(Permittivity)	Im(Permittivity)	|Permittivity|	Phase(Permittivity)/deg	Re(Resistivity)/Ohm.cm	Im(Resistivity)/Ohm.cm	|Resistivity|/Ohm.cm	Phase(Resistivity)/deg	Re(Conductivity)/mS/cm	Im(Conductivity)/mS/cm	|Conductivity|/mS/cm	Phase(Conductivity)/deg	Tan(Delta)	Loss Angle(Delta)/deg	dq/mA.h	Pwe/W	Pce/W	Pwe-ce/W	<Ewe-Ece>/V	Rwe/Ohm	Rce/Ohm	Rwe-ce/Ohm		Ewe-Ece/V
100004	1.84133	0.689765	1.96628	-20.5361	1.86852	0.249894	-0.0463623	2.30729	0.283932	1	9	0.00493873	0.00251171	0	-9.19406e-06	7.2142e-05	3.361e-05	63.6667	0.0133813	0.00593584	-0.0119927	-20.1484	1.96768	1.84726	0.677773	0.476255	0.178406	0.508574	20.5361	283.932	757.955	809.391	-69.4639	0.0000000E+000	0.0000000E+000	0.0000000E+000	69.4639	0.0000000E+000	0.0000000E+000	0.0000000E+000	-69.4639	0.0000000E+000	0.0000000E+000	0.0000000E+000	-20.5361	0.0000000E+000	0.0000000E+000	0.0000000E+000	20.5361	2.6695	69.4639	-9.19406e-06	-1.15857e-05	-3.34467e-09	-1.15823e-05	0.249822	5390.02	1.55605	5388.47
31621.1	2.47645	0.869251	2.62458	-19.3414	3.01752	0.249974	0.0543303	5.79025	0.635141	1	9	0.00539356	0.00205502	0	-1.35618e-05	-2.33283e-05	1.37973e-05	116.887	0.00671396	-0.00303631	-0.00598816	-19.2399	2.61973	2.47341	0.863263	0.35951	0.126191	0.381014	19.3414	635.14	1809.48	1917.71	-70.6586	0.0000000E+000	0.0000000E+000	0.0000000E+000	70.6586	0.0000000E+000	0.0000000E+000	0.0000000E+000	-70.6586	0.0000000E+000	0.0000000E+000	0.0000000E+000	-19.3414	0.0000000E+000	0.0000000E+000	0.0000000E+000	19.3414	2.84894	70.6586	2.07471e-06	1.35812e-05	-1.26744e-09	1.35825e-05	0.249998	4601.01	0.42938	4601.44
10002.2	3.12245	0.983458	3.27366	-17.4825	4.17055	0.249948	-0.011381	16.1796	1.4602	1	9	0.00506913	0.00154846	0	-9.59122e-06	-0.000271551	4.25287e-06	40.6847	0.00274652	0.00208271	-0.00179045	-17.4417	3.27511	3.12453	0.981668	0.291358	0.0917672	0.305468	17.4825	1460.19	4636.08	4860.59	-72.5175	0.0000000E+000	0.0000000E+000	0.0000000E+000	72.5175	0.0000000E+000	0.0000000E+000	0.0000000E+000	-72.5175	0.0000000E+000	0.0000000E+000	0.0000000E+000	-17.4825	0.0000000E+000	0.0000000E+000	0.0000000E+000	17.4825	3.17497	72.5175	3.82122e-07	-2.84465e-06	3.09052e-09	-2.84774e-06	0.25022	21961.9	23.8601	21985.8
3163.08	3.81015	1.26409	4.01437	-18.3543	5.40563	0.249916	-0.0276577	39.8044	3.94688	1	10	0.00515963	0.00128529	0	-1.11622e-05	-0.000156987	6.12128e-06	-48.8278	0.00476257	0.00313532	0.00358495	-18.3887	4.01848	3.81329	1.26768	0.236432	0.0784412	0.249105	18.3543	3946.88	11896.4	12534.1	-71.6457	0.0000000E+000	0.0000000E+000	0.0000000E+000	71.6457	0.0000000E+000	0.0000000E+000	0.0000000E+000	-71.6457	0.0000000E+000	0.0000000E+000	0.0000000E+000	-18.3543	0.0000000E+000	0.0000000E+000	0.0000000E+000	18.3543	3.01414	71.6457	-1.63553e-06	-6.91211e-06	4.3419e-09	-6.91645e-06	0.250073	9036.03	5.67606	9041.7
1000.32	4.74313	1.86123	5.09524	-21.4253	6.75876	0.249943	-0.0182796	85.4835	11.4065	1	10	0.00509329	0.000999617	0	-1.88773e-05	0.000263083	8.22682e-06	-74.2512	0.00822998	0.00223378	0.00792103	-21.4989	5.10022	4.74537	1.86915	0.182699	0.0716919	0.196262	21.4253	11406.5	29068.1	31226	-68.5747	0.0000000E+000	0.0000000E+000	0.0000000E+000	68.5747	0.0000000E+000	0.0000000E+000	0.0000000E+000	-68.5747	0.0000000E+000	0.0000000E+000	0.0000000E+000	-21.4253	0.0000000E+000	0.0000000E+000	0.0000000E+000	21.4253	2.54839	68.5747	-2.92494e-06	-4.56885e-06	-4.80905e-09	-4.56404e-06	0.24968	13673.3	14.3921	13658.9
316.316	6.27639	3.04039	6.97403	-25.8463	8.10809	0.249941	-0.017243	165.489	31.4529	1	10	0.00501456	0.000719034	0	-2.54462e-05	-0.000233363	6.29262e-06	63.783	0.00875149	0.00386616	-0.0078512	-25.7744	6.97409	6.28026	3.03254	0.129045	0.0625117	0.143389	25.8463	31452.9	64929.5	72146.5	-64.1537	0.0000000E+000	0.0000000E+000	0.0000000E+000	64.1537	0.0000000E+000	0.0000000E+000	0.0000000E+000	-64.1537	0.0000000E+000	0.0000000E+000	0.0000000E+000	-25.8463	0.0000000E+000	0.0000000E+000	0.0000000E+000	25.8463	2.06434	64.1537	-2.44058e-06	-4.30973e-06	4.02388e-09	-4.31375e-06	0.250174	14495.2	13.5338	14508.8
100.032	9.38544	4.43112	10.3789	-25.2733	9.45585	0.249946	-0.0163033	359.06	65.4476	1	10	0.00498202	0.000480015	0	-3.13949e-05	-0.000290645	9.34026e-06	35.9153	0.0194583	0.015759	-0.011414	-25.1793	10.3883	9.40119	4.41971	0.0871271	0.0411351	0.0963495	25.2733	65447.6	138623	153296	-64.7267	0.0000000E+000	0.0000000E+000	0.0000000E+000	64.7267	0.0000000E+000	0.0000000E+000	0.0000000E+000	-64.7267	0.0000000E+000	0.0000000E+000	0.0000000E+000	-25.2733	0.0000000E+000	0.0000000E+000	0.0000000E+000	25.2733	2.11807	64.7267	-2.65535e-06	-4.07494e-06	4.73848e-09	-4.07968e-06	0.250236	15331	17.8274	15348.8
[...]
1.00006	17.4517	1.03644	17.4824	-3.39877	19.5219	0.249971	-0.00951998	153549	539.679	1	12	0.00496913	0.000284236	0	-6.89497e-05	0.000167612	3.15336e-06	-34.18	0.0110942	0.00917795	0.00623265	-3.41737	17.4919	17.4608	1.04268	0.0570997	0.00339112	0.0572004	3.39877	539680	9.08713e+06	9.10314e+06	-86.6012	0.0000000E+000	0.0000000E+000	0.0000000E+000	86.6012	0.0000000E+000	0.0000000E+000	0.0000000E+000	-86.6012	0.0000000E+000	0.0000000E+000	0.0000000E+000	-3.39877	0.0000000E+000	0.0000000E+000	0.0000000E+000	3.39877	16.838	86.6012	-1.51224e-05	-2.37972e-06	-1.59567e-09	-2.37812e-06	0.249804	26257.5	17.6064	26239.9
0.316193	17.9057	1.36465	17.9576	-4.35828	33.8641	0.249968	-0.00945329	368846	2130.06	1	12	0.00497296	0.000276927	0	-0.000128981	5.30479e-05	2.54165e-06	-28.7909	0.00917806	0.00804349	0.00442029	-4.37038	17.966	17.9138	1.36907	0.0555256	0.00423179	0.0556866	4.35828	2.13006e+06	2.79486e+07	2.80297e+07	-85.6417	0.0000000E+000	0.0000000E+000	0.0000000E+000	85.6417	0.0000000E+000	0.0000000E+000	0.0000000E+000	-85.6417	0.0000000E+000	0.0000000E+000	0.0000000E+000	-4.35828	0.0000000E+000	0.0000000E+000	0.0000000E+000	4.35828	13.1211	85.6417	-1.70863e-05	-2.36302e-06	-5.01477e-10	-2.36252e-06	0.249915	26442.5	5.61158	26436.8
0.0999041	18.5557	2.84091	18.7719	-8.70451	79.0726	0.24996	-0.00449005	560762	12843.4	1	12	0.00497106	0.000264814	0	-7.53387e-05	-8.06105e-05	2.00504e-06	3.02756	0.00757149	0.00756092	-0.000399898	-8.69982	18.7793	18.5632	2.84051	0.0526576	0.00806199	0.0532711	8.70451	1.28434e+07	8.38876e+07	8.48651e+07	-81.2955	0.0000000E+000	0.0000000E+000	0.0000000E+000	81.2955	0.0000000E+000	0.0000000E+000	0.0000000E+000	-81.2955	0.0000000E+000	0.0000000E+000	0.0000000E+000	-8.70451	0.0000000E+000	0.0000000E+000	0.0000000E+000	8.70451	6.53159	81.2955	3.57033e-05	-1.12233e-06	3.61945e-10	-1.1227e-06	0.250041	55669.9	17.9532	55687.8
0.0315922	20.0459	6.92458	21.2082	-19.0568	221.955	0.249969	-0.00211368	727523	77558.2	1	12	0.00497033	0.000234359	0	-0.00033468	-0.000195175	2.35557e-06	8.77036	0.0100511	0.00993358	-0.00153254	-19.0441	21.217	20.0558	6.92305	0.0445675	0.0153953	0.0471517	19.0568	7.75582e+07	2.24522e+08	2.3754e+08	-70.9432	0.0000000E+000	0.0000000E+000	0.0000000E+000	70.9432	0.0000000E+000	0.0000000E+000	0.0000000E+000	-70.9432	0.0000000E+000	0.0000000E+000	0.0000000E+000	-19.0568	0.0000000E+000	0.0000000E+000	0.0000000E+000	19.0568	2.89488	70.9432	-0.000219111	-5.28356e-07	4.12538e-10	-5.28768e-07	0.250165	118262	92.3388	118355
0.0100092	24.5607	17.0138	29.878	-34.7114	673.175	0.249958	-0.00360434	934588	303054	1	12	0.00497079	0.000166369	0	-0.00123042	0.000129424	3.71369e-06	2.26029	0.022322	0.0223046	-0.000880363	-34.6857	29.8959	24.583	17.0129	0.0275129	0.0190589	0.0334694	34.7114	3.03054e+08	4.3748e+08	5.32194e+08	-55.2886	0.0000000E+000	0.0000000E+000	0.0000000E+000	55.2886	0.0000000E+000	0.0000000E+000	0.0000000E+000	-55.2886	0.0000000E+000	0.0000000E+000	0.0000000E+000	-34.7114	0.0000000E+000	0.0000000E+000	0.0000000E+000	34.7114	1.44357	55.2886	-0.000146415	-9.00932e-07	-4.66488e-10	-9.00466e-07	0.249828	69349.2	35.9079	69313.3

File: 19005_R309_UA708_SOC00_C04.mpt
EC-Lab ASCII FILE
Nb header lines : 65

Potentio Electrochemical Impedance Spectroscopy

Run on channel : 4 (SN 66756)
Grouped channel(s) : 2, 3, 4, 5, 6
User :
CE vs. WE compliance from -10 V to 10 V
Electrode connection : standard
Potential control : Ewe
Ewe ctrl range : min = -10.00 V, max = 10.00 V
Safety Limits :
	Do not start on E overload
Acquisition started on : 11/04/2025 16:08:38.802
Loaded Setting File :  C:\Users\Celltest\OneDrive - store-dot.com\Documents\EC-Lab\Data\@Biologic Test Protocols\anode half cell EIS SOC00.mps
Saved on :
	File : 19003_R309_UA708_SOC00_C04.mpr
	Directory : C:\Users\Celltest\OneDrive - store-dot.com\Documents\EC-Lab\Data\Charmaine\
	Host : 169.254.61.224
Device : VMP-3e (SN .003165)
Address : USB
EC-LAB for windows v11.62 (software)
Internet server v27.00 (firmware)
Command interpretor v12.03 (firmware)
Electrode material :
Initial state :
Electrolyte :
Comments :
Electrode surface area : 0.001 cm²
Characteristic mass : 0.001 g
Equivalent Weight : 0.000 g/eq.
Density : 0.000 g/cm3
Volume (V) : 0.001 cm³
Record Ece
Cycle Definition : Charge/Discharge alternance
Mode                Single sine
E (V)               0.0000
vs.                 Eoc
tE (h:m:s)          0:00:0.0000
record              0
dI                  0.000
unit dI             mA
dt (s)              0.000
fi                  100.000
unit fi             kHz
ff                  10.000
unit ff             mHz
Nd                  6
Points              per decade
spacing             Logarithmic
Va (mV)             5.0
pw                  0.10
Na                  2
corr                0
E range min (V)     -10.000
E range max (V)     10.000
I Range             Auto
Bandwidth           5
nc cycles           0
goto Ns'            0
nr cycles           0
inc. cycle          0

freq/Hz	Re(Z)/Ohm	-Im(Z)/Ohm	|Z|/Ohm	Phase(Z)/deg	time/s	<Ewe>/V	<I>/mA	Cs/µF	Cp/µF	cycle number	I Range	|Ewe|/V	|I|/A	Ns	(Q-Qo)/mA.h	<Ece>/V	|Ece|/V	Phase(Zce)/deg	|Zce|/Ohm	Re(Zce)/Ohm	-Im(Zce)/Ohm	Phase(Zwe-ce)/deg	|Zwe-ce|/Ohm	Re(Zwe-ce)/Ohm	-Im(Zwe-ce)/Ohm	Re(Y)/Ohm-1	Im(Y)/Ohm-1	|Y|/Ohm-1	Phase(Y)/deg	Re(C)/nF	Im(C)/nF	|C|/nF	Phase(C)/deg	Re(M)	Im(M)	|M|	Phase(M)/deg	Re(Permittivity)	Im(Permittivity)	|Permittivity|	Phase(Permittivity)/deg	Re(Resistivity)/Ohm.cm	Im(Resistivity)/Ohm.cm	|Resistivity|/Ohm.cm	Phase(Resistivity)/deg	Re(Conductivity)/mS/cm	Im(Conductivity)/mS/cm	|Conductivity|/mS/cm	Phase(Conductivity)/deg	Tan(Delta)	Loss Angle(Delta)/deg	dq/mA.h	Pwe/W	Pce/W	Pwe-ce/W	<Ewe-Ece>/V	Rwe/Ohm	Rce/Ohm	Rwe-ce/Ohm		Ewe-Ece/V
100004	1.66252	0.612323	1.77169	-20.2193	1.86856	0.240788	-0.0122188	2.5991	0.310461	1	9	0.00491226	0.00277264	0	-4.08285e-06	-0.000336214	3.32901e-05	54.9687	0.0120066	0.0068921	-0.00983151	-19.8446	1.7748	1.66941	0.602491	0.52965	0.195076	0.564432	20.2193	310.461	842.932	898.288	-69.7807	0.0000000E+000	0.0000000E+000	0.0000000E+000	69.7807	0.0000000E+000	0.0000000E+000	0.0000000E+000	-69.7807	0.0000000E+000	0.0000000E+000	0.0000000E+000	-20.2193	0.0000000E+000	0.0000000E+000	0.0000000E+000	20.2193	2.7151	69.7807	-4.08285e-06	-2.94214e-06	4.10814e-09	-2.94625e-06	0.241124	19706.3	27.5161	19733.9
31621.1	2.22437	0.794333	2.36195	-19.6519	3.01956	0.24078	-0.00774315	6.33636	0.716646	1	9	0.00541751	0.00229366	0	-1.45966e-05	4.59847e-05	7.76341e-06	33.4139	0.00338472	0.00282527	-0.00186391	-19.5863	2.36398	2.2272	0.792469	0.398719	0.142384	0.42338	19.6519	716.646	2006.83	2130.95	-70.3481	0.0000000E+000	0.0000000E+000	0.0000000E+000	70.3481	0.0000000E+000	0.0000000E+000	0.0000000E+000	-70.3481	0.0000000E+000	0.0000000E+000	0.0000000E+000	-19.6519	0.0000000E+000	0.0000000E+000	0.0000000E+000	19.6519	2.8003	70.3481	-3.84788e-06	-1.86439e-06	-3.56066e-10	-1.86404e-06	0.240734	31095.9	5.93876	31090
10002.2	2.79799	0.896082	2.93797	-17.7582	4.16856	0.240717	-0.0661134	17.7572	1.65187	1	9	0.00535293	0.00182198	0	-3.26864e-05	8.42046e-05	6.67458e-06	-89.794	0.00366337	1.31713e-05	0.00366334	-17.8261	2.93911	2.798	0.899746	0.324153	0.103813	0.340371	17.7582	1651.87	5157.9	5415.96	-72.2418	0.0000000E+000	0.0000000E+000	0.0000000E+000	72.2418	0.0000000E+000	0.0000000E+000	0.0000000E+000	-72.2418	0.0000000E+000	0.0000000E+000	0.0000000E+000	-17.7582	0.0000000E+000	0.0000000E+000	0.0000000E+000	17.7582	3.12246	72.2418	-4.28627e-06	-1.59146e-05	-5.56705e-09	-1.5909e-05	0.240632	3640.96	1.27364	3639.69
3163.08	3.42833	1.16621	3.62125	-18.7866	5.31666	0.240692	-0.0422432	43.1454	4.47474	1	9	0.00532048	0.00146924	0	-4.20147e-05	-0.000202445	3.98711e-06	-11.3677	0.00271373	0.00266049	0.00053489	-18.7811	3.62395	3.43099	1.16674	0.261435	0.0889319	0.276147	18.7866	4474.74	13154.5	13894.8	-71.2134	0.0000000E+000	0.0000000E+000	0.0000000E+000	71.2134	0.0000000E+000	0.0000000E+000	0.0000000E+000	-71.2134	0.0000000E+000	0.0000000E+000	0.0000000E+000	-18.7866	0.0000000E+000	0.0000000E+000	0.0000000E+000	18.7866	2.93973	71.2134	-3.55738e-06	-1.01676e-05	8.55191e-09	-1.01762e-05	0.240895	5697.77	4.79237	5702.57
1000.32	4.30412	1.74038	4.64267	-22.016	6.91483	0.240705	-0.0143522	91.419	12.8466	1	10	0.00530776	0.00114326	0	-5.01655e-05	-3.04551e-05	9.48108e-06	-75.7295	0.00829306	0.00204424	0.00803716	-22.0985	4.64759	4.30617	1.74842	0.199686	0.0807436	0.215393	22.016	12846.6	31770.9	34269.9	-67.9839	0.0000000E+000	0.0000000E+000	0.0000000E+000	67.9839	0.0000000E+000	0.0000000E+000	0.0000000E+000	-67.9839	0.0000000E+000	0.0000000E+000	0.0000000E+000	-22.016	0.0000000E+000	0.0000000E+000	0.0000000E+000	22.016	2.47309	67.9839	-2.23906e-06	-3.45465e-06	4.37099e-10	-3.45508e-06	0.240735	16771.3	2.12198	16773.4
316.316	5.76109	2.88556	6.44334	-26.605	8.26509	0.240723	-0.0147141	174.369	34.971	1	10	0.00518503	0.000804712	0	-5.62726e-05	-0.000202445	5.21473e-06	-30.7521	0.00648025	0.00556904	0.00331351	-26.6091	6.4498	5.76666	2.88888	0.138766	0.0695038	0.155199	26.605	34971	69820.3	78088.7	-63.395	0.0000000E+000	0.0000000E+000	0.0000000E+000	63.395	0.0000000E+000	0.0000000E+000	0.0000000E+000	-63.395	0.0000000E+000	0.0000000E+000	0.0000000E+000	-26.605	0.0000000E+000	0.0000000E+000	0.0000000E+000	26.605	1.99652	63.395	-2.29212e-06	-3.54201e-06	2.97878e-09	-3.54499e-06	0.240925	16360	13.7586	16373.8
100.032	8.78898	4.07718	9.68863	-24.8864	9.61181	0.240713	-0.0145014	390.231	69.1061	1	10	0.00513217	0.000529711	0	-6.24322e-05	-0.000164225	1.04027e-05	-8.05838	0.0196385	0.0194446	0.00275297	-24.8529	9.70742	8.80842	4.07993	0.0936298	0.0434345	0.103214	24.8864	69106.1	148969	164217	-65.1136	0.0000000E+000	0.0000000E+000	0.0000000E+000	65.1136	0.0000000E+000	0.0000000E+000	0.0000000E+000	-65.1136	0.0000000E+000	0.0000000E+000	0.0000000E+000	-24.8864	0.0000000E+000	0.0000000E+000	0.0000000E+000	24.8864	2.15565	65.1136	-9.43399e-07	-3.49069e-06	2.3815e-09	-3.49307e-06	0.240877	16599.2	11.3247	16610.6
[...]
1.00006	15.5286	0.893738	15.5543	-3.29399	18.6336	0.240736	-0.00639614	178066	587.9	1	11	0.00512377	0.000329412	0	-7.80372e-05	0.000198864	1.99152e-06	-24.1368	0.00604567	0.00551711	0.00247217	-3.30191	15.5599	15.5341	0.89621	0.0641848	0.00369412	0.0642911	3.29399	587900	1.02147e+07	1.02316e+07	-86.706	0.0000000E+000	0.0000000E+000	0.0000000E+000	86.706	0.0000000E+000	0.0000000E+000	0.0000000E+000	-86.706	0.0000000E+000	0.0000000E+000	0.0000000E+000	-3.29399	0.0000000E+000	0.0000000E+000	0.0000000E+000	3.29399	17.3748	86.706	3.95484e-06	-1.53978e-06	-1.27196e-09	-1.53851e-06	0.240537	37637.7	31.0913	37606.6
0.316193	15.8986	1.25667	15.9482	-4.51942	32.9779	0.240739	-0.00153033	400539	2486.94	1	11	0.00512074	0.000321085	0	-5.8367e-05	-4.95651e-05	2.96253e-06	-10.0225	0.00922661	0.00908581	0.00160575	-4.5226	15.9574	15.9077	1.25828	0.0625079	0.0049408	0.0627029	4.51942	2.48694e+06	3.14632e+07	3.15613e+07	-85.4806	0.0000000E+000	0.0000000E+000	0.0000000E+000	85.4806	0.0000000E+000	0.0000000E+000	0.0000000E+000	-85.4806	0.0000000E+000	0.0000000E+000	0.0000000E+000	-4.51942	0.0000000E+000	0.0000000E+000	0.0000000E+000	4.51942	12.6514	85.4806	6.51483e-07	-3.68411e-07	7.58511e-11	-3.68487e-07	0.240789	157312	32.3885	157344
0.0999041	16.5249	2.71914	16.7471	-9.34418	82.8819	0.240744	-0.00269797	585875	15445	1	12	0.00512467	0.000306003	0	-0.00023819	-0.000202445	1.7385e-06	-12.3338	0.0056813	0.00555018	0.00121356	-9.3452	16.7528	16.5304	2.72036	0.0589194	0.00969509	0.0597118	9.34418	1.5445e+07	9.38632e+07	9.51255e+07	-80.6558	0.0000000E+000	0.0000000E+000	0.0000000E+000	80.6558	0.0000000E+000	0.0000000E+000	0.0000000E+000	-80.6558	0.0000000E+000	0.0000000E+000	0.0000000E+000	-9.34418	0.0000000E+000	0.0000000E+000	0.0000000E+000	9.34418	6.07725	80.6558	-9.29739e-05	-6.4952e-07	5.46189e-10	-6.50067e-07	0.240947	89231.7	75.036	89306.8
0.0315922	17.9761	6.71751	19.1902	-20.4903	225.765	0.240744	-0.00336365	749949	91894.2	1	12	0.00512096	0.000266852	0	-0.000218285	-0.000317104	2.76806e-06	-2.11645	0.010373	0.0103659	0.000383083	-20.4805	19.2001	17.9865	6.7179	0.0488129	0.018241	0.0521098	20.4903	9.18942e+07	2.45909e+08	2.62518e+08	-69.5097	0.0000000E+000	0.0000000E+000	0.0000000E+000	69.5097	0.0000000E+000	0.0000000E+000	0.0000000E+000	-69.5097	0.0000000E+000	0.0000000E+000	0.0000000E+000	-20.4903	0.0000000E+000	0.0000000E+000	0.0000000E+000	20.4903	2.67601	69.5097	0.000134042	-8.09779e-07	1.06663e-09	-8.10845e-07	0.241061	71572.1	94.2738	71666.4
0.0100092	22.4121	16.3993	27.7713	-36.1936	676.988	0.240739	-0.00205138	969607	338110	1	12	0.00512336	0.000184484	0	0.000110128	-3.04551e-05	2.6135e-06	-66.2194	0.0141665	0.00571244	0.0129637	-36.2082	27.7835	22.4179	16.4123	0.0290598	0.0212635	0.0360085	36.1936	3.3811e+08	4.62077e+08	5.72567e+08	-53.8064	0.0000000E+000	0.0000000E+000	0.0000000E+000	53.8064	0.0000000E+000	0.0000000E+000	0.0000000E+000	-53.8064	0.0000000E+000	0.0000000E+000	0.0000000E+000	-36.1936	0.0000000E+000	0.0000000E+000	0.0000000E+000	36.1936	1.36665	53.8064	-0.00015545	-4.93847e-07	6.24751e-11	-4.93909e-07	0.240769	117355	14.8462	117370