Folder: EIS/txt (part 179)

File: 19318_R313_UC97_SOC50_C02.mpt
EC-Lab ASCII FILE
Nb header lines : 65

Potentio Electrochemical Impedance Spectroscopy

Run on channel : 2 (SN 66139)
User :
CE vs. WE compliance from -10 V to 10 V
Electrode connection : standard
Potential control : Ewe
Ewe ctrl range : min = -10.00 V, max = 10.00 V
Safety Limits :
	Do not start on E overload
Acquisition started on : 11/18/2025 16:32:09.434
Technique started on : 11/18/2025 16:32:11.208
Loaded Setting File :  C:\Users\Celltest\OneDrive - store-dot.com\Documents\EC-Lab\Data\txt_done\19191_R297_UC94_SOC50_C08.mpr
Saved on :
	File : 19318_R313_UC97_SOC50_C02.mpr
	Directory : C:\Users\Celltest\OneDrive - store-dot.com\Documents\EC-Lab\Data\Michael\
	Host : 169.254.61.224
Device : VMP-3e (SN .003165)
Address : USB
EC-LAB for windows v11.62 (software)
Internet server v27.00 (firmware)
Command interpretor v12.03 (firmware)
Electrode material :
Initial state :
Electrolyte :
Comments :
Electrode surface area : 0.001 cm²
Characteristic mass : 0.001 g
Equivalent Weight : 0.000 g/eq.
Density : 0.000 g/cm3
Volume (V) : 0.001 cm³
Record Ece
Cycle Definition : Charge/Discharge alternance
Mode                Multi sine
E (V)               0.0000
vs.                 Eoc
tE (h:m:s)          0:00:0.0000
record              0
dI                  0.000
unit dI             mA
dt (s)              0.000
fi                  1.000
unit fi             MHz
ff                  0.100
unit ff             mHz
Nd                  10
Points              per decade
spacing             Logarithmic
Va (mV)             5.0
pw                  0.10
Na                  2
corr                0
E range min (V)     -10.000
E range max (V)     10.000
I Range             Auto
Bandwidth           5
nc cycles           0
goto Ns'            0
nr cycles           0
inc. cycle          0

freq/Hz	Re(Z)/Ohm	-Im(Z)/Ohm	|Z|/Ohm	Phase(Z)/deg	time/s	<Ewe>/V	<I>/mA	Cs/µF	Cp/µF	cycle number	I Range	|Ewe|/V	|I|/A	Ns	(Q-Qo)/mA.h	<Ece>/V	|Ece|/V	Phase(Zce)/deg	|Zce|/Ohm	Re(Zce)/Ohm	-Im(Zce)/Ohm	Phase(Zwe-ce)/deg	|Zwe-ce|/Ohm	Re(Zwe-ce)/Ohm	-Im(Zwe-ce)/Ohm	Re(Y)/Ohm-1	Im(Y)/Ohm-1	|Y|/Ohm-1	Phase(Y)/deg	Re(C)/nF	Im(C)/nF	|C|/nF	Phase(C)/deg	Re(M)	Im(M)	|M|	Phase(M)/deg	Re(Permittivity)	Im(Permittivity)	|Permittivity|	Phase(Permittivity)/deg	Re(Resistivity)/Ohm.cm	Im(Resistivity)/Ohm.cm	|Resistivity|/Ohm.cm	Phase(Resistivity)/deg	Re(Conductivity)/mS/cm	Im(Conductivity)/mS/cm	|Conductivity|/mS/cm	Phase(Conductivity)/deg	Tan(Delta)	Loss Angle(Delta)/deg	dq/mA.h	Pwe/W	Pce/W	Pwe-ce/W	<Ewe-Ece>/V	Rwe/Ohm	Rce/Ohm	Rwe-ce/Ohm		Ewe-Ece/V
1.00002e+06	1.88969	2.84832	3.41816	-56.4381	1.77355	3.88295	-0.118123	0.0558757	0.0387985	1	10	0.000195033	5.70579e-05	0	-5.19871e-05	-0.000131766	0.000178165	-68.8219	3.12253	1.12807	2.91164	-62.3491	6.50262	3.01776	5.75996	0.161735	0.243783	0.292555	56.4381	38.7985	25.7404	46.5607	-33.5619	0.0000000E+000	0.0000000E+000	0.0000000E+000	33.5619	0.0000000E+000	0.0000000E+000	0.0000000E+000	-33.5619	0.0000000E+000	0.0000000E+000	0.0000000E+000	-56.4381	0.0000000E+000	0.0000000E+000	0.0000000E+000	56.4381	0.663439	33.5619	-5.19871e-05	-0.000458665	1.55646e-08	-0.000458681	3.88308	32872.2	1.1155	32873.3
251206	0.766167	0.235105	0.801427	-17.0591	4.47653	3.88295	-0.0686047	2.69481	0.231912	1	9	0.00170912	0.00213259	0	-0.000112338	0.000250051	3.24095e-05	77.6494	0.0151972	0.00325058	-0.0148455	-15.9747	0.800323	0.769417	0.22026	1.19287	0.366045	1.24777	17.0591	231.912	755.761	790.543	-72.9409	0.0000000E+000	0.0000000E+000	0.0000000E+000	72.9409	0.0000000E+000	0.0000000E+000	0.0000000E+000	-72.9409	0.0000000E+000	0.0000000E+000	0.0000000E+000	-17.0591	0.0000000E+000	0.0000000E+000	0.0000000E+000	17.0591	3.25882	72.9409	-7.91915e-06	-0.000266389	-1.71547e-08	-0.000266372	3.8827	56599	3.64481	56595.3
63093.8	1.17016	0.451418	1.25422	-21.0953	6.65253	3.88286	-0.0766498	5.58798	0.72388	1	9	0.00529795	0.00422411	0	-0.000177605	4.00515e-05	1.74009e-05	53.3782	0.00411942	0.00245736	-0.00330621	-20.9141	1.25533	1.17262	0.448112	0.743877	0.286968	0.79731	21.0953	723.879	1876.44	2011.22	-68.9047	0.0000000E+000	0.0000000E+000	0.0000000E+000	68.9047	0.0000000E+000	0.0000000E+000	0.0000000E+000	-68.9047	0.0000000E+000	0.0000000E+000	0.0000000E+000	-21.0953	0.0000000E+000	0.0000000E+000	0.0000000E+000	21.0953	2.5922	68.9047	-1.29889e-05	-0.00029762	-3.06994e-09	-0.000297617	3.88282	50657.2	0.522526	50656.6
15847.7	1.57512	0.445156	1.63681	-15.7812	8.95452	3.88284	-0.0735584	22.5602	1.66866	1	9	0.00522291	0.0031909	0	-0.000234808	0.000211869	1.06424e-05	23.6616	0.00333525	0.00305486	-0.00133855	-15.7072	1.63939	1.57817	0.443817	0.587915	0.166155	0.610943	15.7812	1668.66	5904.31	6135.57	-74.2188	0.0000000E+000	0.0000000E+000	0.0000000E+000	74.2188	0.0000000E+000	0.0000000E+000	0.0000000E+000	-74.2188	0.0000000E+000	0.0000000E+000	0.0000000E+000	-15.7812	0.0000000E+000	0.0000000E+000	0.0000000E+000	15.7812	3.53835	74.2188	-6.19526e-06	-0.000285615	-1.55847e-08	-0.0002856	3.88263	52785.8	2.88028	52782.9
3983.6	1.92724	0.536906	2.00063	-15.5672	11.3191	3.88285	-0.0624591	74.4126	5.35932	1	9	0.00512788	0.00256313	0	-0.000281332	-5.54027e-05	1.12839e-05	45.6456	0.00440239	0.00307769	-0.00314783	-15.4568	2.00275	1.93031	0.533758	0.481507	0.134142	0.499843	15.5672	5359.32	19237.4	19970	-74.4328	0.0000000E+000	0.0000000E+000	0.0000000E+000	74.4328	0.0000000E+000	0.0000000E+000	0.0000000E+000	-74.4328	0.0000000E+000	0.0000000E+000	0.0000000E+000	-15.5672	0.0000000E+000	0.0000000E+000	0.0000000E+000	15.5672	3.58953	74.4328	-2.31039e-06	-0.000242519	3.46041e-09	-0.000242523	3.8829	62166.3	0.887024	62167.1
1000.32	2.42439	0.876826	2.57808	-19.8835	14.1248	3.88282	-0.0645077	181.454	20.9895	1	9	0.0053535	0.00207655	0	-0.000340279	0.000135506	1.11884e-05	-25.5097	0.00538799	0.00486273	0.00232042	-19.8952	2.58344	2.42925	0.879146	0.364762	0.131923	0.387886	19.8835	20989.5	58035.1	61714.1	-70.1165	0.0000000E+000	0.0000000E+000	0.0000000E+000	70.1165	0.0000000E+000	0.0000000E+000	0.0000000E+000	-70.1165	0.0000000E+000	0.0000000E+000	0.0000000E+000	-19.8835	0.0000000E+000	0.0000000E+000	0.0000000E+000	19.8835	2.76496	70.1165	-6.75345e-06	-0.000250472	-8.74116e-09	-0.000250463	3.88269	60191.6	2.10061	60189.5
251.044	3.53607	1.4413	3.81853	-22.1758	17.073	3.88283	-0.0879931	439.861	62.666	1	10	0.00521524	0.00136577	0	-0.000406454	0.000116415	8.72064e-06	-78.6491	0.00638514	0.0012567	0.00626025	-22.2556	3.82206	3.53733	1.44756	0.24251	0.0988468	0.261881	22.1758	62666	153744	166025	-67.8242	0.0000000E+000	0.0000000E+000	0.0000000E+000	67.8242	0.0000000E+000	0.0000000E+000	0.0000000E+000	-67.8242	0.0000000E+000	0.0000000E+000	0.0000000E+000	-22.1758	0.0000000E+000	0.0000000E+000	0.0000000E+000	22.1758	2.45339	67.8242	-1.18143e-05	-0.000341662	-1.02437e-08	-0.000341652	3.88271	44126.5	1.323	44125.2
[...]
0.0602816	6.82337	1.2301	6.93336	-10.2194	240.631	3.88282	-0.0501566	2.14632e+06	67559.6	1	11	0.00499939	0.000721062	0	-0.00714527	0.000135506	4.78649e-07	-50.3875	0.00066381	0.00042324	0.000511383	-10.2229	6.93387	6.8238	1.23061	0.141942	0.0255889	0.14423	10.2194	6.75596e+07	3.74754e+08	3.80795e+08	-79.7806	0.0000000E+000	0.0000000E+000	0.0000000E+000	79.7806	0.0000000E+000	0.0000000E+000	0.0000000E+000	-79.7806	0.0000000E+000	0.0000000E+000	0.0000000E+000	-10.2194	0.0000000E+000	0.0000000E+000	0.0000000E+000	10.2194	5.54701	79.7806	0.000000000000000E+000	-0.000194749	-6.7965e-09	-0.000194742	3.88268	77413.9	2.70165	77411.2
0.00796479	8.87034	2.53385	9.22515	-15.9422	20329.6	3.88287	-0.000757868	7.88614e+06	594950	1	11	0.00499432	0.00054138	0	-0.0692563	0.000326414	2.31232e-07	-83.0134	0.000427116	5.19535e-05	0.000423945	-15.9447	9.22532	8.87039	2.53428	0.10423	0.0297738	0.108399	15.9422	5.9495e+08	2.08276e+09	2.16607e+09	-74.0578	0.0000000E+000	0.0000000E+000	0.0000000E+000	74.0578	0.0000000E+000	0.0000000E+000	0.0000000E+000	-74.0578	0.0000000E+000	0.0000000E+000	0.0000000E+000	-15.9422	0.0000000E+000	0.0000000E+000	0.0000000E+000	15.9422	3.50073	74.0578	-0.0621111	-2.9427e-06	-2.47379e-10	-2.94246e-06	3.88255	5.12342e+06	430.701	5.12299e+06
0.0019912	10.5617	4.17188	11.3558	-21.554	20329.6	3.88287	-0.000757868	1.9159e+07	2.58583e+06	1	11	0.00500581	0.000440814	0	-0.0692563	0.000326414	9.43591e-07	-50.9227	0.00214057	0.00134935	0.00166171	-21.5593	11.3577	10.5631	4.17355	0.0819025	0.0323515	0.0880605	21.554	2.58583e+09	6.54641e+09	7.03861e+09	-68.446	0.0000000E+000	0.0000000E+000	0.0000000E+000	68.446	0.0000000E+000	0.0000000E+000	0.0000000E+000	-68.446	0.0000000E+000	0.0000000E+000	0.0000000E+000	-21.554	0.0000000E+000	0.0000000E+000	0.0000000E+000	21.554	2.53165	68.446	0.000000000000000E+000	-2.9427e-06	-2.47379e-10	-2.94246e-06	3.88255	5.12342e+06	430.701	5.12299e+06
0.000497799	11.1573	11.2015	15.8101	-45.1132	20329.6	3.88287	-0.000757868	2.85424e+07	1.43276e+07	1	11	0.00501082	0.000316938	0	-0.0692563	0.000326414	1.73488e-06	95.0406	0.0054739	-0.000480945	-0.00545273	-45.1005	15.8059	11.1568	11.196	0.0446366	0.0448133	0.0632507	45.1132	1.43276e+10	1.42711e+10	2.02223e+10	-44.8868	0.0000000E+000	0.0000000E+000	0.0000000E+000	44.8868	0.0000000E+000	0.0000000E+000	0.0000000E+000	-44.8868	0.0000000E+000	0.0000000E+000	0.0000000E+000	-45.1132	0.0000000E+000	0.0000000E+000	0.0000000E+000	45.1132	0.996057	44.8868	0.000000000000000E+000	-2.9427e-06	-2.47379e-10	-2.94246e-06	3.88255	5.12342e+06	430.701	5.12299e+06
9.95598e-05	7.57804	79.8847	80.2433	-84.581	20329.6	3.88287	-0.000757868	2.00112e+07	1.98327e+07	1	11	0.00500362	6.23556e-05	0	-0.0692563	0.000326414	3.95592e-06	-67.1216	0.0634413	0.0246645	0.0584505	-84.5674	80.3039	7.6027	79.9432	0.0011769	0.0124064	0.0124621	84.581	1.98327e+10	1.88137e+09	1.99217e+10	-5.41899	0.0000000E+000	0.0000000E+000	0.0000000E+000	5.41899	0.0000000E+000	0.0000000E+000	0.0000000E+000	-5.41899	0.0000000E+000	0.0000000E+000	0.0000000E+000	-84.581	0.0000000E+000	0.0000000E+000	0.0000000E+000	84.581	0.0948622	5.41899	0.000000000000000E+000	-2.9427e-06	-2.47379e-10	-2.94246e-06	3.88255	5.12342e+06	430.701	5.12299e+06

File: 19319_R313_UC98_SOC50_C03.mpt
EC-Lab ASCII FILE
Nb header lines : 65

Potentio Electrochemical Impedance Spectroscopy

Run on channel : 3 (SN 65921)
User :
CE vs. WE compliance from -10 V to 10 V
Electrode connection : standard
Potential control : Ewe
Ewe ctrl range : min = -10.00 V, max = 10.00 V
Safety Limits :
	Do not start on E overload
Acquisition started on : 11/18/2025 16:32:29.919
Technique started on : 11/18/2025 16:32:32.154
Loaded Setting File :  C:\Users\Celltest\OneDrive - store-dot.com\Documents\EC-Lab\Data\txt_done\19191_R297_UC94_SOC50_C08.mpr
Saved on :
	File : 19319_R313_UC98_SOC50_C03.mpr
	Directory : C:\Users\Celltest\OneDrive - store-dot.com\Documents\EC-Lab\Data\Michael\
	Host : 169.254.61.224
Device : VMP-3e (SN .003165)
Address : USB
EC-LAB for windows v11.62 (software)
Internet server v27.00 (firmware)
Command interpretor v12.03 (firmware)
Electrode material :
Initial state :
Electrolyte :
Comments :
Electrode surface area : 0.001 cm²
Characteristic mass : 0.001 g
Equivalent Weight : 0.000 g/eq.
Density : 0.000 g/cm3
Volume (V) : 0.001 cm³
Record Ece
Cycle Definition : Charge/Discharge alternance
Mode                Multi sine
E (V)               0.0000
vs.                 Eoc
tE (h:m:s)          0:00:0.0000
record              0
dI                  0.000
unit dI             mA
dt (s)              0.000
fi                  1.000
unit fi             MHz
ff                  0.100
unit ff             mHz
Nd                  10
Points              per decade
spacing             Logarithmic
Va (mV)             5.0
pw                  0.10
Na                  2
corr                0
E range min (V)     -10.000
E range max (V)     10.000
I Range             Auto
Bandwidth           5
nc cycles           0
goto Ns'            0
nr cycles           0
inc. cycle          0

freq/Hz	Re(Z)/Ohm	-Im(Z)/Ohm	|Z|/Ohm	Phase(Z)/deg	time/s	<Ewe>/V	<I>/mA	Cs/µF	Cp/µF	cycle number	I Range	|Ewe|/V	|I|/A	Ns	(Q-Qo)/mA.h	<Ece>/V	|Ece|/V	Phase(Zce)/deg	|Zce|/Ohm	Re(Zce)/Ohm	-Im(Zce)/Ohm	Phase(Zwe-ce)/deg	|Zwe-ce|/Ohm	Re(Zwe-ce)/Ohm	-Im(Zwe-ce)/Ohm	Re(Y)/Ohm-1	Im(Y)/Ohm-1	|Y|/Ohm-1	Phase(Y)/deg	Re(C)/nF	Im(C)/nF	|C|/nF	Phase(C)/deg	Re(M)	Im(M)	|M|	Phase(M)/deg	Re(Permittivity)	Im(Permittivity)	|Permittivity|	Phase(Permittivity)/deg	Re(Resistivity)/Ohm.cm	Im(Resistivity)/Ohm.cm	|Resistivity|/Ohm.cm	Phase(Resistivity)/deg	Re(Conductivity)/mS/cm	Im(Conductivity)/mS/cm	|Conductivity|/mS/cm	Phase(Conductivity)/deg	Tan(Delta)	Loss Angle(Delta)/deg	dq/mA.h	Pwe/W	Pce/W	Pwe-ce/W	<Ewe-Ece>/V	Rwe/Ohm	Rce/Ohm	Rwe-ce/Ohm		Ewe-Ece/V
1.00002e+06	0.986054	-0.217418	1.00974	12.4343	2.23455	3.88461	0.0416877	-0.73201	-0.0339382	1	9	0.000222313	0.000220169	0	-2.64876e-05	0.000231434	0.000202562	3.90295	0.920032	0.917898	-0.0626235	8.36731	1.92444	1.90395	-0.280041	0.967125	-0.213244	0.990355	-12.4343	-33.9382	153.92	157.617	-102.434	0.0000000E+000	0.0000000E+000	0.0000000E+000	102.434	0.0000000E+000	0.0000000E+000	0.0000000E+000	-102.434	0.0000000E+000	0.0000000E+000	0.0000000E+000	12.4343	0.0000000E+000	0.0000000E+000	0.0000000E+000	-12.4343	4.53529	77.5657	-2.64876e-05	0.00016194	9.64797e-09	0.000161931	3.88437	93183.4	5.55161	93177.8
251206	0.749713	0.260706	0.793749	-19.1747	4.53352	3.88419	-0.0229792	2.43018	0.262165	1	9	0.00203392	0.00256242	0	-3.99292e-05	-0.000284106	5.08975e-05	94.84	0.0198631	-0.00167592	-0.0197923	-17.8517	0.785875	0.748037	0.240914	1.18995	0.413794	1.25984	19.1747	262.165	753.908	798.19	-70.8253	0.0000000E+000	0.0000000E+000	0.0000000E+000	70.8253	0.0000000E+000	0.0000000E+000	0.0000000E+000	-70.8253	0.0000000E+000	0.0000000E+000	0.0000000E+000	-19.1747	0.0000000E+000	0.0000000E+000	0.0000000E+000	19.1747	2.8757	70.8253	-7.11682e-07	-8.92556e-05	6.52853e-09	-8.92621e-05	3.88447	169030	12.3636	169043
63093.8	1.17291	0.429167	1.24896	-20.0975	6.83553	3.88411	-0.0249558	5.8777	0.694002	1	9	0.00532028	0.00425976	0	-5.43376e-05	-9.31649e-05	2.53297e-05	80.58	0.00594627	0.000973228	-0.00586609	-19.8292	1.24787	1.17389	0.423301	0.751912	0.275124	0.800665	20.0975	694.002	1896.71	2019.69	-69.9025	0.0000000E+000	0.0000000E+000	0.0000000E+000	69.9025	0.0000000E+000	0.0000000E+000	0.0000000E+000	-69.9025	0.0000000E+000	0.0000000E+000	0.0000000E+000	-20.0975	0.0000000E+000	0.0000000E+000	0.0000000E+000	20.0975	2.733	69.9025	-9.7677e-06	-9.6931e-05	2.325e-09	-9.69333e-05	3.88421	155640	3.7332	155644
15847.7	1.55231	0.4182	1.60765	-15.0778	9.13554	3.8841	-0.0238743	24.0143	1.625	1	9	0.00519197	0.00322953	0	-6.83934e-05	0.00011687	9.09015e-06	-40.1844	0.0028147	0.00215035	0.00181618	-15.1203	1.6102	1.55446	0.420016	0.60061	0.161807	0.622024	15.0778	1625	6031.8	6246.86	-74.9222	0.0000000E+000	0.0000000E+000	0.0000000E+000	74.9222	0.0000000E+000	0.0000000E+000	0.0000000E+000	-74.9222	0.0000000E+000	0.0000000E+000	0.0000000E+000	-15.0778	0.0000000E+000	0.0000000E+000	0.0000000E+000	15.0778	3.71188	74.9222	-4.14396e-06	-9.273e-05	-2.79018e-09	-9.27272e-05	3.88398	162690	4.89522	162685
3983.6	1.88177	0.511512	1.95005	-15.207	10.8621	3.88399	-0.0607203	78.1068	5.37412	1	9	0.00543116	0.00278514	0	-7.93228e-05	-0.000169541	7.93117e-06	-48.8763	0.00284768	0.00187288	0.00214513	-15.2533	1.95242	1.88364	0.513657	0.49485	0.134513	0.512807	15.207	5374.12	19770.5	20487.9	-74.793	0.0000000E+000	0.0000000E+000	0.0000000E+000	74.793	0.0000000E+000	0.0000000E+000	0.0000000E+000	-74.793	0.0000000E+000	0.0000000E+000	0.0000000E+000	-15.207	0.0000000E+000	0.0000000E+000	0.0000000E+000	15.207	3.67884	74.793	-2.57756e-06	-0.000235837	1.02946e-08	-0.000235847	3.88416	63965.2	2.79216	63968
1000.32	2.34589	0.84828	2.49455	-19.8801	13.4898	3.88401	-0.0250677	187.561	21.6888	1	9	0.00529008	0.00212066	0	-0.000102944	-7.40708e-05	8.2272e-06	-0.87589	0.00387955	0.0038791	5.9305e-05	-19.8512	2.49822	2.34977	0.848339	0.376984	0.136319	0.400874	19.8801	21688.9	59979.7	63780.7	-70.1199	0.0000000E+000	0.0000000E+000	0.0000000E+000	70.1199	0.0000000E+000	0.0000000E+000	0.0000000E+000	-70.1199	0.0000000E+000	0.0000000E+000	0.0000000E+000	-19.8801	0.0000000E+000	0.0000000E+000	0.0000000E+000	19.8801	2.76546	70.1199	-5.57002e-06	-9.73632e-05	1.85678e-09	-9.73651e-05	3.88409	154941	2.95483	154944
251.044	3.44629	1.40967	3.72345	-22.2465	16.437	3.88404	-0.0698463	449.731	64.4608	1	10	0.00526127	0.00141301	0	-0.000143999	7.86817e-05	2.91927e-06	-138.405	0.00206599	-0.00154506	0.00137154	-22.275	3.72254	3.44475	1.41104	0.248577	0.101678	0.268568	22.2465	64460.8	157591	170264	-67.7535	0.0000000E+000	0.0000000E+000	0.0000000E+000	67.7535	0.0000000E+000	0.0000000E+000	0.0000000E+000	-67.7535	0.0000000E+000	0.0000000E+000	0.0000000E+000	-22.2465	0.0000000E+000	0.0000000E+000	0.0000000E+000	22.2465	2.44475	67.7535	-7.6402e-06	-0.000271286	-5.49563e-09	-0.00027128	3.88396	55608.3	1.1265	55607.2
[...]
0.0602816	6.58669	1.12263	6.68168	-9.67249	240.097	3.88405	-0.0393068	2.35179e+06	66389.7	1	11	0.00505813	0.000757015	0	-0.00621775	5.95877e-05	4.58013e-07	32.7456	0.000605026	0.000508875	-0.000327264	-9.66899	6.68213	6.5872	1.1223	0.147535	0.0251458	0.149663	9.67249	6.63897e+07	3.89522e+08	3.95139e+08	-80.3275	0.0000000E+000	0.0000000E+000	0.0000000E+000	80.3275	0.0000000E+000	0.0000000E+000	0.0000000E+000	-80.3275	0.0000000E+000	0.0000000E+000	0.0000000E+000	-9.67249	0.0000000E+000	0.0000000E+000	0.0000000E+000	9.67249	5.8672	80.3275	0.000000000000000E+000	-0.00015267	-2.3422e-09	-0.000152667	3.88399	98813.8	1.51596	98812.2
0.00796479	8.40073	2.38744	8.73339	-15.8648	20328.9	3.88409	-0.000625648	8.36978e+06	625478	1	11	0.00505352	0.000578643	0	-0.0706661	-0.000112259	3.30212e-07	12.9658	0.000570665	0.000556116	-0.00012804	-15.863	8.73389	8.40129	2.38731	0.110142	0.0313016	0.114503	15.8648	6.25478e+08	2.20088e+09	2.28804e+09	-74.1352	0.0000000E+000	0.0000000E+000	0.0000000E+000	74.1352	0.0000000E+000	0.0000000E+000	0.0000000E+000	-74.1352	0.0000000E+000	0.0000000E+000	0.0000000E+000	-15.8648	0.0000000E+000	0.0000000E+000	0.0000000E+000	15.8648	3.51872	74.1352	-0.0644484	-2.43008e-06	7.02346e-11	-2.43015e-06	3.88421	6.20811e+06	179.428	6.20829e+06
0.0019912	10.0163	4.0387	10.7998	-21.96	20328.9	3.88409	-0.000625648	1.97909e+07	2.76766e+06	1	11	0.00506519	0.000469006	0	-0.0706661	-0.000112259	4.04884e-07	2.84723	0.000863282	0.000862216	-4.28818e-05	-21.9581	10.8006	10.0171	4.03865	0.0858758	0.0346263	0.0925939	21.96	2.76766e+09	6.86399e+09	7.40097e+09	-68.04	0.0000000E+000	0.0000000E+000	0.0000000E+000	68.04	0.0000000E+000	0.0000000E+000	0.0000000E+000	-68.04	0.0000000E+000	0.0000000E+000	0.0000000E+000	-21.96	0.0000000E+000	0.0000000E+000	0.0000000E+000	21.96	2.48007	68.04	0.000000000000000E+000	-2.43008e-06	7.02346e-11	-2.43015e-06	3.88421	6.20811e+06	179.428	6.20829e+06
0.000497799	10.5959	10.9496	15.237	-45.9406	20328.9	3.88409	-0.000625648	2.9199e+07	1.50788e+07	1	11	0.0050687	0.000332657	0	-0.0706661	-0.000112259	4.79308e-07	-92.76	0.00144085	-6.93802e-05	0.00143918	-45.9446	15.238	10.5958	10.951	0.0456392	0.0471628	0.0656297	45.9406	1.50788e+10	1.45916e+10	2.09829e+10	-44.0594	0.0000000E+000	0.0000000E+000	0.0000000E+000	44.0594	0.0000000E+000	0.0000000E+000	0.0000000E+000	-44.0594	0.0000000E+000	0.0000000E+000	0.0000000E+000	-45.9406	0.0000000E+000	0.0000000E+000	0.0000000E+000	45.9406	0.967694	44.0594	0.000000000000000E+000	-2.43008e-06	7.02346e-11	-2.43015e-06	3.88421	6.20811e+06	179.428	6.20829e+06
9.95598e-05	6.30228	78.7997	79.0513	-85.4273	20328.9	3.88409	-0.000625648	2.02867e+07	2.01578e+07	1	11	0.00506574	6.40817e-05	0	-0.0706661	-0.000112259	1.53525e-06	32.8052	0.0239578	0.0201369	-0.0129799	-85.412	79.04	6.32242	78.7867	0.00100851	0.0126097	0.01265	85.4273	2.01578e+10	1.61219e+09	2.02221e+10	-4.5727	0.0000000E+000	0.0000000E+000	0.0000000E+000	4.5727	0.0000000E+000	0.0000000E+000	0.0000000E+000	-4.5727	0.0000000E+000	0.0000000E+000	0.0000000E+000	-85.4273	0.0000000E+000	0.0000000E+000	0.0000000E+000	85.4273	0.0799785	4.57269	0.000000000000000E+000	-2.43008e-06	7.02346e-11	-2.43015e-06	3.88421	6.20811e+06	179.428	6.20829e+06