Folder: EIS/txt (part 168)

File: 19147_R306_UA711_SOC00_C03.mpt
EC-Lab ASCII FILE
Nb header lines : 66

Potentio Electrochemical Impedance Spectroscopy

Run on channel : 3 (SN 65921)
Grouped channel(s) : 3, 4, 5, 6, 7
User :
CE vs. WE compliance from -10 V to 10 V
Electrode connection : standard
Potential control : Ewe
Ewe ctrl range : min = -10.00 V, max = 10.00 V
Safety Limits :
	Do not start on E overload
Acquisition started on : 11/12/2025 11:40:22.150
Loaded Setting File :  C:\Users\Celltest\OneDrive - store-dot.com\Documents\EC-Lab\Data\@Biologic Test Protocols\anode half cell EIS SOC00.mps
Saved on :
	File : 19147_R306_UA711_SOC00_C03.mpr
	Directory : C:\Users\Celltest\OneDrive - store-dot.com\Documents\EC-Lab\Data\Charmaine\
	Host : 169.254.61.224
Device : VMP-3e (SN .003165)
Address : USB
EC-LAB for windows v11.62 (software)
Internet server v27.00 (firmware)
Command interpretor v12.03 (firmware)
Electrode material :
Initial state :
Electrolyte :
Comments :
Electrode surface area : 0.001 cm²
Characteristic mass : 0.001 g
Equivalent Weight : 0.000 g/eq.
Density : 0.000 g/cm3
Volume (V) : 0.001 cm³
Record Ece
Cycle Definition : Charge/Discharge alternance
Mode                Single sine
E (V)               0.0000
vs.                 Eoc
tE (h:m:s)          0:00:0.0000
record              0
dI                  0.000
unit dI             mA
dt (s)              0.000
fi                  100.000
unit fi             kHz
ff                  10.000
unit ff             mHz
Nd                  6
Points              per decade
spacing             Logarithmic
Va (mV)             5.0
pw                  0.10
Na                  2
corr                0
E range min (V)     -10.000
E range max (V)     10.000
I Range             Auto
Bandwidth           5
nc cycles           0
goto Ns'            0
nr cycles           0
inc. cycle          0

freq/Hz	Re(Z)/Ohm	-Im(Z)/Ohm	|Z|/Ohm	Phase(Z)/deg	time/s	<Ewe>/V	<I>/mA	Cs/µF	Cp/µF	cycle number	I Range	|Ewe|/V	|I|/A	Ns	(Q-Qo)/mA.h	<Ece>/V	|Ece|/V	Phase(Zce)/deg	|Zce|/Ohm	Re(Zce)/Ohm	-Im(Zce)/Ohm	Phase(Zwe-ce)/deg	|Zwe-ce|/Ohm	Re(Zwe-ce)/Ohm	-Im(Zwe-ce)/Ohm	Re(Y)/Ohm-1	Im(Y)/Ohm-1	|Y|/Ohm-1	Phase(Y)/deg	Re(C)/nF	Im(C)/nF	|C|/nF	Phase(C)/deg	Re(M)	Im(M)	|M|	Phase(M)/deg	Re(Permittivity)	Im(Permittivity)	|Permittivity|	Phase(Permittivity)/deg	Re(Resistivity)/Ohm.cm	Im(Resistivity)/Ohm.cm	|Resistivity|/Ohm.cm	Phase(Resistivity)/deg	Re(Conductivity)/mS/cm	Im(Conductivity)/mS/cm	|Conductivity|/mS/cm	Phase(Conductivity)/deg	Tan(Delta)	Loss Angle(Delta)/deg	dq/mA.h	Pwe/W	Pce/W	Pwe-ce/W	<Ewe-Ece>/V	Rwe/Ohm	Rce/Ohm	Rwe-ce/Ohm		Ewe-Ece/V
100004	3.13673	1.08583	3.31935	-19.0941	1.77853	0.197677	0.0428439	1.46569	0.156841	1	9	0.00551305	0.00166088	0	4.59451e-06	-0.000243339	2.97269e-05	46.8356	0.0178982	0.0122441	-0.0130549	-18.8126	3.32669	3.14897	1.07277	0.284689	0.0985496	0.301264	19.0941	156.841	453.08	479.459	-70.9059	0.0000000E+000	0.0000000E+000	0.0000000E+000	70.9059	0.0000000E+000	0.0000000E+000	0.0000000E+000	-70.9059	0.0000000E+000	0.0000000E+000	0.0000000E+000	-19.0941	0.0000000E+000	0.0000000E+000	0.0000000E+000	19.0941	2.88879	70.9059	4.59451e-06	8.46926e-06	-1.04256e-08	8.47969e-06	0.197921	4613.9	5.67968	4619.58
31621.1	4.23713	2.43237	4.88566	-29.8584	3.33052	0.197645	-0.0036512	2.06925	0.512891	1	10	0.00464071	0.000949864	0	3.30673e-05	0.000100354	1.28713e-05	22.3024	0.0135507	0.012537	-0.00514241	-29.7331	4.89399	4.24967	2.42723	0.177511	0.101902	0.204681	29.8584	512.891	893.445	1030.19	-60.1416	0.0000000E+000	0.0000000E+000	0.0000000E+000	60.1416	0.0000000E+000	0.0000000E+000	0.0000000E+000	-60.1416	0.0000000E+000	0.0000000E+000	0.0000000E+000	-29.8584	0.0000000E+000	0.0000000E+000	0.0000000E+000	29.8584	1.74198	60.1416	4.65618e-06	-7.2164e-07	-3.66411e-10	-7.21274e-07	0.197544	54131.5	27.4852	54104.1
10002.2	6.46825	3.01742	7.13744	-25.0089	4.97752	0.197619	-0.0021522	5.27336	0.942485	1	10	0.00456271	0.000639264	0	3.22625e-05	-0.000147869	1.32951e-05	-12.1445	0.0207975	0.020332	0.00437532	-24.9719	7.15772	6.48858	3.0218	0.12697	0.0592313	0.140106	25.0089	942.485	2020.34	2229.36	-64.9911	0.0000000E+000	0.0000000E+000	0.0000000E+000	64.9911	0.0000000E+000	0.0000000E+000	0.0000000E+000	-64.9911	0.0000000E+000	0.0000000E+000	0.0000000E+000	-25.0089	0.0000000E+000	0.0000000E+000	0.0000000E+000	25.0089	2.14363	64.9911	-1.13505e-06	-4.25315e-07	3.18244e-10	-4.25633e-07	0.197767	91822	68.7061	91890.7
3163.08	8.67811	3.33879	9.29823	-21.0436	6.55263	0.197599	-0.00331188	15.0702	1.94312	1	10	0.00507317	0.000545606	0	3.19252e-05	0.000119448	5.29572e-06	26.5119	0.00970613	0.00868545	-0.00433266	-20.9995	9.30479	8.6868	3.33446	0.100375	0.0386179	0.107547	21.0436	1943.12	5050.5	5411.4	-68.9564	0.0000000E+000	0.0000000E+000	0.0000000E+000	68.9564	0.0000000E+000	0.0000000E+000	0.0000000E+000	-68.9564	0.0000000E+000	0.0000000E+000	0.0000000E+000	-21.0436	0.0000000E+000	0.0000000E+000	0.0000000E+000	21.0436	2.59917	68.9564	-1.2342e-06	-6.54427e-07	-3.95597e-10	-6.54031e-07	0.19748	59663.8	36.0664	59627.7
1000.32	10.7764	4.42909	11.6511	-22.3426	7.90578	0.197607	-0.00266306	35.9225	5.19116	1	10	0.00528287	0.000453424	0	3.11582e-05	-9.0587e-05	7.00518e-06	-132.687	0.0154495	-0.0104746	0.0113565	-22.4139	11.6457	10.7659	4.44045	0.0793856	0.0326275	0.085829	22.3426	5191.16	12630.6	13655.7	-67.6573	0.0000000E+000	0.0000000E+000	0.0000000E+000	67.6573	0.0000000E+000	0.0000000E+000	0.0000000E+000	-67.6573	0.0000000E+000	0.0000000E+000	0.0000000E+000	-22.3426	0.0000000E+000	0.0000000E+000	0.0000000E+000	22.3426	2.43309	67.6573	9.69949e-08	-5.2624e-07	2.41238e-10	-5.26481e-07	0.197698	74203.1	34.0161	74237.1
316.316	13.9161	7.67974	15.8946	-28.8925	9.25505	0.197605	-0.00284205	65.5168	15.295	1	10	0.00515032	0.000324031	0	2.99253e-05	-0.000166963	6.12458e-06	110.672	0.0189013	-0.00667261	-0.0176843	-28.8483	15.8802	13.9094	7.66206	0.0550835	0.0303983	0.0629146	28.8925	15295	27715.4	31655.6	-61.1075	0.0000000E+000	0.0000000E+000	0.0000000E+000	61.1075	0.0000000E+000	0.0000000E+000	0.0000000E+000	-61.1075	0.0000000E+000	0.0000000E+000	0.0000000E+000	-28.8925	0.0000000E+000	0.0000000E+000	0.0000000E+000	28.8925	1.81206	61.1075	-9.12054e-08	-5.61602e-07	4.74517e-10	-5.62077e-07	0.197772	69529	58.7475	69587.7
100.032	21.9962	13.1986	25.6522	-30.9654	10.8478	0.197616	-0.00579011	120.546	31.9124	1	11	0.00512812	0.00019991	0	2.8594e-05	8.12596e-05	1.06175e-05	77.7015	0.0531114	0.011313	-0.0518926	-30.853	25.6352	22.0075	13.1467	0.0334271	0.0200576	0.038983	30.9654	31912.4	53183.8	62023.6	-59.0346	0.0000000E+000	0.0000000E+000	0.0000000E+000	59.0346	0.0000000E+000	0.0000000E+000	0.0000000E+000	-59.0346	0.0000000E+000	0.0000000E+000	0.0000000E+000	-30.9654	0.0000000E+000	0.0000000E+000	0.0000000E+000	30.9654	1.66656	59.0346	-8.88453e-07	-1.14422e-06	-4.70502e-10	-1.14375e-06	0.197535	34129.9	14.0342	34115.9
[...]
0.316193	48.1088	2.95347	48.1994	-3.51307	34.6869	0.197639	-0.00370799	170426	639.909	1	12	0.00510459	0.000105906	0	4.05195e-06	0.000214918	1.52173e-06	-52.0753	0.0143687	0.00883135	0.0113343	-3.52587	48.2089	48.1176	2.96481	0.0207082	0.00127131	0.0207472	3.51307	639909	1.04234e+07	1.0443e+07	-86.4869	0.0000000E+000	0.0000000E+000	0.0000000E+000	86.4869	0.0000000E+000	0.0000000E+000	0.0000000E+000	-86.4869	0.0000000E+000	0.0000000E+000	0.0000000E+000	-3.51307	0.0000000E+000	0.0000000E+000	0.0000000E+000	3.51307	16.2889	86.4869	2.55616e-07	-7.32842e-07	-7.96914e-10	-7.32045e-07	0.197424	53300.8	57.9608	53242.8
0.0999041	49.8386	5.11007	50.0999	-5.85422	79.8949	0.19763	-0.00122442	311752	3243.32	1	12	0.00510429	0.000101882	0	1.27819e-05	4.88337e-06	2.58297e-06	-15.5106	0.0253525	0.0244292	0.00677968	-5.85908	50.1249	49.863	5.11685	0.019856	0.00203589	0.0199601	5.85422	3.24332e+06	3.16322e+07	3.1798e+07	-84.1458	0.0000000E+000	0.0000000E+000	0.0000000E+000	84.1458	0.0000000E+000	0.0000000E+000	0.0000000E+000	-84.1458	0.0000000E+000	0.0000000E+000	0.0000000E+000	-5.85422	0.0000000E+000	0.0000000E+000	0.0000000E+000	5.85422	9.75301	84.1458	-1.75283e-06	-2.41982e-07	-5.97928e-12	-2.41976e-07	0.197625	161408	3.98833	161404
0.0315922	52.556	10.9247	53.6794	-11.7428	222.779	0.197627	-0.000747509	461136	19100.1	1	12	0.00510291	9.50627e-05	0	-0.00016019	-1.42107e-05	1.85199e-06	30.7623	0.0194817	0.0167406	-0.00996448	-11.7287	53.6938	52.5727	10.9148	0.0182392	0.00379136	0.0186291	11.7428	1.91001e+07	9.18854e+07	9.38496e+07	-78.2572	0.0000000E+000	0.0000000E+000	0.0000000E+000	78.2572	0.0000000E+000	0.0000000E+000	0.0000000E+000	-78.2572	0.0000000E+000	0.0000000E+000	0.0000000E+000	-11.7428	0.0000000E+000	0.0000000E+000	0.0000000E+000	11.7428	4.81073	78.2572	-9.7711e-05	-1.47728e-07	1.06226e-11	-1.47739e-07	0.197642	264381	19.0107	264400
0.0146812	56.508	19.965	59.9312	-19.4589	463.818	0.197626	-0.000993438	542989	60258.9	1	12	0.00510423	8.51681e-05	0	-0.000304858	2.39774e-05	2.0536e-06	4.03111	0.0241124	0.0240527	-0.00169505	-19.4497	59.9533	56.532	19.9633	0.0157327	0.00555856	0.0166858	19.4589	6.02589e+07	1.70554e+08	1.80887e+08	-70.5411	0.0000000E+000	0.0000000E+000	0.0000000E+000	70.5411	0.0000000E+000	0.0000000E+000	0.0000000E+000	-70.5411	0.0000000E+000	0.0000000E+000	0.0000000E+000	-19.4589	0.0000000E+000	0.0000000E+000	0.0000000E+000	19.4589	2.83036	70.5411	-3.86586e-05	-1.96329e-07	-2.38201e-11	-1.96305e-07	0.197602	198931	24.1358	198907

0.0100092	59.0142	26.6704	64.761	-24.3197	673.998	0.197635	-0.000720989	596201	101117	1	12	0.00510433	7.88179e-05	0	-0.000190832	0.000157636	2.20227e-06	4.88375	0.0279412	0.0278398	-0.00237876	-24.3077	64.7854	59.0421	26.668	0.0140711	0.00635919	0.0154414	24.3197	1.01117e+08	2.23744e+08	2.45532e+08	-65.6803	0.0000000E+000	0.0000000E+000	0.0000000E+000	65.6803	0.0000000E+000	0.0000000E+000	0.0000000E+000	-65.6803	0.0000000E+000	0.0000000E+000	0.0000000E+000	-24.3197	0.0000000E+000	0.0000000E+000	0.0000000E+000	24.3197	2.21272	65.6803	0.000114026	-1.42492e-07	-1.13654e-10	-1.42379e-07	0.197477	274116	218.638	273897

File: 19148_R306_UA711_SOC00_C04.mpt
EC-Lab ASCII FILE
Nb header lines : 65

Potentio Electrochemical Impedance Spectroscopy

Run on channel : 4 (SN 66756)
Grouped channel(s) : 3, 4, 5, 6, 7
User :
CE vs. WE compliance from -10 V to 10 V
Electrode connection : standard
Potential control : Ewe
Ewe ctrl range : min = -10.00 V, max = 10.00 V
Safety Limits :
	Do not start on E overload
Acquisition started on : 11/12/2025 11:40:22.150
Loaded Setting File :  C:\Users\Celltest\OneDrive - store-dot.com\Documents\EC-Lab\Data\@Biologic Test Protocols\anode half cell EIS SOC00.mps
Saved on :
	File : 19147_R306_UA711_SOC00_C04.mpr
	Directory : C:\Users\Celltest\OneDrive - store-dot.com\Documents\EC-Lab\Data\Charmaine\
	Host : 169.254.61.224
Device : VMP-3e (SN .003165)
Address : USB
EC-LAB for windows v11.62 (software)
Internet server v27.00 (firmware)
Command interpretor v12.03 (firmware)
Electrode material :
Initial state :
Electrolyte :
Comments :
Electrode surface area : 0.001 cm²
Characteristic mass : 0.001 g
Equivalent Weight : 0.000 g/eq.
Density : 0.000 g/cm3
Volume (V) : 0.001 cm³
Record Ece
Cycle Definition : Charge/Discharge alternance
Mode                Single sine
E (V)               0.0000
vs.                 Eoc
tE (h:m:s)          0:00:0.0000
record              0
dI                  0.000
unit dI             mA
dt (s)              0.000
fi                  100.000
unit fi             kHz
ff                  10.000
unit ff             mHz
Nd                  6
Points              per decade
spacing             Logarithmic
Va (mV)             5.0
pw                  0.10
Na                  2
corr                0
E range min (V)     -10.000
E range max (V)     10.000
I Range             Auto
Bandwidth           5
nc cycles           0
goto Ns'            0
nr cycles           0
inc. cycle          0

freq/Hz	Re(Z)/Ohm	-Im(Z)/Ohm	|Z|/Ohm	Phase(Z)/deg	time/s	<Ewe>/V	<I>/mA	Cs/µF	Cp/µF	cycle number	I Range	|Ewe|/V	|I|/A	Ns	(Q-Qo)/mA.h	<Ece>/V	|Ece|/V	Phase(Zce)/deg	|Zce|/Ohm	Re(Zce)/Ohm	-Im(Zce)/Ohm	Phase(Zwe-ce)/deg	|Zwe-ce|/Ohm	Re(Zwe-ce)/Ohm	-Im(Zwe-ce)/Ohm	Re(Y)/Ohm-1	Im(Y)/Ohm-1	|Y|/Ohm-1	Phase(Y)/deg	Re(C)/nF	Im(C)/nF	|C|/nF	Phase(C)/deg	Re(M)	Im(M)	|M|	Phase(M)/deg	Re(Permittivity)	Im(Permittivity)	|Permittivity|	Phase(Permittivity)/deg	Re(Resistivity)/Ohm.cm	Im(Resistivity)/Ohm.cm	|Resistivity|/Ohm.cm	Phase(Resistivity)/deg	Re(Conductivity)/mS/cm	Im(Conductivity)/mS/cm	|Conductivity|/mS/cm	Phase(Conductivity)/deg	Tan(Delta)	Loss Angle(Delta)/deg	dq/mA.h	Pwe/W	Pce/W	Pwe-ce/W	<Ewe-Ece>/V	Rwe/Ohm	Rce/Ohm	Rwe-ce/Ohm		Ewe-Ece/V
100004	1.96746	1.23051	2.32057	-32.0231	1.91154	0.192663	-0.0719691	1.29336	0.363663	1	9	0.00466667	0.002011	0	-1.0162e-05	-0.000125432	3.40825e-05	99.0417	0.016948	-0.00266344	-0.0167374	-31.7061	2.30947	1.96479	1.21377	0.365356	0.228505	0.430929	32.0231	363.663	581.461	685.819	-57.9769	0.0000000E+000	0.0000000E+000	0.0000000E+000	57.9769	0.0000000E+000	0.0000000E+000	0.0000000E+000	-57.9769	0.0000000E+000	0.0000000E+000	0.0000000E+000	-32.0231	0.0000000E+000	0.0000000E+000	0.0000000E+000	32.0231	1.5989	57.9769	-1.0162e-05	-1.38658e-05	9.02721e-09	-1.38748e-05	0.192789	2677.03	1.74285	2678.77
31621.1	3.23522	1.95671	3.78092	-31.1662	3.31054	0.192665	-0.0702535	2.57227	0.68893	1	9	0.00515497	0.00136342	0	-4.74203e-05	-8.72118e-05	1.62355e-05	3.31762	0.011908	0.011888	-0.000689126	-31.0643	3.79074	3.2471	1.95602	0.226313	0.136878	0.264486	31.1662	688.93	1139.07	1331.21	-58.8338	0.0000000E+000	0.0000000E+000	0.0000000E+000	58.8338	0.0000000E+000	0.0000000E+000	0.0000000E+000	-58.8338	0.0000000E+000	0.0000000E+000	0.0000000E+000	-31.1662	0.0000000E+000	0.0000000E+000	0.0000000E+000	31.1662	1.65339	58.8338	-6.18381e-06	-1.35354e-05	6.12693e-09	-1.35415e-05	0.192752	2742.43	1.24139	2743.67
10002.2	4.95867	2.32802	5.47796	-25.1493	4.49053	0.19273	-0.0231144	6.83498	1.23445	1	10	0.00475056	0.000867214	0	-6.32814e-05	-0.000106322	1.24528e-05	-93.2822	0.0143595	-0.000822126	0.014336	-25.2886	5.48333	4.95785	2.34235	0.165245	0.0775797	0.18255	25.1493	1234.45	2629.36	2904.72	-64.8507	0.0000000E+000	0.0000000E+000	0.0000000E+000	64.8507	0.0000000E+000	0.0000000E+000	0.0000000E+000	-64.8507	0.0000000E+000	0.0000000E+000	0.0000000E+000	-25.1493	0.0000000E+000	0.0000000E+000	0.0000000E+000	25.1493	2.13	64.8507	-8.56336e-07	-4.45485e-06	2.45756e-09	-4.4573e-06	0.192837	8338.1	4.5998	8342.7
3163.08	6.58946	2.66623	7.10843	-22.0293	5.38964	0.192622	-0.0161875	18.8717	2.65498	1	10	0.00462667	0.000650871	0	-6.76325e-05	0.000180328	6.38226e-06	-38.4539	0.00980572	0.00767895	0.00609803	-22.0516	7.11784	6.59714	2.67233	0.130407	0.0527656	0.140678	22.0293	2654.98	6561.64	7078.42	-67.9707	0.0000000E+000	0.0000000E+000	0.0000000E+000	67.9707	0.0000000E+000	0.0000000E+000	0.0000000E+000	-67.9707	0.0000000E+000	0.0000000E+000	0.0000000E+000	-22.0293	0.0000000E+000	0.0000000E+000	0.0000000E+000	22.0293	2.47145	67.9707	-1.81552e-06	-3.11806e-06	-2.91905e-09	-3.11515e-06	0.192442	11899.4	11.1399	11888.3
1000.32	8.20911	3.86509	9.0735	-25.2124	6.74282	0.19266	-0.00541847	41.1644	7.46949	1	10	0.0045286	0.000499102	0	-6.94974e-05	-0.000259201	8.45229e-06	5.6471	0.016935	0.0168528	-0.00166642	-25.1577	9.08804	8.22596	3.86342	0.0997118	0.0469472	0.110211	25.2124	7469.49	15864.5	17535	-64.7876	0.0000000E+000	0.0000000E+000	0.0000000E+000	64.7876	0.0000000E+000	0.0000000E+000	0.0000000E+000	-64.7876	0.0000000E+000	0.0000000E+000	0.0000000E+000	-25.2124	0.0000000E+000	0.0000000E+000	0.0000000E+000	25.2124	2.12391	64.7876	-9.1772e-07	-1.04392e-06	1.40447e-09	-1.04533e-06	0.192919	35556.1	47.8366	35604
316.316	11.0155	7.31577	13.2235	-33.5896	8.09301	0.192648	-0.00577657	68.7763	21.0507	1	10	0.00450048	0.00034034	0	-7.12007e-05	2.7448e-05	1.01727e-05	-20.2711	0.0298897	0.0280385	0.0103557	-33.5598	13.2526	11.0435	7.32613	0.0629956	0.0418377	0.075623	33.5896	21050.7	31696.3	38049.8	-56.4104	0.0000000E+000	0.0000000E+000	0.0000000E+000	56.4104	0.0000000E+000	0.0000000E+000	0.0000000E+000	-56.4104	0.0000000E+000	0.0000000E+000	0.0000000E+000	-33.5896	0.0000000E+000	0.0000000E+000	0.0000000E+000	33.5896	1.50571	56.4104	-6.7069e-07	-1.11285e-06	-1.58555e-10	-1.11269e-06	0.192621	33349.9	4.7516	33345.2
100.032	19.0087	13.0292	23.0454	-34.428	9.89979	0.192696	-0.00238158	122.113	39.0327	1	11	0.00500239	0.000217066	0	-7.31147e-05	-0.000106322	3.50451e-06	-43.6397	0.0161449	0.011684	0.0111419	-34.4344	23.0614	19.0204	13.0404	0.0357918	0.0245328	0.0433925	34.428	39032.7	56946.1	69039.2	-55.572	0.0000000E+000	0.0000000E+000	0.0000000E+000	55.572	0.0000000E+000	0.0000000E+000	0.0000000E+000	-55.572	0.0000000E+000	0.0000000E+000	0.0000000E+000	-34.428	0.0000000E+000	0.0000000E+000	0.0000000E+000	34.428	1.45893	55.572	-5.1266e-07	-4.58921e-07	2.53213e-10	-4.59174e-07	0.192802	80911.1	44.6434	80955.7
[...]
1.00006	43.2658	2.3193	43.328	-3.06845	19.3967	0.192718	-0.000508767	68617.5	196.613	1	12	0.00498504	0.000115054	0	-7.46714e-05	-0.000316531	2.70854e-06	1.67942	0.0235415	0.0235314	-0.000689936	-3.06588	43.3514	43.2894	2.31861	0.0230467	0.00123544	0.0230798	3.06845	196613	3.66776e+06	3.67303e+06	-86.9315	0.0000000E+000	0.0000000E+000	0.0000000E+000	86.9315	0.0000000E+000	0.0000000E+000	0.0000000E+000	-86.9315	0.0000000E+000	0.0000000E+000	0.0000000E+000	-3.06845	0.0000000E+000	0.0000000E+000	0.0000000E+000	3.06845	18.6547	86.9315	3.15093e-06	-9.80487e-08	1.61041e-10	-9.82097e-08	0.193035	378794	622.153	379416
0.316193	44.5308	2.78311	44.6177	-3.57626	33.7398	0.192714	0.000374656	180858	703.695	1	12	0.00498905	0.000111818	0	-6.97873e-05	-0.000220981	2.50894e-06	-33.5954	0.0224377	0.0186898	0.0124154	-3.59067	44.6371	44.5495	2.79553	0.022369	0.00139803	0.0224126	3.57626	703695	1.12594e+07	1.12813e+07	-86.4237	0.0000000E+000	0.0000000E+000	0.0000000E+000	86.4237	0.0000000E+000	0.0000000E+000	0.0000000E+000	-86.4237	0.0000000E+000	0.0000000E+000	0.0000000E+000	-3.57626	0.0000000E+000	0.0000000E+000	0.0000000E+000	3.57626	16.0003	86.4237	-2.40871e-06	7.22014e-08	-8.27921e-11	7.22842e-08	0.192935	514375	589.825	514965
0.0999041	46.0649	4.65644	46.2997	-5.7721	78.9488	0.192723	-0.000273433	342123	3460.47	1	12	0.00498283	0.000107621	0	-0.000122684	-0.000316531	3.37787e-06	12.3618	0.0313866	0.0306589	-0.00671936	-5.76002	46.3295	46.0956	4.64972	0.0214889	0.00217219	0.0215984	5.7721	3.46047e+06	3.42335e+07	3.4408e+07	-84.2279	0.0000000E+000	0.0000000E+000	0.0000000E+000	84.2279	0.0000000E+000	0.0000000E+000	0.0000000E+000	-84.2279	0.0000000E+000	0.0000000E+000	0.0000000E+000	-5.7721	0.0000000E+000	0.0000000E+000	0.0000000E+000	5.7721	9.89273	84.2279	-2.27544e-05	-5.26969e-08	8.65502e-11	-5.27834e-08	0.193039	704825	1157.62	705983
0.0315922	48.5093	10.2539	49.5812	-11.9355	221.832	0.19272	-0.000652997	491304	21013.4	1	12	0.00498853	0.000100613	0	-4.99465e-05	-0.000373861	3.40533e-06	-35.2331	0.0338457	0.0276455	0.0195257	-11.951	49.6123	48.5369	10.2734	0.0197329	0.00417115	0.0201689	11.9355	2.10134e+07	9.94103e+07	1.01607e+08	-78.0645	0.0000000E+000	0.0000000E+000	0.0000000E+000	78.0645	0.0000000E+000	0.0000000E+000	0.0000000E+000	-78.0645	0.0000000E+000	0.0000000E+000	0.0000000E+000	-11.9355	0.0000000E+000	0.0000000E+000	0.0000000E+000	11.9355	4.7308	78.0645	7.05623e-05	-1.25845e-07	2.4413e-10	-1.2609e-07	0.193094	295132	572.531	295704
0.0100092	55.3793	24.1303	60.4081	-23.5441	673.054	0.19272	0.000364186	658961	105146	1	12	0.00498601	8.25388e-05	0	0.000149251	8.33802e-06	1.88138e-06	-3.10816	0.0227939	0.0227603	0.00123591	-23.5365	60.4294	55.4021	24.1315	0.015176	0.0066126	0.0165541	23.5441	1.05146e+08	2.41312e+08	2.63225e+08	-66.4559	0.0000000E+000	0.0000000E+000	0.0000000E+000	66.4559	0.0000000E+000	0.0000000E+000	0.0000000E+000	-66.4559	0.0000000E+000	0.0000000E+000	0.0000000E+000	-23.5441	0.0000000E+000	0.0000000E+000	0.0000000E+000	23.5441	2.29501	66.4559	-2.09891e-05	7.01857e-08	3.03659e-12	7.01827e-08	0.192711	529180	22.895	529157