Folder: EIS/txt (part 165)

File: 19141_R306_UA703_SOC00_C05.mpt
EC-Lab ASCII FILE
Nb header lines : 65

Potentio Electrochemical Impedance Spectroscopy

Run on channel : 5 (SN 65912)
Grouped channel(s) : 1, 2, 3, 4, 5
User :
CE vs. WE compliance from -10 V to 10 V
Electrode connection : standard
Potential control : Ewe
Ewe ctrl range : min = -10.00 V, max = 10.00 V
Safety Limits :
	Do not start on E overload
Acquisition started on : 11/12/2025 11:20:24.450
Loaded Setting File :  C:\Users\Celltest\OneDrive - store-dot.com\Documents\EC-Lab\Data\@Biologic Test Protocols\anode half cell EIS SOC00.mps
Saved on :
	File : 19137_R306_UA703_SOC00_C05.mpr
	Directory : C:\Users\Celltest\OneDrive - store-dot.com\Documents\EC-Lab\Data\Charmaine\
	Host : 169.254.61.224
Device : VMP-3e (SN .003165)
Address : USB
EC-LAB for windows v11.62 (software)
Internet server v27.00 (firmware)
Command interpretor v12.03 (firmware)
Electrode material :
Initial state :
Electrolyte :
Comments :
Electrode surface area : 0.001 cm²
Characteristic mass : 0.001 g
Equivalent Weight : 0.000 g/eq.
Density : 0.000 g/cm3
Volume (V) : 0.001 cm³
Record Ece
Cycle Definition : Charge/Discharge alternance
Mode                Single sine
E (V)               0.0000
vs.                 Eoc
tE (h:m:s)          0:00:0.0000
record              0
dI                  0.000
unit dI             mA
dt (s)              0.000
fi                  100.000
unit fi             kHz
ff                  10.000
unit ff             mHz
Nd                  6
Points              per decade
spacing             Logarithmic
Va (mV)             5.0
pw                  0.10
Na                  2
corr                0
E range min (V)     -10.000
E range max (V)     10.000
I Range             Auto
Bandwidth           5
nc cycles           0
goto Ns'            0
nr cycles           0
inc. cycle          0

freq/Hz	Re(Z)/Ohm	-Im(Z)/Ohm	|Z|/Ohm	Phase(Z)/deg	time/s	<Ewe>/V	<I>/mA	Cs/µF	Cp/µF	cycle number	I Range	|Ewe|/V	|I|/A	Ns	(Q-Qo)/mA.h	<Ece>/V	|Ece|/V	Phase(Zce)/deg	|Zce|/Ohm	Re(Zce)/Ohm	-Im(Zce)/Ohm	Phase(Zwe-ce)/deg	|Zwe-ce|/Ohm	Re(Zwe-ce)/Ohm	-Im(Zwe-ce)/Ohm	Re(Y)/Ohm-1	Im(Y)/Ohm-1	|Y|/Ohm-1	Phase(Y)/deg	Re(C)/nF	Im(C)/nF	|C|/nF	Phase(C)/deg	Re(M)	Im(M)	|M|	Phase(M)/deg	Re(Permittivity)	Im(Permittivity)	|Permittivity|	Phase(Permittivity)/deg	Re(Resistivity)/Ohm.cm	Im(Resistivity)/Ohm.cm	|Resistivity|/Ohm.cm	Phase(Resistivity)/deg	Re(Conductivity)/mS/cm	Im(Conductivity)/mS/cm	|Conductivity|/mS/cm	Phase(Conductivity)/deg	Tan(Delta)	Loss Angle(Delta)/deg	dq/mA.h	Pwe/W	Pce/W	Pwe-ce/W	<Ewe-Ece>/V	Rwe/Ohm	Rce/Ohm	Rwe-ce/Ohm		Ewe-Ece/V
100004	1.1601	0.465212	1.2499	-21.8513	1.72556	0.264301	-0.0267224	3.421	0.47392	1	9	0.00481735	0.00385418	0	-5.33333e-06	-0.000119398	4.49104e-05	109.441	0.0116524	-0.00387826	-0.010988	-21.4475	1.24224	1.15622	0.454224	0.742581	0.297783	0.800064	21.8513	473.92	1181.81	1273.29	-68.1487	0.0000000E+000	0.0000000E+000	0.0000000E+000	68.1487	0.0000000E+000	0.0000000E+000	0.0000000E+000	-68.1487	0.0000000E+000	0.0000000E+000	0.0000000E+000	-21.8513	0.0000000E+000	0.0000000E+000	0.0000000E+000	21.8513	2.4937	68.1487	-5.33333e-06	-7.06277e-06	3.1906e-09	-7.06596e-06	0.264421	9890.61	4.46807	9895.08
31621.1	1.57498	0.625288	1.69456	-21.6538	3.24652	0.264272	-0.0298506	8.04938	1.096	1	9	0.00504543	0.00297743	0	-4.39744e-05	-2.39417e-05	1.12354e-05	23.9439	0.00377352	0.00344879	-0.00153145	-21.5628	1.6972	1.57842	0.623757	0.548479	0.217754	0.590124	21.6538	1096	2760.59	2970.2	-68.3462	0.0000000E+000	0.0000000E+000	0.0000000E+000	68.3462	0.0000000E+000	0.0000000E+000	0.0000000E+000	-68.3462	0.0000000E+000	0.0000000E+000	0.0000000E+000	-21.6538	0.0000000E+000	0.0000000E+000	0.0000000E+000	21.6538	2.5188	68.3462	-1.88053e-05	-7.88869e-06	7.14674e-10	-7.88941e-06	0.264296	8853.17	0.802051	8853.97
10002.2	2.0576	0.791042	2.20442	-21.0292	4.27554	0.264266	-0.0218068	20.1152	2.59021	1	9	0.00503656	0.00228475	0	-4.62255e-05	9.06056e-05	5.22022e-06	-117.942	0.00228481	-0.00107063	0.00201844	-21.0882	2.20415	2.05653	0.79306	0.423421	0.162784	0.453634	21.0292	2590.21	6737.46	7218.21	-68.9708	0.0000000E+000	0.0000000E+000	0.0000000E+000	68.9708	0.0000000E+000	0.0000000E+000	0.0000000E+000	-68.9708	0.0000000E+000	0.0000000E+000	0.0000000E+000	-21.0292	0.0000000E+000	0.0000000E+000	0.0000000E+000	21.0292	2.60113	68.9708	-2.19378e-06	-5.7628e-06	-1.97582e-09	-5.76083e-06	0.264175	12118.5	4.15492	12114.3
3163.08	2.65226	1.11235	2.87607	-22.7531	5.17362	0.264062	-0.0945734	45.2343	6.76632	1	9	0.00460974	0.00160279	0	-6.00683e-05	0.000205153	9.26537e-06	-111.876	0.00578078	-0.00215393	0.00536451	-22.8682	2.87617	2.6501	1.11772	0.320639	0.134475	0.347696	22.7531	6766.32	16133.4	17494.8	-67.2469	0.0000000E+000	0.0000000E+000	0.0000000E+000	67.2469	0.0000000E+000	0.0000000E+000	0.0000000E+000	-67.2469	0.0000000E+000	0.0000000E+000	0.0000000E+000	-22.7531	0.0000000E+000	0.0000000E+000	0.0000000E+000	22.7531	2.38437	67.2469	-7.57969e-06	-2.49732e-05	-1.9402e-08	-2.49538e-05	0.263856	2792.13	2.16924	2789.96
1000.32	3.45471	1.70912	3.85436	-26.3225	6.77385	0.264199	-0.0257607	93.0914	18.3041	1	10	0.0046207	0.00119882	0	-6.34661e-05	0.000186062	5.06156e-06	76.5269	0.00422211	0.000983706	-0.00410591	-26.2613	3.85343	3.4557	1.70501	0.232545	0.115045	0.259446	26.3225	18304.1	36998.8	41278.9	-63.6775	0.0000000E+000	0.0000000E+000	0.0000000E+000	63.6775	0.0000000E+000	0.0000000E+000	0.0000000E+000	-63.6775	0.0000000E+000	0.0000000E+000	0.0000000E+000	-26.3225	0.0000000E+000	0.0000000E+000	0.0000000E+000	26.3225	2.02134	63.6775	-4.02845e-06	-6.80593e-06	-4.79307e-09	-6.80114e-06	0.264013	10255.9	7.2227	10248.7
316.316	4.74938	3.00265	5.61895	-32.3019	8.12401	0.264205	-0.0265538	167.569	47.8514	1	10	0.00452833	0.000805903	0	-7.19512e-05	-0.000233945	6.5075e-06	-17.4163	0.00807479	0.00770461	0.00241689	-32.2808	5.62675	4.75709	3.00507	0.150427	0.0951032	0.177969	32.3019	47851.4	75687.9	89545.6	-57.6981	0.0000000E+000	0.0000000E+000	0.0000000E+000	57.6981	0.0000000E+000	0.0000000E+000	0.0000000E+000	-57.6981	0.0000000E+000	0.0000000E+000	0.0000000E+000	-32.3019	0.0000000E+000	0.0000000E+000	0.0000000E+000	32.3019	1.58173	57.6981	-2.78211e-06	-7.01564e-06	6.21213e-09	-7.02185e-06	0.264439	9949.81	8.81024	9958.62
100.032	7.82414	4.93082	9.24825	-32.2193	9.4718	0.264203	-0.0252841	322.673	91.7235	1	10	0.00451203	0.000487879	0	-8.14757e-05	-2.39417e-05	8.66622e-06	9.73983	0.0177631	0.017507	-0.00300506	-32.1459	9.26147	7.84165	4.92781	0.0914782	0.05765	0.108129	32.2193	91723.5	145545	172037	-57.7807	0.0000000E+000	0.0000000E+000	0.0000000E+000	57.7807	0.0000000E+000	0.0000000E+000	0.0000000E+000	-57.7807	0.0000000E+000	0.0000000E+000	0.0000000E+000	-32.2193	0.0000000E+000	0.0000000E+000	0.0000000E+000	32.2193	1.58678	57.7807	-2.31623e-06	-6.68014e-06	6.05344e-10	-6.68075e-06	0.264227	10449.4	0.946907	10450.3
[...]
1.00006	20.1322	1.92333	20.2239	-5.45718	19.54	0.264241	-0.0095131	82744.5	748.371	1	12	0.00450914	0.000222961	0	-0.000115655	-0.000119398	3.28897e-06	73.7364	0.0147513	0.0041312	-0.014161	-5.41614	20.2266	20.1363	1.90917	0.0492224	0.00470245	0.0494465	5.45718	748371	7.83349e+06	7.86915e+06	-84.5428	0.0000000E+000	0.0000000E+000	0.0000000E+000	84.5428	0.0000000E+000	0.0000000E+000	0.0000000E+000	-84.5428	0.0000000E+000	0.0000000E+000	0.0000000E+000	-5.45718	0.0000000E+000	0.0000000E+000	0.0000000E+000	5.45718	10.4674	84.5428	-2.80398e-06	-2.51375e-06	1.13584e-09	-2.51488e-06	0.26436	27776.5	12.5509	27789.1
0.316193	20.9837	1.88259	21.068	-5.12667	33.8838	0.264243	-0.0052146	267369	2134.9	1	12	0.00450493	0.000213828	0	-0.000126997	0.000186062	1.60435e-06	-9.00635	0.007503	0.00741049	0.00117455	-5.12805	21.0755	20.9911	1.88377	0.0472755	0.00424141	0.0474654	5.12667	2.1349e+06	2.3796e+07	2.38916e+07	-84.8733	0.0000000E+000	0.0000000E+000	0.0000000E+000	84.8733	0.0000000E+000	0.0000000E+000	0.0000000E+000	-84.8733	0.0000000E+000	0.0000000E+000	0.0000000E+000	-5.12667	0.0000000E+000	0.0000000E+000	0.0000000E+000	5.12667	11.1462	84.8733	-1.23851e-05	-1.37792e-06	-9.70236e-10	-1.37695e-06	0.264057	50673.7	35.6809	50638
0.0999041	21.9912	3.10599	22.2094	-8.03919	79.0907	0.264237	-0.00347479	512904	10031.4	1	12	0.00450555	0.000202867	0	-0.000278833	-2.39417e-05	2.16069e-06	28.1571	0.0106508	0.00939035	-0.00502602	-8.02297	22.218	22.0005	3.10097	0.0445835	0.0062969	0.045026	8.03919	1.00314e+07	7.10249e+07	7.17298e+07	-81.9608	0.0000000E+000	0.0000000E+000	0.0000000E+000	81.9608	0.0000000E+000	0.0000000E+000	0.0000000E+000	-81.9608	0.0000000E+000	0.0000000E+000	0.0000000E+000	-8.03919	0.0000000E+000	0.0000000E+000	0.0000000E+000	8.03919	7.08023	81.9608	-6.65526e-05	-9.18168e-07	8.31924e-11	-9.18251e-07	0.264261	76043.9	6.89011	76050.7
0.0315922	23.7634	6.62047	24.6684	-15.5678	221.974	0.26424	-0.00200109	760942	54808.4	1	12	0.00450321	0.00018255	0	-0.000240365	-4.30329e-05	1.9889e-06	-18.138	0.0108951	0.0103538	0.00339172	-15.5689	24.6793	23.7738	6.62386	0.0390505	0.0108795	0.0405377	15.5678	5.48084e+07	1.96728e+08	2.0422e+08	-74.4322	0.0000000E+000	0.0000000E+000	0.0000000E+000	74.4322	0.0000000E+000	0.0000000E+000	0.0000000E+000	-74.4322	0.0000000E+000	0.0000000E+000	0.0000000E+000	-15.5678	0.0000000E+000	0.0000000E+000	0.0000000E+000	15.5678	3.58938	74.4322	0.0001011	-5.28769e-07	8.61127e-11	-5.28855e-07	0.264283	132048	21.5047	132070
0.0100092	27.829	15.0258	31.6264	-28.366	673.197	0.264231	0.000329789	1.05824e+06	238869	1	12	0.00450612	0.00014248	0	0.000163028	-2.39417e-05	1.24321e-06	2.78902	0.00872553	0.0087152	-0.00042457	-28.3578	31.6339	27.8377	15.0253	0.0278227	0.0150223	0.0316192	28.366	2.38869e+08	4.42406e+08	5.02774e+08	-61.634	0.0000000E+000	0.0000000E+000	0.0000000E+000	61.634	0.0000000E+000	0.0000000E+000	0.0000000E+000	-61.634	0.0000000E+000	0.0000000E+000	0.0000000E+000	-28.366	0.0000000E+000	0.0000000E+000	0.0000000E+000	28.366	1.85209	61.634	-3.00665e-06	8.71407e-08	-7.89571e-12	8.71486e-08	0.264255	801213	72.5969	801286

File: 19142_R306_UA710_SOC00_C06.mpt
EC-Lab ASCII FILE
Nb header lines : 66

Potentio Electrochemical Impedance Spectroscopy

Run on channel : 6 (SN 65795)
Grouped channel(s) : 6, 7, 8
User :
CE vs. WE compliance from -10 V to 10 V
Electrode connection : standard
Potential control : Ewe
Ewe ctrl range : min = -10.00 V, max = 10.00 V
Safety Limits :
	Do not start on E overload
Acquisition started on : 11/12/2025 11:20:50.497
Technique started on : 11/12/2025 11:20:52.551
Loaded Setting File :  C:\Users\Celltest\OneDrive - store-dot.com\Documents\EC-Lab\Data\@Biologic Test Protocols\anode half cell EIS SOC00.mps
Saved on :
	File : 19142_R306_UA710_SOC00_C06.mpr
	Directory : C:\Users\Celltest\OneDrive - store-dot.com\Documents\EC-Lab\Data\Charmaine\
	Host : 169.254.61.224
Device : VMP-3e (SN .003165)
Address : USB
EC-LAB for windows v11.62 (software)
Internet server v27.00 (firmware)
Command interpretor v12.03 (firmware)
Electrode material :
Initial state :
Electrolyte :
Comments :
Electrode surface area : 0.001 cm²
Characteristic mass : 0.001 g
Equivalent Weight : 0.000 g/eq.
Density : 0.000 g/cm3
Volume (V) : 0.001 cm³
Record Ece
Cycle Definition : Charge/Discharge alternance
Mode                Single sine
E (V)               0.0000
vs.                 Eoc
tE (h:m:s)          0:00:0.0000
record              0
dI                  0.000
unit dI             mA
dt (s)              0.000
fi                  100.000
unit fi             kHz
ff                  10.000
unit ff             mHz
Nd                  6
Points              per decade
spacing             Logarithmic
Va (mV)             5.0
pw                  0.10
Na                  2
corr                0
E range min (V)     -10.000
E range max (V)     10.000
I Range             Auto
Bandwidth           5
nc cycles           0
goto Ns'            0
nr cycles           0
inc. cycle          0

freq/Hz	Re(Z)/Ohm	-Im(Z)/Ohm	|Z|/Ohm	Phase(Z)/deg	time/s	<Ewe>/V	<I>/mA	Cs/µF	Cp/µF	cycle number	I Range	|Ewe|/V	|I|/A	Ns	(Q-Qo)/mA.h	<Ece>/V	|Ece|/V	Phase(Zce)/deg	|Zce|/Ohm	Re(Zce)/Ohm	-Im(Zce)/Ohm	Phase(Zwe-ce)/deg	|Zwe-ce|/Ohm	Re(Zwe-ce)/Ohm	-Im(Zwe-ce)/Ohm	Re(Y)/Ohm-1	Im(Y)/Ohm-1	|Y|/Ohm-1	Phase(Y)/deg	Re(C)/nF	Im(C)/nF	|C|/nF	Phase(C)/deg	Re(M)	Im(M)	|M|	Phase(M)/deg	Re(Permittivity)	Im(Permittivity)	|Permittivity|	Phase(Permittivity)/deg	Re(Resistivity)/Ohm.cm	Im(Resistivity)/Ohm.cm	|Resistivity|/Ohm.cm	Phase(Resistivity)/deg	Re(Conductivity)/mS/cm	Im(Conductivity)/mS/cm	|Conductivity|/mS/cm	Phase(Conductivity)/deg	Tan(Delta)	Loss Angle(Delta)/deg	dq/mA.h	Pwe/W	Pce/W	Pwe-ce/W	<Ewe-Ece>/V	Rwe/Ohm	Rce/Ohm	Rwe-ce/Ohm		Ewe-Ece/V
100004	1.82541	1.04049	2.10113	-29.6833	2.05353	0.193805	0.0461459	1.52956	0.375091	1	9	0.00493698	0.00234968	0	-2.03932e-06	-0.000126979	3.70297e-05	55.2695	0.0157595	0.00897844	-0.0129518	-29.2555	2.10258	1.83439	1.02754	0.41348	0.235685	0.475934	29.6833	375.091	658.05	757.445	-60.3167	0.0000000E+000	0.0000000E+000	0.0000000E+000	60.3167	0.0000000E+000	0.0000000E+000	0.0000000E+000	-60.3167	0.0000000E+000	0.0000000E+000	0.0000000E+000	-29.6833	0.0000000E+000	0.0000000E+000	0.0000000E+000	29.6833	1.75437	60.3167	-2.03932e-06	8.94329e-06	-5.85954e-09	8.94915e-06	0.193932	4199.83	2.75168	4202.58
31621.1	2.89045	1.72401	3.36555	-30.8139	3.20454	0.19377	0.0335181	2.91947	0.766073	1	9	0.00546514	0.00162385	0	1.32374e-05	8.30997e-05	1.80189e-05	-0.509157	0.0110964	0.0110959	9.86064e-05	-30.7189	3.37513	2.90155	1.7241	0.255184	0.152204	0.297128	30.8139	766.073	1284.39	1495.5	-59.1861	0.0000000E+000	0.0000000E+000	0.0000000E+000	59.1861	0.0000000E+000	0.0000000E+000	0.0000000E+000	-59.1861	0.0000000E+000	0.0000000E+000	0.0000000E+000	-30.8139	0.0000000E+000	0.0000000E+000	0.0000000E+000	30.8139	1.67659	59.1861	2.44338e-06	6.49479e-06	2.78534e-09	6.49201e-06	0.193687	5781.05	2.47925	5778.57
10002.2	4.3771	2.11002	4.85914	-25.7368	4.63252	0.193753	-0.00581782	7.54114	1.42197	1	10	0.00491515	0.00101153	0	2.12741e-05	0.000350472	7.63673e-06	13.7592	0.00754969	0.00733304	-0.00179564	-25.6802	4.86497	4.38444	2.10822	0.185382	0.0893651	0.205798	25.7368	1421.97	2949.8	3274.65	-64.2632	0.0000000E+000	0.0000000E+000	0.0000000E+000	64.2632	0.0000000E+000	0.0000000E+000	0.0000000E+000	-64.2632	0.0000000E+000	0.0000000E+000	0.0000000E+000	-25.7368	0.0000000E+000	0.0000000E+000	0.0000000E+000	25.7368	2.07444	64.2632	1.70048e-06	-1.12722e-06	-2.03899e-09	-1.12518e-06	0.193402	33303.3	60.2411	33243.1
3163.08	5.82086	2.55951	6.35873	-23.7358	5.78067	0.193714	-0.0086351	19.6586	3.18512	1	10	0.0052944	0.000832619	0	2.02023e-05	0.000254982	4.25034e-06	-160.554	0.00510478	-0.00481357	0.00169951	-23.7673	6.35501	5.81604	2.56121	0.143961	0.0633018	0.157264	23.7358	3185.12	7243.62	7912.97	-66.2642	0.0000000E+000	0.0000000E+000	0.0000000E+000	66.2642	0.0000000E+000	0.0000000E+000	0.0000000E+000	-66.2642	0.0000000E+000	0.0000000E+000	0.0000000E+000	-23.7358	0.0000000E+000	0.0000000E+000	0.0000000E+000	23.7358	2.2742	66.2642	-1.91504e-07	-1.67274e-06	-2.2018e-09	-1.67054e-06	0.193459	22433.3	29.5285	22403.8
1000.32	7.35888	4.09112	8.41964	-29.0716	7.1338	0.193709	-0.0049719	38.8901	9.18198	1	10	0.00512672	0.0006089	0	1.8563e-05	-1.23905e-05	7.84899e-06	67.7475	0.0128904	0.00488147	-0.0119304	-28.9845	8.41812	7.36376	4.07919	0.103806	0.0577106	0.11877	29.0716	9181.98	16516	18896.8	-60.9284	0.0000000E+000	0.0000000E+000	0.0000000E+000	60.9284	0.0000000E+000	0.0000000E+000	0.0000000E+000	-60.9284	0.0000000E+000	0.0000000E+000	0.0000000E+000	-29.0716	0.0000000E+000	0.0000000E+000	0.0000000E+000	29.0716	1.79874	60.9284	-5.80557e-07	-9.631e-07	6.16042e-11	-9.63161e-07	0.193721	38960.7	2.4921	38963.1
316.316	10.3618	8.17244	13.1968	-38.2632	8.48401	0.193699	-0.00499427	61.5669	23.611	1	10	0.00498005	0.000377368	0	1.7254e-05	6.40017e-05	9.62747e-06	3.44803	0.0255122	0.025466	-0.00153438	-38.1896	13.2158	10.3872	8.17091	0.0594974	0.0469262	0.075776	38.2632	23611	29936.2	38126.8	-51.7368	0.0000000E+000	0.0000000E+000	0.0000000E+000	51.7368	0.0000000E+000	0.0000000E+000	0.0000000E+000	-51.7368	0.0000000E+000	0.0000000E+000	0.0000000E+000	-38.2632	0.0000000E+000	0.0000000E+000	0.0000000E+000	38.2632	1.26789	51.7368	-2.97739e-07	-9.67385e-07	-3.19642e-10	-9.67065e-07	0.193635	38784.3	12.815	38771.4
100.032	19.6282	14.5352	24.4241	-36.521	10.0768	0.193728	-0.00590114	109.461	38.7672	1	11	0.00496336	0.000203216	0	1.4895e-05	0.00017859	4.59833e-06	-113.49	0.0226278	-0.0090193	0.0207526	-36.5727	24.4292	19.6191	14.556	0.0329035	0.024366	0.0409432	36.521	38767.2	52350.8	65142.2	-53.479	0.0000000E+000	0.0000000E+000	0.0000000E+000	53.479	0.0000000E+000	0.0000000E+000	0.0000000E+000	-53.479	0.0000000E+000	0.0000000E+000	0.0000000E+000	-36.521	0.0000000E+000	0.0000000E+000	0.0000000E+000	36.521	1.35039	53.479	-1.00946e-06	-1.14322e-06	-1.05388e-09	-1.14216e-06	0.19355	32829	30.2636	32798.7
[...]
1.00006	46.9614	3.7398	47.1101	-4.55318	19.577	0.193717	-0.00403301	42554.3	268.172	1	12	0.00493619	0.00010478	0	-1.21555e-06	0.000159492	2.60735e-06	5.00152	0.0248841	0.0247893	-0.00216945	-4.54816	47.1346	46.9862	3.73763	0.0211599	0.00168508	0.0212269	4.55318	268172	3.36749e+06	3.37815e+06	-85.4468	0.0000000E+000	0.0000000E+000	0.0000000E+000	85.4468	0.0000000E+000	0.0000000E+000	0.0000000E+000	-85.4468	0.0000000E+000	0.0000000E+000	0.0000000E+000	-4.55318	0.0000000E+000	0.0000000E+000	0.0000000E+000	4.55318	12.5572	85.4468	-5.67491e-06	-7.81263e-07	-6.43233e-10	-7.8062e-07	0.193557	48032.8	39.5466	47993.2
0.316193	49.2576	4.11459	49.4292	-4.77495	33.919	0.193721	-0.00357799	122332	847.672	1	12	0.00493548	9.98495e-05	0	-1.01288e-05	0.00017859	3.19084e-06	-13.0736	0.0319565	0.0311282	0.00722863	-4.78029	49.4608	49.2887	4.12182	0.0201608	0.00168407	0.020231	4.77495	847672	1.01479e+07	1.01832e+07	-85.2251	0.0000000E+000	0.0000000E+000	0.0000000E+000	85.2251	0.0000000E+000	0.0000000E+000	0.0000000E+000	-85.2251	0.0000000E+000	0.0000000E+000	0.0000000E+000	-4.77495	0.0000000E+000	0.0000000E+000	0.0000000E+000	4.77495	11.9715	85.2251	5.88856e-07	-6.9313e-07	-6.38993e-10	-6.92491e-07	0.193542	54142.3	49.9135	54092.4
0.0999041	51.5811	5.93508	51.9215	-6.56376	79.1266	0.193735	-0.000849021	268417	3507.27	1	12	0.00493752	9.5096e-05	0	-3.53278e-06	0.00027408	1.90999e-06	-39.1558	0.0200849	0.0155745	0.0126823	-6.5757	51.9384	51.5967	5.94776	0.0191336	0.00220157	0.0192599	6.56376	3.50727e+06	3.04813e+07	3.06824e+07	-83.4362	0.0000000E+000	0.0000000E+000	0.0000000E+000	83.4362	0.0000000E+000	0.0000000E+000	0.0000000E+000	-83.4362	0.0000000E+000	0.0000000E+000	0.0000000E+000	-6.56376	0.0000000E+000	0.0000000E+000	0.0000000E+000	6.56376	8.69089	83.4362	-3.04128e-06	-1.64485e-07	-2.327e-10	-1.64252e-07	0.19346	228186	322.819	227863
0.0315922	54.6414	12.1636	55.9789	-12.5499	222.011	0.193723	-0.000519249	414169	19554.9	1	12	0.00493328	8.81276e-05	0	-0.000162785	6.40017e-05	1.34131e-06	-22.7373	0.0152201	0.0140373	0.00588265	-12.5526	55.9939	54.6554	12.1695	0.0174371	0.00388164	0.0178639	12.5499	1.95549e+07	8.78443e+07	8.99945e+07	-77.4501	0.0000000E+000	0.0000000E+000	0.0000000E+000	77.4501	0.0000000E+000	0.0000000E+000	0.0000000E+000	-77.4501	0.0000000E+000	0.0000000E+000	0.0000000E+000	-12.5499	0.0000000E+000	0.0000000E+000	0.0000000E+000	12.5499	4.49219	77.4501	-8.63836e-05	-1.00591e-07	-3.32328e-11	-1.00557e-07	0.193659	373083	123.258	372960
0.0100092	61.9362	29.0842	68.425	-25.154	673.233	0.193722	-0.000494761	546720	98775.5	1	12	0.00493463	7.21174e-05	0	-0.000133674	0.000312276	2.80883e-06	25.3164	0.0389481	0.0352075	-0.0166548	-25.1288	68.4498	61.9714	29.0675	0.0132286	0.00621194	0.0146145	25.154	9.87755e+07	2.10347e+08	2.32385e+08	-64.846	0.0000000E+000	0.0000000E+000	0.0000000E+000	64.846	0.0000000E+000	0.0000000E+000	0.0000000E+000	-64.846	0.0000000E+000	0.0000000E+000	0.0000000E+000	-25.154	0.0000000E+000	0.0000000E+000	0.0000000E+000	25.154	2.12955	64.846	0.000128766	-9.58462e-08	-1.54502e-10	-9.56917e-08	0.19341	391548	631.166	390916