Folder: EIS/txt (part 161)

File: 19119_R311_UC96_SOC50_C01.mpt
EC-Lab ASCII FILE
Nb header lines : 66

Potentio Electrochemical Impedance Spectroscopy

Run on channel : 1 (SN 66354)
Grouped channel(s) : 1, 2, 3, 4
User :
CE vs. WE compliance from -10 V to 10 V
Electrode connection : standard
Potential control : Ewe
Ewe ctrl range : min = -10.00 V, max = 10.00 V
Safety Limits :
	Do not start on E overload
Acquisition started on : 11/11/2025 16:20:14.228
Technique started on : 11/11/2025 16:20:16.462
Loaded Setting File :  C:\Users\Celltest\OneDrive - store-dot.com\Documents\EC-Lab\Data\@Biologic Test Protocols\cathode half cell EIS SOC50.mps
Saved on :
	File : 19119_R311_UC96_SOC50_C01.mpr
	Directory : C:\Users\Celltest\OneDrive - store-dot.com\Documents\EC-Lab\Data\Gyutae\
	Host : 169.254.61.224
Device : VMP-3e (SN .003165)
Address : USB
EC-LAB for windows v11.62 (software)
Internet server v27.00 (firmware)
Command interpretor v12.03 (firmware)
Electrode material :
Initial state :
Electrolyte :
Comments :
Electrode surface area : 0.001 cm²
Characteristic mass : 0.001 g
Equivalent Weight : 0.000 g/eq.
Density : 0.000 g/cm3
Volume (V) : 0.001 cm³
Record Ece
Cycle Definition : Charge/Discharge alternance
Mode                Multi sine
E (V)               0.0000
vs.                 Eoc
tE (h:m:s)          0:00:0.0000
record              0
dI                  0.000
unit dI             mA
dt (s)              0.000
fi                  1.000
unit fi             MHz
ff                  0.100
unit ff             mHz
Nd                  10
Points              per decade
spacing             Logarithmic
Va (mV)             5.0
pw                  0.10
Na                  2
corr                0
E range min (V)     -10.000
E range max (V)     10.000
I Range             Auto
Bandwidth           5
nc cycles           0
goto Ns'            0
nr cycles           0
inc. cycle          0

freq/Hz	Re(Z)/Ohm	-Im(Z)/Ohm	|Z|/Ohm	Phase(Z)/deg	time/s	<Ewe>/V	<I>/mA	Cs/µF	Cp/µF	cycle number	I Range	|Ewe|/V	|I|/A	Ns	(Q-Qo)/mA.h	<Ece>/V	|Ece|/V	Phase(Zce)/deg	|Zce|/Ohm	Re(Zce)/Ohm	-Im(Zce)/Ohm	Phase(Zwe-ce)/deg	|Zwe-ce|/Ohm	Re(Zwe-ce)/Ohm	-Im(Zwe-ce)/Ohm	Re(Y)/Ohm-1	Im(Y)/Ohm-1	|Y|/Ohm-1	Phase(Y)/deg	Re(C)/nF	Im(C)/nF	|C|/nF	Phase(C)/deg	Re(M)	Im(M)	|M|	Phase(M)/deg	Re(Permittivity)	Im(Permittivity)	|Permittivity|	Phase(Permittivity)/deg	Re(Resistivity)/Ohm.cm	Im(Resistivity)/Ohm.cm	|Resistivity|/Ohm.cm	Phase(Resistivity)/deg	Re(Conductivity)/mS/cm	Im(Conductivity)/mS/cm	|Conductivity|/mS/cm	Phase(Conductivity)/deg	Tan(Delta)	Loss Angle(Delta)/deg	dq/mA.h	Pwe/W	Pce/W	Pwe-ce/W	<Ewe-Ece>/V	Rwe/Ohm	Rce/Ohm	Rwe-ce/Ohm		Ewe-Ece/V
1.00002e+06	1.79665	2.84516	3.36495	-57.7285	2.23352	3.9088	0.00349541	0.0559378	0.0399909	1	10	0.000222589	6.61494e-05	0	-8.14554e-06	4.11142e-05	0.000183947	-71.496	2.78079	0.88254	2.63703	-63.9548	6.10184	2.67919	5.48218	0.158674	0.251275	0.297181	57.7285	39.9909	25.2534	47.297	-32.2715	0.0000000E+000	0.0000000E+000	0.0000000E+000	32.2715	0.0000000E+000	0.0000000E+000	0.0000000E+000	-32.2715	0.0000000E+000	0.0000000E+000	0.0000000E+000	-57.7285	0.0000000E+000	0.0000000E+000	0.0000000E+000	57.7285	0.631477	32.2715	-8.14554e-06	1.36629e-05	1.43711e-10	1.36627e-05	3.90876	1.11827e+06	11.7623	1.11826e+06
251206	1.06486	0.286626	1.10276	-15.0652	4.93653	3.90848	0.0164246	2.21042	0.149329	1	9	0.00285762	0.00259134	0	4.61171e-06	-5.42724e-05	6.26119e-05	113.252	0.024162	-0.00953841	-0.0221995	-14.0667	1.08794	1.05532	0.264426	0.875651	0.235697	0.906817	15.0652	149.329	554.78	574.526	-74.9348	0.0000000E+000	0.0000000E+000	0.0000000E+000	74.9348	0.0000000E+000	0.0000000E+000	0.0000000E+000	-74.9348	0.0000000E+000	0.0000000E+000	0.0000000E+000	-15.0652	0.0000000E+000	0.0000000E+000	0.0000000E+000	15.0652	3.71515	74.9348	3.85358e-06	6.41952e-05	-8.91402e-10	6.41961e-05	3.90853	237965	3.30433	237968
63093.8	1.51893	0.623764	1.64202	-22.326	7.11253	3.90843	0.0312891	4.04402	0.583574	1	9	0.00540216	0.00328994	0	-2.64545e-05	-0.000130582	2.56174e-05	72.9447	0.00778657	0.00228376	-0.00744413	-22.0553	1.64132	1.52122	0.61632	0.563353	0.231346	0.609006	22.326	583.574	1421.06	1536.22	-67.674	0.0000000E+000	0.0000000E+000	0.0000000E+000	67.674	0.0000000E+000	0.0000000E+000	0.0000000E+000	-67.674	0.0000000E+000	0.0000000E+000	0.0000000E+000	-22.326	0.0000000E+000	0.0000000E+000	0.0000000E+000	22.326	2.43511	67.674	-5.85377e-07	0.000122291	-4.08578e-09	0.000122295	3.90856	124914	4.17339	124918
15847.7	2.17805	0.891422	2.35341	-22.2581	9.28656	3.90843	0.0333753	11.266	1.61638	1	9	0.00490589	0.00208459	0	-3.67685e-06	0.000250965	1.15362e-05	-43.5314	0.00553403	0.00401216	0.00381158	-22.3069	2.35857	2.18206	0.895234	0.393254	0.160949	0.424916	22.2581	1616.38	3949.37	4267.34	-67.7419	0.0000000E+000	0.0000000E+000	0.0000000E+000	67.7419	0.0000000E+000	0.0000000E+000	0.0000000E+000	-67.7419	0.0000000E+000	0.0000000E+000	0.0000000E+000	-22.2581	0.0000000E+000	0.0000000E+000	0.0000000E+000	22.2581	2.44334	67.7419	3.83355e-06	0.000130445	8.37602e-09	0.000130437	3.90818	117106	7.51947	117098
3983.6	2.96508	1.35113	3.25841	-24.4978	11.0121	3.9082	-0.0493666	29.5698	5.08427	1	9	0.0045671	0.00140163	0	3.72963e-06	0.000289119	8.41187e-06	32.7048	0.00600148	0.00505004	-0.00324266	-24.4091	3.26167	2.97013	1.34788	0.27927	0.127258	0.306898	24.4978	5084.27	11157.6	12261.4	-65.5022	0.0000000E+000	0.0000000E+000	0.0000000E+000	65.5022	0.0000000E+000	0.0000000E+000	0.0000000E+000	-65.5022	0.0000000E+000	0.0000000E+000	0.0000000E+000	-24.4978	0.0000000E+000	0.0000000E+000	0.0000000E+000	24.4978	2.19453	65.5022	-4.62662e-06	-0.000192935	-1.42728e-08	-0.00019292	3.90791	79166.9	5.85657	79161.1
1000.32	4.37437	2.32869	4.9556	-28.0285	13.8858	3.90832	-0.0294395	68.3234	15.0869	1	10	0.00453305	0.000914734	0	-9.14253e-06	-0.000111504	8.41384e-06	10.9347	0.00919813	0.00903113	-0.0017448	-27.9617	4.96275	4.3834	2.32695	0.178125	0.0948243	0.201792	28.0285	15086.9	28340.3	32105.9	-61.9715	0.0000000E+000	0.0000000E+000	0.0000000E+000	61.9715	0.0000000E+000	0.0000000E+000	0.0000000E+000	-61.9715	0.0000000E+000	0.0000000E+000	0.0000000E+000	-28.0285	0.0000000E+000	0.0000000E+000	0.0000000E+000	28.0285	1.87847	61.9715	-2.93578e-06	-0.000115059	3.28263e-09	-0.000115062	3.90843	132758	3.78757	132761
251.044	7.30047	3.65693	8.16517	-26.6071	16.802	3.90833	-0.0285041	173.362	34.7741	1	10	0.00494904	0.000606116	0	-3.03436e-05	-0.000130582	9.93373e-06	27.2335	0.0163892	0.0145724	-0.00749996	-26.5143	8.17485	7.31504	3.64943	0.109502	0.0548512	0.122471	26.6071	34774.1	69420.9	77643.4	-63.3929	0.0000000E+000	0.0000000E+000	0.0000000E+000	63.3929	0.0000000E+000	0.0000000E+000	0.0000000E+000	-63.3929	0.0000000E+000	0.0000000E+000	0.0000000E+000	-26.6071	0.0000000E+000	0.0000000E+000	0.0000000E+000	26.6071	1.99634	63.3929	-3.16814e-06	-0.000111403	3.72211e-09	-0.000111407	3.90846	137115	4.58116	137119
[...]
0.0602816	15.6936	2.95374	15.9692	-10.6591	240.153	3.90835	-0.0111532	893847	30580.4	1	11	0.00502631	0.000314751	0	-0.00215398	0.000250965	1.72581e-07	-34.3905	0.000548308	0.000452467	0.000309701	-10.6599	15.9697	15.6941	2.95405	0.0615402	0.0115827	0.0626207	10.6591	3.05804e+07	1.62478e+08	1.65331e+08	-79.3409	0.0000000E+000	0.0000000E+000	0.0000000E+000	79.3409	0.0000000E+000	0.0000000E+000	0.0000000E+000	-79.3409	0.0000000E+000	0.0000000E+000	0.0000000E+000	-10.6591	0.0000000E+000	0.0000000E+000	0.0000000E+000	10.6591	5.31314	79.3409	0.000000000000000E+000	-4.35905e-05	-2.79905e-09	-4.35877e-05	3.9081	350425	22.5016	350403
0.00796479	22.0583	6.20189	22.9136	-15.7038	20329	3.9084	0.00137765	3.22197e+06	236038	1	11	0.00502037	0.0002191	0	-0.0104971	-5.42724e-05	4.57611e-07	-18.665	0.0020886	0.00197875	0.000668424	-15.704	22.9157	22.0603	6.20256	0.0420132	0.0118124	0.0436422	15.7038	2.36038e+08	8.39521e+08	8.72072e+08	-74.2962	0.0000000E+000	0.0000000E+000	0.0000000E+000	74.2962	0.0000000E+000	0.0000000E+000	0.0000000E+000	-74.2962	0.0000000E+000	0.0000000E+000	0.0000000E+000	-15.7038	0.0000000E+000	0.0000000E+000	0.0000000E+000	15.7038	3.55671	74.2962	-0.00834315	5.3844e-06	-7.47683e-11	5.38448e-06	3.90845	2.837e+06	39.3949	2.83704e+06
0.0019912	26.9105	8.70492	28.2834	-17.9252	20329	3.9084	0.00137765	9.18208e+06	869775	1	11	0.00503412	0.000177988	0	-0.0104971	-5.42724e-05	7.38693e-07	-7.32979	0.00415024	0.00411632	0.000529488	-17.9236	28.2875	26.9146	8.70545	0.0336402	0.0108818	0.0353564	17.9252	8.69775e+08	2.68884e+09	2.82601e+09	-72.0748	0.0000000E+000	0.0000000E+000	0.0000000E+000	72.0748	0.0000000E+000	0.0000000E+000	0.0000000E+000	-72.0748	0.0000000E+000	0.0000000E+000	0.0000000E+000	-17.9252	0.0000000E+000	0.0000000E+000	0.0000000E+000	17.9252	3.09142	72.0748	0.000000000000000E+000	5.3844e-06	-7.47683e-11	5.38448e-06	3.90845	2.837e+06	39.3949	2.83704e+06
0.000497799	28.8794	21.5418	36.0287	-36.7201	20329	3.9084	0.00137765	1.48417e+07	5.3058e+06	1	11	0.00503608	0.00013978	0	-0.0104971	-5.42724e-05	6.59809e-07	8.88409	0.00472035	0.00466372	-0.000728993	-36.7148	36.032	28.884	21.5411	0.022248	0.0165953	0.0277556	36.7201	5.3058e+09	7.11305e+09	8.87395e+09	-53.2799	0.0000000E+000	0.0000000E+000	0.0000000E+000	53.2799	0.0000000E+000	0.0000000E+000	0.0000000E+000	-53.2799	0.0000000E+000	0.0000000E+000	0.0000000E+000	-36.7201	0.0000000E+000	0.0000000E+000	0.0000000E+000	36.7201	1.34062	53.2798	0.000000000000000E+000	5.3844e-06	-7.47683e-11	5.38448e-06	3.90845	2.837e+06	39.3949	2.83704e+06
9.95598e-05	38.1965	116.445	122.55	-71.8394	20329.1	3.9084	0.00137765	1.37282e+07	1.23946e+07	1	11	0.00503263	4.1066e-05	0	-0.0104971	-5.42724e-05	2.1934e-06	-45.0674	0.0534115	0.0377232	0.0378121	-71.8282	122.597	38.2342	116.483	0.00254331	0.00775347	0.00815995	71.8394	1.23946e+10	4.06569e+09	1.30444e+10	-18.1606	0.0000000E+000	0.0000000E+000	0.0000000E+000	18.1606	0.0000000E+000	0.0000000E+000	0.0000000E+000	-18.1606	0.0000000E+000	0.0000000E+000	0.0000000E+000	-71.8394	0.0000000E+000	0.0000000E+000	0.0000000E+000	71.8394	0.328022	18.1606	0.000000000000000E+000	5.3844e-06	-7.47683e-11	5.38448e-06	3.90845	2.837e+06	39.3949	2.83704e+06

File: 19120_R311_UC96_SOC50_C02.mpt
EC-Lab ASCII FILE
Nb header lines : 65

Potentio Electrochemical Impedance Spectroscopy

Run on channel : 2 (SN 66139)
Grouped channel(s) : 1, 2, 3, 4
User :
CE vs. WE compliance from -10 V to 10 V
Electrode connection : standard
Potential control : Ewe
Ewe ctrl range : min = -10.00 V, max = 10.00 V
Safety Limits :
	Do not start on E overload
Acquisition started on : 11/11/2025 16:20:14.228
Loaded Setting File :  C:\Users\Celltest\OneDrive - store-dot.com\Documents\EC-Lab\Data\@Biologic Test Protocols\cathode half cell EIS SOC50.mps
Saved on :
	File : 19119_R311_UC96_SOC50_C02.mpr
	Directory : C:\Users\Celltest\OneDrive - store-dot.com\Documents\EC-Lab\Data\Gyutae\
	Host : 169.254.61.224
Device : VMP-3e (SN .003165)
Address : USB
EC-LAB for windows v11.62 (software)
Internet server v27.00 (firmware)
Command interpretor v12.03 (firmware)
Electrode material :
Initial state :
Electrolyte :
Comments :
Electrode surface area : 0.001 cm²
Characteristic mass : 0.001 g
Equivalent Weight : 0.000 g/eq.
Density : 0.000 g/cm3
Volume (V) : 0.001 cm³
Record Ece
Cycle Definition : Charge/Discharge alternance
Mode                Multi sine
E (V)               0.0000
vs.                 Eoc
tE (h:m:s)          0:00:0.0000
record              0
dI                  0.000
unit dI             mA
dt (s)              0.000
fi                  1.000
unit fi             MHz
ff                  0.100
unit ff             mHz
Nd                  10
Points              per decade
spacing             Logarithmic
Va (mV)             5.0
pw                  0.10
Na                  2
corr                0
E range min (V)     -10.000
E range max (V)     10.000
I Range             Auto
Bandwidth           5
nc cycles           0
goto Ns'            0
nr cycles           0
inc. cycle          0

freq/Hz	Re(Z)/Ohm	-Im(Z)/Ohm	|Z|/Ohm	Phase(Z)/deg	time/s	<Ewe>/V	<I>/mA	Cs/µF	Cp/µF	cycle number	I Range	|Ewe|/V	|I|/A	Ns	(Q-Qo)/mA.h	<Ece>/V	|Ece|/V	Phase(Zce)/deg	|Zce|/Ohm	Re(Zce)/Ohm	-Im(Zce)/Ohm	Phase(Zwe-ce)/deg	|Zwe-ce|/Ohm	Re(Zwe-ce)/Ohm	-Im(Zwe-ce)/Ohm	Re(Y)/Ohm-1	Im(Y)/Ohm-1	|Y|/Ohm-1	Phase(Y)/deg	Re(C)/nF	Im(C)/nF	|C|/nF	Phase(C)/deg	Re(M)	Im(M)	|M|	Phase(M)/deg	Re(Permittivity)	Im(Permittivity)	|Permittivity|	Phase(Permittivity)/deg	Re(Resistivity)/Ohm.cm	Im(Resistivity)/Ohm.cm	|Resistivity|/Ohm.cm	Phase(Resistivity)/deg	Re(Conductivity)/mS/cm	Im(Conductivity)/mS/cm	|Conductivity|/mS/cm	Phase(Conductivity)/deg	Tan(Delta)	Loss Angle(Delta)/deg	dq/mA.h	Pwe/W	Pce/W	Pwe-ce/W	<Ewe-Ece>/V	Rwe/Ohm	Rce/Ohm	Rwe-ce/Ohm		Ewe-Ece/V
1.00002e+06	0.999984	-0.381015	1.07011	20.8579	2.69452	3.91065	-0.0647312	-0.417705	-0.0529535	1	9	0.000219524	0.000205141	0	-3.41361e-05	-0.000283825	0.000176301	3.14516	0.859416	0.858121	-0.0471525	12.9763	1.9068	1.85811	-0.428167	0.873241	-0.332723	0.934481	-20.8579	-52.9536	138.978	148.725	-110.858	0.0000000E+000	0.0000000E+000	0.0000000E+000	110.858	0.0000000E+000	0.0000000E+000	0.0000000E+000	-110.858	0.0000000E+000	0.0000000E+000	0.0000000E+000	20.8579	0.0000000E+000	0.0000000E+000	0.0000000E+000	-20.8579	2.62453	69.1421	-3.41361e-05	-0.000253141	1.83723e-08	-0.00025316	3.91094	60413.8	4.38467	60418.2
251206	1.22179	0.265188	1.25023	-12.2461	4.99654	3.91066	-0.0586973	2.38911	0.107488	1	9	0.00323666	0.00258884	0	-6.3805e-05	0.000403446	2.29707e-05	105.936	0.00887296	-0.00243624	-0.00853195	-11.8864	1.24607	1.21935	0.256656	0.781651	0.169657	0.799851	12.2461	107.488	495.225	506.756	-77.7539	0.0000000E+000	0.0000000E+000	0.0000000E+000	77.7539	0.0000000E+000	0.0000000E+000	0.0000000E+000	-77.7539	0.0000000E+000	0.0000000E+000	0.0000000E+000	-12.2461	0.0000000E+000	0.0000000E+000	0.0000000E+000	12.2461	4.60725	77.7539	-1.60813e-06	-0.000229545	-2.36812e-08	-0.000229521	3.91026	66624.3	6.87333	66617.4
63093.8	1.64699	0.643078	1.76808	-21.3285	7.29654	3.91056	-0.0329231	3.92256	0.518911	1	9	0.00547331	0.00309562	0	-0.000110278	0.000174356	1.87298e-05	68.9967	0.00605043	0.0021686	-0.00564844	-21.1325	1.76806	1.64915	0.63743	0.526848	0.205712	0.565585	21.3285	518.911	1328.98	1426.69	-68.6715	0.0000000E+000	0.0000000E+000	0.0000000E+000	68.6715	0.0000000E+000	0.0000000E+000	0.0000000E+000	-68.6715	0.0000000E+000	0.0000000E+000	0.0000000E+000	-21.3285	0.0000000E+000	0.0000000E+000	0.0000000E+000	21.3285	2.5611	68.6715	-1.84268e-06	-0.000128748	-5.74032e-09	-0.000128742	3.91038	118779	5.29585	118773
15847.7	2.33792	1.00664	2.54543	-23.2953	9.59656	3.91056	-0.0310236	9.97651	1.5603	1	9	0.00489497	0.00192304	0	-0.000135625	-3.56437e-05	1.00498e-05	-56.6146	0.00522599	0.00287569	0.00436364	-23.3599	2.5498	2.3408	1.01101	0.360834	0.155365	0.392861	23.2953	1560.3	3623.78	3945.42	-66.7047	0.0000000E+000	0.0000000E+000	0.0000000E+000	66.7047	0.0000000E+000	0.0000000E+000	0.0000000E+000	-66.7047	0.0000000E+000	0.0000000E+000	0.0000000E+000	-23.2953	0.0000000E+000	0.0000000E+000	0.0000000E+000	23.2953	2.32249	66.7047	-2.02512e-06	-0.00012132	1.10579e-09	-0.000121321	3.91059	126051	1.14892	126052
3983.6	3.25015	1.5531	3.60217	-25.541	11.3251	3.91029	-0.14779	25.7244	4.78207	1	9	0.00464389	0.00128919	0	-0.000156946	-0.000245643	1.46482e-05	-116.622	0.0113623	-0.00509141	0.0101577	-25.7217	3.60197	3.24506	1.56326	0.250482	0.119694	0.277611	25.541	4782.07	10007.4	11091.3	-64.459	0.0000000E+000	0.0000000E+000	0.0000000E+000	64.459	0.0000000E+000	0.0000000E+000	0.0000000E+000	-64.459	0.0000000E+000	0.0000000E+000	0.0000000E+000	-25.541	0.0000000E+000	0.0000000E+000	0.0000000E+000	25.541	2.09269	64.459	-9.83295e-06	-0.000577899	3.63035e-08	-0.000577935	3.91053	26458.5	1.66211	26460.1
1000.32	4.91738	2.58212	5.55409	-27.704	14.1628	3.91047	-0.0473026	61.6176	13.3178	1	10	0.00461692	0.000831265	0	-0.000194049	2.16289e-05	8.27382e-06	44.1802	0.00995328	0.00713801	-0.00693662	-27.6065	5.5572	4.92452	2.57518	0.159407	0.0837047	0.180047	27.704	13317.8	25362.3	28646.3	-62.296	0.0000000E+000	0.0000000E+000	0.0000000E+000	62.296	0.0000000E+000	0.0000000E+000	0.0000000E+000	-62.296	0.0000000E+000	0.0000000E+000	0.0000000E+000	-27.704	0.0000000E+000	0.0000000E+000	0.0000000E+000	27.704	1.9044	62.296	-6.35379e-06	-0.000184975	-1.0231e-09	-0.000184974	3.91045	82669.4	0.457245	82668.9
251.044	8.09378	3.79186	8.93797	-25.1026	16.8641	3.91047	-0.0469561	167.193	30.0915	1	10	0.00456217	0.000510426	0	-0.000227276	0.000155265	4.61142e-06	102.327	0.00903445	-0.00192872	-0.00882617	-25.0566	8.93249	8.09185	3.78303	0.101315	0.047465	0.111882	25.1026	30091.5	64230.7	70930.1	-64.8974	0.0000000E+000	0.0000000E+000	0.0000000E+000	64.8974	0.0000000E+000	0.0000000E+000	0.0000000E+000	-64.8974	0.0000000E+000	0.0000000E+000	0.0000000E+000	-25.1026	0.0000000E+000	0.0000000E+000	0.0000000E+000	25.1026	2.13452	64.8974	-6.01816e-06	-0.000183621	-7.29063e-09	-0.000183613	3.91031	83279.2	3.30659	83275.9
[...]
0.0602816	16.4802	2.88608	16.731	-9.93311	240.259	3.9105	-0.0215814	914802	27220.6	1	11	0.00499978	0.000298833	0	-0.0030853	-9.29162e-05	2.63694e-07	94.8621	0.000882414	-7.47912e-05	-0.000879239	-9.93019	16.7308	16.4802	2.8852	0.0588732	0.0103101	0.0597691	9.93311	2.72206e+07	1.55436e+08	1.57802e+08	-80.0669	0.0000000E+000	0.0000000E+000	0.0000000E+000	80.0669	0.0000000E+000	0.0000000E+000	0.0000000E+000	-80.0669	0.0000000E+000	0.0000000E+000	0.0000000E+000	-9.93311	0.0000000E+000	0.0000000E+000	0.0000000E+000	9.93311	5.71026	80.0669	0.000000000000000E+000	-8.4394e-05	2.00526e-09	-8.4396e-05	3.91059	181198	4.30539	181202
0.00796479	23.1509	7.42651	24.3129	-17.7855	20329.2	3.91053	-0.000228869	2.69068e+06	251047	1	11	0.00499394	0.000205403	0	-0.0185417	0.000174356	1.31237e-07	-102.169	0.000638926	-0.000134687	0.000624568	-17.787	24.313	23.1508	7.42713	0.0391646	0.0125635	0.0411304	17.7855	2.51047e+08	7.826e+08	8.2188e+08	-72.2145	0.0000000E+000	0.0000000E+000	0.0000000E+000	72.2145	0.0000000E+000	0.0000000E+000	0.0000000E+000	-72.2145	0.0000000E+000	0.0000000E+000	0.0000000E+000	-17.7855	0.0000000E+000	0.0000000E+000	0.0000000E+000	17.7855	3.11734	72.2145	-0.0154564	-8.94998e-07	-3.99045e-11	-8.94958e-07	3.91036	1.70864e+07	761.816	1.70856e+07
0.0019912	30.0627	10.6739	31.9014	-19.5477	20329.2	3.91053	-0.000228869	7.48829e+06	838322	1	11	0.00500749	0.000156968	0	-0.0185417	0.000174356	4.76614e-07	47.432	0.00303638	0.002054	-0.00223622	-19.5426	31.9026	30.0647	10.6717	0.0295399	0.0104883	0.0313466	19.5477	8.38322e+08	2.3611e+09	2.50551e+09	-70.4523	0.0000000E+000	0.0000000E+000	0.0000000E+000	70.4523	0.0000000E+000	0.0000000E+000	0.0000000E+000	-70.4523	0.0000000E+000	0.0000000E+000	0.0000000E+000	-19.5477	0.0000000E+000	0.0000000E+000	0.0000000E+000	19.5477	2.81647	70.4523	0.000000000000000E+000	-8.94998e-07	-3.99045e-11	-8.94958e-07	3.91036	1.70864e+07	761.816	1.70856e+07
0.000497799	33.2841	22.0399	39.9198	-33.5115	20329.2	3.91053	-0.000228869	1.45063e+07	4.4218e+06	1	11	0.00501045	0.000125513	0	-0.0185417	0.000174356	1.349e-06	28.0838	0.0107479	0.00948246	-0.00505971	-33.498	39.9249	33.2936	22.0349	0.0208862	0.0138304	0.0250502	33.5115	4.4218e+09	6.67769e+09	8.00899e+09	-56.4885	0.0000000E+000	0.0000000E+000	0.0000000E+000	56.4885	0.0000000E+000	0.0000000E+000	0.0000000E+000	-56.4885	0.0000000E+000	0.0000000E+000	0.0000000E+000	-33.5115	0.0000000E+000	0.0000000E+000	0.0000000E+000	33.5115	1.51017	56.4885	0.000000000000000E+000	-8.94998e-07	-3.99045e-11	-8.94958e-07	3.91036	1.70864e+07	761.816	1.70856e+07
9.95598e-05	45.3394	111.508	120.373	-67.8732	20329.2	3.91053	-0.000228869	1.43361e+07	1.23022e+07	1	11	0.00501625	4.16725e-05	0	-0.0185417	0.000174356	3.1227e-06	-19.3724	0.0749343	0.0706917	0.0248562	-67.8465	120.423	45.4101	111.533	0.00312908	0.00769568	0.00830751	67.8732	1.23022e+10	5.0021e+09	1.32803e+10	-22.1268	0.0000000E+000	0.0000000E+000	0.0000000E+000	22.1268	0.0000000E+000	0.0000000E+000	0.0000000E+000	-22.1268	0.0000000E+000	0.0000000E+000	0.0000000E+000	-67.8732	0.0000000E+000	0.0000000E+000	0.0000000E+000	67.8732	0.406602	22.1268	0.000000000000000E+000	-8.94998e-07	-3.99045e-11	-8.94958e-07	3.91036	1.70864e+07	761.816	1.70856e+07