Folder: EIS/txt (part 195)

File: 19509_R316_UA717_SOC00_C03.mpt
EC-Lab ASCII FILE
Nb header lines : 65

Potentio Electrochemical Impedance Spectroscopy

Run on channel : 3 (SN 65921)
User :
CE vs. WE compliance from -10 V to 10 V
Electrode connection : standard
Potential control : Ewe
Ewe ctrl range : min = -10.00 V, max = 10.00 V
Safety Limits :
	Do not start on E overload
Acquisition started on : 12/04/2025 15:42:34.892
Technique started on : 12/04/2025 15:42:36.946
Loaded Setting File :  C:\Users\Celltest\OneDrive - store-dot.com\Documents\EC-Lab\Data\@Biologic Test Protocols\anode half cell EIS SOC00.mps
Saved on :
	File : 19509_R316_UA717_SOC00_C03.mpr
	Directory : C:\Users\Celltest\OneDrive - store-dot.com\Documents\EC-Lab\Data\Charmaine\
	Host : 169.254.61.224
Device : VMP-3e (SN .003165)
Address : USB
EC-LAB for windows v11.62 (software)
Internet server v27.00 (firmware)
Command interpretor v12.03 (firmware)
Electrode material :
Initial state :
Electrolyte :
Comments :
Electrode surface area : 0.001 cm²
Characteristic mass : 0.001 g
Equivalent Weight : 0.000 g/eq.
Density : 0.000 g/cm3
Volume (V) : 0.001 cm³
Record Ece
Cycle Definition : Charge/Discharge alternance
Mode                Single sine
E (V)               0.0000
vs.                 Eoc
tE (h:m:s)          0:00:0.0000
record              0
dI                  0.000
unit dI             mA
dt (s)              0.000
fi                  100.000
unit fi             kHz
ff                  10.000
unit ff             mHz
Nd                  6
Points              per decade
spacing             Logarithmic
Va (mV)             5.0
pw                  0.10
Na                  2
corr                0
E range min (V)     -10.000
E range max (V)     10.000
I Range             Auto
Bandwidth           5
nc cycles           0
goto Ns'            0
nr cycles           0
inc. cycle          0

freq/Hz	Re(Z)/Ohm	-Im(Z)/Ohm	|Z|/Ohm	Phase(Z)/deg	time/s	<Ewe>/V	<I>/mA	Cs/µF	Cp/µF	cycle number	I Range	|Ewe|/V	|I|/A	Ns	(Q-Qo)/mA.h	<Ece>/V	|Ece|/V	Phase(Zce)/deg	|Zce|/Ohm	Re(Zce)/Ohm	-Im(Zce)/Ohm	Phase(Zwe-ce)/deg	|Zwe-ce|/Ohm	Re(Zwe-ce)/Ohm	-Im(Zwe-ce)/Ohm	Re(Y)/Ohm-1	Im(Y)/Ohm-1	|Y|/Ohm-1	Phase(Y)/deg	Re(C)/nF	Im(C)/nF	|C|/nF	Phase(C)/deg	Re(M)	Im(M)	|M|	Phase(M)/deg	Re(Permittivity)	Im(Permittivity)	|Permittivity|	Phase(Permittivity)/deg	Re(Resistivity)/Ohm.cm	Im(Resistivity)/Ohm.cm	|Resistivity|/Ohm.cm	Phase(Resistivity)/deg	Re(Conductivity)/mS/cm	Im(Conductivity)/mS/cm	|Conductivity|/mS/cm	Phase(Conductivity)/deg	Tan(Delta)	Loss Angle(Delta)/deg	dq/mA.h	Pwe/W	Pce/W	Pwe-ce/W	<Ewe-Ece>/V	Rwe/Ohm	Rce/Ohm	Rwe-ce/Ohm		Ewe-Ece/V
100004	1.28378	0.460789	1.36397	-19.7447	2.05355	0.278031	0.0318796	3.45384	0.394183	1	9	0.00495556	0.0036332	0	-4.35347e-06	-0.000169541	3.5242e-05	87.8813	0.0097	0.0003586	-0.00969337	-19.3555	1.36106	1.28413	0.451095	0.690051	0.247682	0.733156	19.7447	394.183	1098.21	1166.81	-70.2553	0.0000000E+000	0.0000000E+000	0.0000000E+000	70.2553	0.0000000E+000	0.0000000E+000	0.0000000E+000	-70.2553	0.0000000E+000	0.0000000E+000	0.0000000E+000	-19.7447	0.0000000E+000	0.0000000E+000	0.0000000E+000	19.7447	2.78604	70.2553	-4.35347e-06	8.86351e-06	-5.4049e-09	8.86892e-06	0.2782	8721.27	5.31817	8726.59
31621.1	1.68012	0.682066	1.81329	-22.0953	3.57655	0.278033	0.0238615	7.37932	1.04408	1	9	0.00517982	0.00285659	0	1.54732e-05	-3.58827e-05	1.27451e-05	31.2343	0.00446166	0.00381496	-0.00231354	-21.9824	1.81596	1.68394	0.679752	0.510983	0.20744	0.551484	22.0953	1044.08	2571.87	2775.72	-67.9047	0.0000000E+000	0.0000000E+000	0.0000000E+000	67.9047	0.0000000E+000	0.0000000E+000	0.0000000E+000	-67.9047	0.0000000E+000	0.0000000E+000	0.0000000E+000	-22.0953	0.0000000E+000	0.0000000E+000	0.0000000E+000	22.0953	2.46328	67.9047	9.14973e-07	6.63428e-06	-8.56214e-10	6.63514e-06	0.278069	11652	1.50379	11653.5
10002.2	2.21846	0.95373	2.41478	-23.2632	4.60155	0.278021	0.0209899	16.6839	2.60251	1	9	0.00503377	0.00208456	0	1.43339e-05	-0.000188635	7.00844e-06	13.3758	0.00336206	0.00327087	-0.000777767	-23.2156	2.41748	2.22173	0.952952	0.380448	0.163557	0.414116	23.2632	2602.51	6053.68	6589.39	-66.7368	0.0000000E+000	0.0000000E+000	0.0000000E+000	66.7368	0.0000000E+000	0.0000000E+000	0.0000000E+000	-66.7368	0.0000000E+000	0.0000000E+000	0.0000000E+000	-23.2632	0.0000000E+000	0.0000000E+000	0.0000000E+000	23.2632	2.32609	66.7368	3.21564e-06	5.83562e-06	-3.95943e-09	5.83958e-06	0.27821	13245.5	8.98697	13254.5
3163.08	2.95808	1.4013	3.2732	-25.3478	5.49861	0.277828	-0.0135813	35.9071	6.58104	1	9	0.00463575	0.00141627	0	1.66466e-05	2.13995e-05	1.1345e-05	148.321	0.00801047	-0.00681696	-0.00420673	-25.3323	3.26524	2.95126	1.39709	0.276098	0.130793	0.305511	25.3478	6581.04	13892.3	15372.2	-64.6522	0.0000000E+000	0.0000000E+000	0.0000000E+000	64.6522	0.0000000E+000	0.0000000E+000	0.0000000E+000	-64.6522	0.0000000E+000	0.0000000E+000	0.0000000E+000	-25.3478	0.0000000E+000	0.0000000E+000	0.0000000E+000	25.3478	2.11096	64.6522	-4.11747e-07	-3.77326e-06	-2.90634e-10	-3.77297e-06	0.277806	20456.6	1.57566	20455.1
1000.32	3.83518	2.27425	4.45879	-30.6679	7.09781	0.277964	-0.0134507	69.9588	18.2006	1	10	0.00460837	0.00103355	0	1.56464e-05	-0.0003032	7.93145e-06	-5.59175	0.007674	0.00763749	0.000747751	-30.6261	4.46574	3.84281	2.275	0.192909	0.114394	0.224276	30.6679	18200.6	30692.5	35683.2	-59.3321	0.0000000E+000	0.0000000E+000	0.0000000E+000	59.3321	0.0000000E+000	0.0000000E+000	0.0000000E+000	-59.3321	0.0000000E+000	0.0000000E+000	0.0000000E+000	-30.6679	0.0000000E+000	0.0000000E+000	0.0000000E+000	30.6679	1.68635	59.3321	-2.41546e-06	-3.73881e-06	4.07825e-09	-3.74289e-06	0.278267	20665.4	22.5416	20687.9
316.316	5.24676	4.60321	6.97983	-41.2619	8.44701	0.277951	-0.0136372	109.305	47.5412	1	10	0.00452444	0.000648216	0	1.0902e-05	-0.000188635	1.55829e-05	-67.4161	0.0240396	0.00923209	0.0221962	-41.3486	7.00142	5.25599	4.62541	0.107696	0.0944869	0.14327	41.2619	47541.2	54187.7	72086.6	-48.7381	0.0000000E+000	0.0000000E+000	0.0000000E+000	48.7381	0.0000000E+000	0.0000000E+000	0.0000000E+000	-48.7381	0.0000000E+000	0.0000000E+000	0.0000000E+000	-41.2619	0.0000000E+000	0.0000000E+000	0.0000000E+000	41.2619	1.1398	48.7381	-2.01663e-06	-3.79046e-06	2.57245e-09	-3.79303e-06	0.27814	20381.9	13.8324	20395.7
100.032	9.38959	9.9491	13.6802	-46.6572	10.0078	0.277945	-0.0145358	159.918	84.5819	1	10	0.00486159	0.000355373	0	5.29985e-06	-7.40708e-05	8.00949e-06	119.689	0.0225382	-0.0111631	-0.0195795	-46.6349	13.6583	9.37843	9.92952	0.0501718	0.0531614	0.0730981	46.6572	84581.9	79825.3	116302	-43.3428	0.0000000E+000	0.0000000E+000	0.0000000E+000	43.3428	0.0000000E+000	0.0000000E+000	0.0000000E+000	-43.3428	0.0000000E+000	0.0000000E+000	0.0000000E+000	-46.6572	0.0000000E+000	0.0000000E+000	0.0000000E+000	46.6572	0.943763	43.3428	-2.58559e-06	-4.04016e-06	1.07668e-09	-4.04124e-06	0.278019	19121.4	5.09574	19126.5
[...]
1.00006	43.5799	4.74495	43.8375	-6.21384	19.7466	0.277988	-0.00535063	33539.8	392.946	1	12	0.0048599	0.000110862	0	-9.34979e-06	0.000193246	2.33958e-06	34.394	0.0211036	0.0174141	-0.011921	-6.1959	43.8535	43.5973	4.73303	0.0226775	0.00246911	0.0228115	6.21384	392946	3.60901e+06	3.63034e+06	-83.7862	0.0000000E+000	0.0000000E+000	0.0000000E+000	83.7862	0.0000000E+000	0.0000000E+000	0.0000000E+000	-83.7862	0.0000000E+000	0.0000000E+000	0.0000000E+000	-6.21384	0.0000000E+000	0.0000000E+000	0.0000000E+000	6.21384	9.18449	83.7862	4.40563e-07	-1.48741e-06	-1.03399e-09	-1.48638e-06	0.277795	51954.3	36.1165	51918.2
0.316193	45.9005	4.07608	46.0812	-5.07469	34.0889	0.277984	-0.00381166	123488	966.192	1	12	0.00485791	0.000105421	0	-2.9877e-05	2.30547e-06	2.18077e-06	49.2398	0.0206864	0.013506	-0.0156689	-5.05381	46.0932	45.914	4.06041	0.0216158	0.00191953	0.0217008	5.07469	966192	1.08802e+07	1.09231e+07	-84.9253	0.0000000E+000	0.0000000E+000	0.0000000E+000	84.9253	0.0000000E+000	0.0000000E+000	0.0000000E+000	-84.9253	0.0000000E+000	0.0000000E+000	0.0000000E+000	-5.07469	0.0000000E+000	0.0000000E+000	0.0000000E+000	5.07469	11.261	84.9253	-1.37951e-05	-1.05958e-06	-8.78767e-12	-1.05957e-06	0.277982	72929.9	0.604847	72929.3
0.0999041	48.3488	5.36577	48.6456	-6.3328	79.2977	0.277989	-0.00308657	296896	3612.29	1	12	0.00485833	9.9872e-05	0	-0.000109382	-0.000112259	2.0681e-06	22.202	0.0207075	0.0191722	-0.00782481	-6.32116	48.6638	48.3679	5.35795	0.0204314	0.00226749	0.0205568	6.3328	3.61228e+06	3.25488e+07	3.27486e+07	-83.6672	0.0000000E+000	0.0000000E+000	0.0000000E+000	83.6672	0.0000000E+000	0.0000000E+000	0.0000000E+000	-83.6672	0.0000000E+000	0.0000000E+000	0.0000000E+000	-6.3328	0.0000000E+000	0.0000000E+000	0.0000000E+000	6.3328	9.01058	83.6672	-2.72277e-05	-8.58034e-07	3.46495e-10	-8.5838e-07	0.278102	90064.2	36.3701	90100.6
0.0315922	51.7813	9.49897	52.6454	-10.395	222.181	0.277995	-0.00133863	530351	17266.2	1	12	0.00485942	9.23049e-05	0	-5.20288e-05	-3.58827e-05	3.31389e-06	-8.43105	0.0359015	0.0355136	0.00526385	-10.3937	52.6813	51.8168	9.50424	0.0186833	0.00342733	0.018995	10.395	1.72662e+07	9.41224e+07	9.5693e+07	-79.605	0.0000000E+000	0.0000000E+000	0.0000000E+000	79.605	0.0000000E+000	0.0000000E+000	0.0000000E+000	-79.605	0.0000000E+000	0.0000000E+000	0.0000000E+000	-10.395	0.0000000E+000	0.0000000E+000	0.0000000E+000	10.395	5.45125	79.605	5.45789e-05	-3.72133e-07	4.80336e-11	-3.72181e-07	0.278031	207671	26.8055	207698
0.0100092	57.8644	19.4537	61.047	-18.5823	673.4	0.277987	0.00046779	817374	83003.2	1	12	0.00485949	7.96025e-05	0	-3.95433e-05	0.000231434	1.90078e-06	26.4198	0.0238784	0.0213845	-0.0106246	-18.5665	61.0639	57.8858	19.443	0.0155268	0.00522003	0.0163808	18.5823	8.30032e+07	2.46891e+08	2.6047e+08	-71.4177	0.0000000E+000	0.0000000E+000	0.0000000E+000	71.4177	0.0000000E+000	0.0000000E+000	0.0000000E+000	-71.4177	0.0000000E+000	0.0000000E+000	0.0000000E+000	-18.5823	0.0000000E+000	0.0000000E+000	0.0000000E+000	18.5823	2.97447	71.4177	-9.19196e-05	1.30039e-07	1.08263e-10	1.29931e-07	0.277755	594256	494.74	593761

File: 19510_R316_UA717_SOC00_C04.mpt
EC-Lab ASCII FILE
Nb header lines : 65

Potentio Electrochemical Impedance Spectroscopy

Run on channel : 4 (SN 66756)
User :
CE vs. WE compliance from -10 V to 10 V
Electrode connection : standard
Potential control : Ewe
Ewe ctrl range : min = -10.00 V, max = 10.00 V
Safety Limits :
	Do not start on E overload
Acquisition started on : 12/04/2025 15:42:40.739
Technique started on : 12/04/2025 15:42:42.465
Loaded Setting File :  C:\Users\Celltest\OneDrive - store-dot.com\Documents\EC-Lab\Data\@Biologic Test Protocols\anode half cell EIS SOC00.mps
Saved on :
	File : 19510_R316_UA717_SOC00_C04.mpr
	Directory : C:\Users\Celltest\OneDrive - store-dot.com\Documents\EC-Lab\Data\Charmaine\
	Host : 169.254.61.224
Device : VMP-3e (SN .003165)
Address : USB
EC-LAB for windows v11.62 (software)
Internet server v27.00 (firmware)
Command interpretor v12.03 (firmware)
Electrode material :
Initial state :
Electrolyte :
Comments :
Electrode surface area : 0.001 cm²
Characteristic mass : 0.001 g
Equivalent Weight : 0.000 g/eq.
Density : 0.000 g/cm3
Volume (V) : 0.001 cm³
Record Ece
Cycle Definition : Charge/Discharge alternance
Mode                Single sine
E (V)               0.0000
vs.                 Eoc
tE (h:m:s)          0:00:0.0000
record              0
dI                  0.000
unit dI             mA
dt (s)              0.000
fi                  100.000
unit fi             kHz
ff                  10.000
unit ff             mHz
Nd                  6
Points              per decade
spacing             Logarithmic
Va (mV)             5.0
pw                  0.10
Na                  2
corr                0
E range min (V)     -10.000
E range max (V)     10.000
I Range             Auto
Bandwidth           5
nc cycles           0
goto Ns'            0
nr cycles           0
inc. cycle          0

freq/Hz	Re(Z)/Ohm	-Im(Z)/Ohm	|Z|/Ohm	Phase(Z)/deg	time/s	<Ewe>/V	<I>/mA	Cs/µF	Cp/µF	cycle number	I Range	|Ewe|/V	|I|/A	Ns	(Q-Qo)/mA.h	<Ece>/V	|Ece|/V	Phase(Zce)/deg	|Zce|/Ohm	Re(Zce)/Ohm	-Im(Zce)/Ohm	Phase(Zwe-ce)/deg	|Zwe-ce|/Ohm	Re(Zwe-ce)/Ohm	-Im(Zwe-ce)/Ohm	Re(Y)/Ohm-1	Im(Y)/Ohm-1	|Y|/Ohm-1	Phase(Y)/deg	Re(C)/nF	Im(C)/nF	|C|/nF	Phase(C)/deg	Re(M)	Im(M)	|M|	Phase(M)/deg	Re(Permittivity)	Im(Permittivity)	|Permittivity|	Phase(Permittivity)/deg	Re(Resistivity)/Ohm.cm	Im(Resistivity)/Ohm.cm	|Resistivity|/Ohm.cm	Phase(Resistivity)/deg	Re(Conductivity)/mS/cm	Im(Conductivity)/mS/cm	|Conductivity|/mS/cm	Phase(Conductivity)/deg	Tan(Delta)	Loss Angle(Delta)/deg	dq/mA.h	Pwe/W	Pce/W	Pwe-ce/W	<Ewe-Ece>/V	Rwe/Ohm	Rce/Ohm	Rwe-ce/Ohm		Ewe-Ece/V
100004	1.24108	0.516875	1.34441	-22.6104	1.72553	0.271181	0.00762336	3.07906	0.455122	1	9	0.00475107	0.00353395	0	7.21522e-06	-0.000407112	3.1048e-05	83.5583	0.00878563	0.000985686	-0.00873016	-22.2502	1.34199	1.24206	0.508145	0.686652	0.285972	0.743822	22.6104	455.122	1092.8	1183.79	-67.3896	0.0000000E+000	0.0000000E+000	0.0000000E+000	67.3896	0.0000000E+000	0.0000000E+000	0.0000000E+000	-67.3896	0.0000000E+000	0.0000000E+000	0.0000000E+000	-22.6104	0.0000000E+000	0.0000000E+000	0.0000000E+000	22.6104	2.40111	67.3896	7.21522e-06	2.06731e-06	-3.10357e-09	2.07041e-06	0.271588	35572.3	53.4033	35625.7
31621.1	1.69078	0.732697	1.84271	-23.4294	3.12452	0.271185	0.0104952	6.86939	1.08605	1	9	0.00502341	0.00272609	0	-3.97881e-06	0.000185296	8.07761e-06	21.9845	0.00296307	0.00274762	-0.00110924	-23.3638	1.8448	1.69353	0.731588	0.497934	0.215779	0.542678	23.4294	1086.05	2506.19	2731.4	-66.5706	0.0000000E+000	0.0000000E+000	0.0000000E+000	66.5706	0.0000000E+000	0.0000000E+000	0.0000000E+000	-66.5706	0.0000000E+000	0.0000000E+000	0.0000000E+000	-23.4294	0.0000000E+000	0.0000000E+000	0.0000000E+000	23.4294	2.30762	66.5706	-1.56779e-06	2.84615e-06	1.94473e-09	2.8442e-06	0.270999	25838.8	17.6553	25821.2
10002.2	2.26463	0.982871	2.46872	-23.4613	4.27556	0.271188	0.00284927	16.1893	2.56611	1	9	0.00506038	0.0020498	0	-1.91248e-06	-0.000177793	7.38845e-06	-112.553	0.00360448	-0.00138243	0.00332883	-23.5449	2.46878	2.26325	0.9862	0.37158	0.161269	0.405068	23.4613	2566.11	5912.57	6445.42	-66.5387	0.0000000E+000	0.0000000E+000	0.0000000E+000	66.5387	0.0000000E+000	0.0000000E+000	0.0000000E+000	-66.5387	0.0000000E+000	0.0000000E+000	0.0000000E+000	-23.4613	0.0000000E+000	0.0000000E+000	0.0000000E+000	23.4613	2.3041	66.5387	4.39056e-07	7.72689e-07	-5.06581e-10	7.73195e-07	0.271366	95178	62.3994	95240.4
3163.08	2.99867	1.42242	3.31893	-25.3774	5.17367	0.271062	-0.0170302	35.3737	6.49745	1	9	0.00495778	0.00149379	0	-4.2097e-06	-0.000349783	8.6887e-06	-16.798	0.00581656	0.00556836	0.00168097	-25.3625	3.32468	3.00424	1.42411	0.272228	0.129132	0.301302	25.3774	6497.45	13697.5	15160.4	-64.6226	0.0000000E+000	0.0000000E+000	0.0000000E+000	64.6226	0.0000000E+000	0.0000000E+000	0.0000000E+000	-64.6226	0.0000000E+000	0.0000000E+000	0.0000000E+000	-25.3774	0.0000000E+000	0.0000000E+000	0.0000000E+000	25.3774	2.10814	64.6226	-1.0518e-06	-4.61624e-06	5.95687e-09	-4.6222e-06	0.271412	15916.5	20.539	15937.1
1000.32	3.90432	2.31383	4.53845	-30.6524	6.77181	0.271122	-0.000520727	68.7622	17.873	1	10	0.00489314	0.00107815	0	-3.52763e-06	3.24166e-05	9.79147e-06	-0.301823	0.00908172	0.0090816	4.78405e-05	-30.5945	4.54629	3.91341	2.31388	0.189553	0.112335	0.220339	30.6524	17873	30158.6	35056.9	-59.3476	0.0000000E+000	0.0000000E+000	0.0000000E+000	59.3476	0.0000000E+000	0.0000000E+000	0.0000000E+000	-59.3476	0.0000000E+000	0.0000000E+000	0.0000000E+000	-30.6524	0.0000000E+000	0.0000000E+000	0.0000000E+000	30.6524	1.68739	59.3476	-5.75542e-07	-1.4118e-07	-1.68802e-11	-1.41163e-07	0.271089	520660	62.2525	520597
316.316	5.28073	4.73859	7.09509	-41.9028	8.12009	0.271116	-0.000293202	106.182	47.3623	1	10	0.00477714	0.000673301	0	-2.88975e-06	-0.000235123	7.16382e-06	69.4872	0.0106398	0.00372838	-0.00996522	-41.8228	7.09122	5.28445	4.72863	0.1049	0.0941311	0.140942	41.9028	47362.3	52780.9	70915.5	-48.0972	0.0000000E+000	0.0000000E+000	0.0000000E+000	48.0972	0.0000000E+000	0.0000000E+000	0.0000000E+000	-48.0972	0.0000000E+000	0.0000000E+000	0.0000000E+000	-41.9028	0.0000000E+000	0.0000000E+000	0.0000000E+000	41.9028	1.11441	48.0972	-4.86366e-07	-7.94919e-08	6.89386e-11	-7.95609e-08	0.271351	924673	801.913	925475
100.032	9.46348	10.4256	14.0801	-47.7694	9.46781	0.271116	-0.000102974	152.609	83.6696	1	10	0.00474555	0.000337039	0	-3.3502e-06	-0.000139573	6.48545e-06	-131.363	0.0192424	-0.0127159	0.0144422	-47.8472	14.0823	9.45076	10.44	0.0477351	0.052588	0.0710221	47.7694	83669.6	75948.4	112999	-42.2306	0.0000000E+000	0.0000000E+000	0.0000000E+000	42.2306	0.0000000E+000	0.0000000E+000	0.0000000E+000	-42.2306	0.0000000E+000	0.0000000E+000	0.0000000E+000	-47.7694	0.0000000E+000	0.0000000E+000	0.0000000E+000	47.7694	0.907718	42.2306	-2.45247e-07	-2.7918e-08	1.43724e-11	-2.79323e-08	0.271256	2.63286e+06	1355.42	2.63422e+06
[...]
1.00006	46.5473	5.23347	46.8406	-6.41502	19.2066	0.271149	0.0102392	30409	379.61	1	12	0.00474054	0.000101206	0	1.84319e-05	-0.000120463	2.49119e-06	-86.4402	0.0246151	0.00152837	0.0245676	-6.44467	46.8449	46.5488	5.25804	0.0212153	0.00238531	0.021349	6.41502	379610	3.37631e+06	3.39758e+06	-83.585	0.0000000E+000	0.0000000E+000	0.0000000E+000	83.585	0.0000000E+000	0.0000000E+000	0.0000000E+000	-83.585	0.0000000E+000	0.0000000E+000	0.0000000E+000	-6.41502	0.0000000E+000	0.0000000E+000	0.0000000E+000	6.41502	8.89415	83.585	3.96819e-06	2.77636e-06	-1.23345e-09	2.77759e-06	0.271269	26481.3	11.7648	26493.1
0.316193	49.2082	4.34484	49.3996	-5.04586	33.5501	0.271157	0.0083598	115849	896.179	1	12	0.00473527	9.58563e-05	0	6.75808e-05	8.97464e-05	1.3185e-06	-46.9612	0.0137549	0.00938765	0.0100534	-5.05651	49.4099	49.2176	4.3549	0.0201646	0.00178044	0.0202431	5.04586	896179	1.01498e+07	1.01893e+07	-84.9541	0.0000000E+000	0.0000000E+000	0.0000000E+000	84.9541	0.0000000E+000	0.0000000E+000	0.0000000E+000	-84.9541	0.0000000E+000	0.0000000E+000	0.0000000E+000	-5.04586	0.0000000E+000	0.0000000E+000	0.0000000E+000	5.04586	11.3256	84.9541	2.4532e-05	2.26682e-06	7.50262e-10	2.26607e-06	0.271068	32435.9	10.7355	32425.1
0.0999041	51.7549	5.55016	52.0516	-6.12096	78.7582	0.271156	0.00624085	287033	3263.42	1	12	0.00473443	9.09564e-05	0	0.00015921	3.24166e-05	2.36468e-06	-63.4711	0.025998	0.011612	0.0232607	-6.14505	52.0657	51.7665	5.57342	0.0191022	0.0020485	0.0192117	6.12096	3.26342e+06	3.04312e+07	3.06057e+07	-83.879	0.0000000E+000	0.0000000E+000	0.0000000E+000	83.879	0.0000000E+000	0.0000000E+000	0.0000000E+000	-83.879	0.0000000E+000	0.0000000E+000	0.0000000E+000	-6.12096	0.0000000E+000	0.0000000E+000	0.0000000E+000	6.12096	9.32495	83.879	2.6975e-05	1.69224e-06	2.02307e-10	1.69204e-06	0.271123	43448.5	5.19426	43443.3
0.0315922	55.1561	9.31846	55.9377	-9.58941	221.641	0.271155	0.00204568	540625	15002.9	1	12	0.00473896	8.47185e-05	0	0.000167225	0.000242626	3.27525e-06	93.1868	0.0386604	-0.00214916	-0.0386006	-9.55078	55.9291	55.1539	9.27986	0.0176272	0.00297807	0.017877	9.58941	1.50029e+07	8.88024e+07	9.00608e+07	-80.4106	0.0000000E+000	0.0000000E+000	0.0000000E+000	80.4106	0.0000000E+000	0.0000000E+000	0.0000000E+000	-80.4106	0.0000000E+000	0.0000000E+000	0.0000000E+000	-9.58941	0.0000000E+000	0.0000000E+000	0.0000000E+000	9.58941	5.91901	80.4106	-7.2989e-06	5.54696e-07	4.96335e-10	5.542e-07	0.270912	132550	118.604	132432
0.0100092	61.0368	18.888	63.8925	-17.1949	672.863	0.271147	-0.000125148	841851	73571.4	1	12	0.00473712	7.4142e-05	0	0.00049913	-0.000139573	1.54143e-06	15.2605	0.0207903	0.0200572	-0.00547216	-17.1849	63.9101	61.0569	18.8826	0.0149518	0.00462687	0.0156513	17.1949	7.35714e+07	2.37746e+08	2.4887e+08	-72.8051	0.0000000E+000	0.0000000E+000	0.0000000E+000	72.8051	0.0000000E+000	0.0000000E+000	0.0000000E+000	-72.8051	0.0000000E+000	0.0000000E+000	0.0000000E+000	-17.1949	0.0000000E+000	0.0000000E+000	0.0000000E+000	17.1949	3.23151	72.8051	0.000198073	-3.39335e-08	1.74673e-11	-3.39509e-08	0.271286	2.16661e+06	1115.26	2.16772e+06