Folder: EIS/txt (part 106)

File: 18691_R307_UC91_23p8_SOC50_C03.mpt
EC-Lab ASCII FILE
Nb header lines : 65

Potentio Electrochemical Impedance Spectroscopy

Run on channel : 3 (SN 65921)
User :
CE vs. WE compliance from -10 V to 10 V
Electrode connection : standard
Potential control : Ewe
Ewe ctrl range : min = -10.00 V, max = 10.00 V
Safety Limits :
	Do not start on E overload
Acquisition started on : 10/28/2025 15:55:34.988
Technique started on : 10/28/2025 15:55:37.223
Loaded Setting File :  C:\Users\Celltest\OneDrive - store-dot.com\Documents\EC-Lab\Data\@Biologic Test Protocols\cathode half cell EIS SOC50.mps
Saved on :
	File : 18691_R307_UC91_23p8_SOC50_C03.mpr
	Directory : C:\Users\Celltest\OneDrive - store-dot.com\Documents\EC-Lab\Data\Anna\
	Host : 169.254.61.224
Device : VMP-3e (SN .003165)
Address : USB
EC-LAB for windows v11.62 (software)
Internet server v27.00 (firmware)
Command interpretor v12.03 (firmware)
Electrode material :
Initial state :
Electrolyte :
Comments :
Electrode surface area : 0.001 cm²
Characteristic mass : 0.001 g
Equivalent Weight : 0.000 g/eq.
Density : 0.000 g/cm3
Volume (V) : 0.001 cm³
Record Ece
Cycle Definition : Charge/Discharge alternance
Mode                Multi sine
E (V)               0.0000
vs.                 Eoc
tE (h:m:s)          0:00:0.0000
record              0
dI                  0.000
unit dI             mA
dt (s)              0.000
fi                  1.000
unit fi             MHz
ff                  0.100
unit ff             mHz
Nd                  10
Points              per decade
spacing             Logarithmic
Va (mV)             5.0
pw                  0.10
Na                  2
corr                0
E range min (V)     -10.000
E range max (V)     10.000
I Range             Auto
Bandwidth           5
nc cycles           0
goto Ns'            0
nr cycles           0
inc. cycle          0

freq/Hz	Re(Z)/Ohm	-Im(Z)/Ohm	|Z|/Ohm	Phase(Z)/deg	time/s	<Ewe>/V	<I>/mA	Cs/µF	Cp/µF	cycle number	I Range	|Ewe|/V	|I|/A	Ns	(Q-Qo)/mA.h	<Ece>/V	|Ece|/V	Phase(Zce)/deg	|Zce|/Ohm	Re(Zce)/Ohm	-Im(Zce)/Ohm	Phase(Zwe-ce)/deg	|Zwe-ce|/Ohm	Re(Zwe-ce)/Ohm	-Im(Zwe-ce)/Ohm	Re(Y)/Ohm-1	Im(Y)/Ohm-1	|Y|/Ohm-1	Phase(Y)/deg	Re(C)/nF	Im(C)/nF	|C|/nF	Phase(C)/deg	Re(M)	Im(M)	|M|	Phase(M)/deg	Re(Permittivity)	Im(Permittivity)	|Permittivity|	Phase(Permittivity)/deg	Re(Resistivity)/Ohm.cm	Im(Resistivity)/Ohm.cm	|Resistivity|/Ohm.cm	Phase(Resistivity)/deg	Re(Conductivity)/mS/cm	Im(Conductivity)/mS/cm	|Conductivity|/mS/cm	Phase(Conductivity)/deg	Tan(Delta)	Loss Angle(Delta)/deg	dq/mA.h	Pwe/W	Pce/W	Pwe-ce/W	<Ewe-Ece>/V	Rwe/Ohm	Rce/Ohm	Rwe-ce/Ohm		Ewe-Ece/V
1.00002e+06	2.41202	3.51996	4.26708	-55.5794	2.23453	3.96797	-0.0332063	0.0452141	0.0307672	1	10	0.000225911	5.29428e-05	0	-2.47885e-05	-0.000118703	0.000198607	-67.791	3.75134	1.41796	3.47304	-61.291	7.97313	3.82998	6.993	0.132471	0.19332	0.234352	55.5794	30.7672	21.083	37.2976	-34.4206	0.0000000E+000	0.0000000E+000	0.0000000E+000	34.4206	0.0000000E+000	0.0000000E+000	0.0000000E+000	-34.4206	0.0000000E+000	0.0000000E+000	0.0000000E+000	-55.5794	0.0000000E+000	0.0000000E+000	0.0000000E+000	55.5794	0.685242	34.4206	-2.47885e-05	-0.000131762	3.9417e-09	-0.000131766	3.96809	119494	3.57471	119498
251206	1.26025	0.366832	1.31256	-16.2291	4.93956	3.96755	-0.00750244	1.72712	0.134903	1	9	0.00234419	0.00178597	0	-3.13344e-05	7.22374e-05	6.35405e-05	95.7902	0.0355775	-0.00358925	-0.035396	-14.7749	1.29964	1.25666	0.331436	0.731513	0.212927	0.761872	16.2291	134.903	463.459	482.694	-73.7709	0.0000000E+000	0.0000000E+000	0.0000000E+000	73.7709	0.0000000E+000	0.0000000E+000	0.0000000E+000	-73.7709	0.0000000E+000	0.0000000E+000	0.0000000E+000	-16.2291	0.0000000E+000	0.0000000E+000	0.0000000E+000	16.2291	3.4355	73.7709	-1.20334e-06	-2.97663e-05	-5.41957e-10	-2.97658e-05	3.96748	528835	9.62853	528826
63093.8	1.79302	1.1179	2.11296	-31.9425	7.24154	3.96747	0.00327543	2.25647	0.631616	1	9	0.00537132	0.00254208	0	-3.81996e-05	-0.000252362	1.52807e-05	41.7032	0.0060111	0.00448789	-0.00399902	-31.7862	2.11466	1.7975	1.1139	0.401607	0.250392	0.47327	31.9425	631.616	1013.06	1193.83	-58.0575	0.0000000E+000	0.0000000E+000	0.0000000E+000	58.0575	0.0000000E+000	0.0000000E+000	0.0000000E+000	-58.0575	0.0000000E+000	0.0000000E+000	0.0000000E+000	-31.9425	0.0000000E+000	0.0000000E+000	0.0000000E+000	31.9425	1.60391	58.0575	2.25664e-06	1.29952e-05	-8.26594e-10	1.2996e-05	3.96773	1.21128e+06	77.0468	1.21136e+06
15847.7	3.15671	1.94195	3.70621	-31.5991	9.54153	3.96747	-0.00340016	5.17149	1.41982	1	9	0.00528973	0.00142726	0	-3.43243e-05	-0.000271456	7.34843e-06	-51.3204	0.00514863	0.00321771	0.00401929	-31.6259	3.71106	3.15993	1.94597	0.229813	0.141377	0.269817	31.5991	1419.82	2307.96	2709.72	-58.4009	0.0000000E+000	0.0000000E+000	0.0000000E+000	58.4009	0.0000000E+000	0.0000000E+000	0.0000000E+000	-58.4009	0.0000000E+000	0.0000000E+000	0.0000000E+000	-31.5991	0.0000000E+000	0.0000000E+000	0.0000000E+000	31.5991	1.62553	58.4009	-6.43079e-07	-1.349e-05	9.22994e-10	-1.3491e-05	3.96774	1.16685e+06	79.8361	1.16693e+06
3983.6	4.96939	2.83614	5.72175	-29.7144	12.0411	3.96745	-0.0419244	14.0869	3.46109	1	10	0.00536543	0.000937725	0	-5.86737e-05	-0.000252362	5.0416e-06	-5.17685	0.00537642	0.00535449	0.000485115	-29.692	5.72665	4.97474	2.83662	0.15179	0.0866301	0.174772	29.7144	3461.09	6064.41	6982.57	-60.2856	0.0000000E+000	0.0000000E+000	0.0000000E+000	60.2856	0.0000000E+000	0.0000000E+000	0.0000000E+000	-60.2856	0.0000000E+000	0.0000000E+000	0.0000000E+000	-29.7144	0.0000000E+000	0.0000000E+000	0.0000000E+000	29.7144	1.75217	60.2856	-3.3441e-06	-0.000166333	1.05801e-08	-0.000166344	3.96771	94633.4	6.01944	94639.4
1000.32	8.19238	4.52456	9.35878	-28.9114	14.6699	3.96743	-0.0432408	35.1645	8.21899	1	10	0.00503147	0.00053762	0	-9.0288e-05	7.22374e-05	8.54541e-06	-89.42	0.0158949	0.000160897	0.0158941	-28.996	9.36662	8.19255	4.54045	0.0935345	0.051658	0.106852	28.9114	8218.99	14881.7	17000.5	-61.0886	0.0000000E+000	0.0000000E+000	0.0000000E+000	61.0886	0.0000000E+000	0.0000000E+000	0.0000000E+000	-61.0886	0.0000000E+000	0.0000000E+000	0.0000000E+000	-28.9114	0.0000000E+000	0.0000000E+000	0.0000000E+000	28.9114	1.81065	61.0886	-5.17071e-06	-0.000171555	-3.1236e-09	-0.000171551	3.96736	91752.1	1.67059	91750.4
251.044	13.5315	4.65488	14.3098	-18.9834	17.37	3.96743	-0.0423943	136.195	14.4116	1	10	0.0048718	0.000340453	0	-0.000121394	-6.1421e-05	1.50983e-05	-34.6221	0.0443477	0.0364945	0.0251966	-19.0311	14.3525	13.568	4.68007	0.0660816	0.0227323	0.0698823	18.9834	14411.6	41893.9	44303.4	-71.0166	0.0000000E+000	0.0000000E+000	0.0000000E+000	71.0166	0.0000000E+000	0.0000000E+000	0.0000000E+000	-71.0166	0.0000000E+000	0.0000000E+000	0.0000000E+000	-18.9834	0.0000000E+000	0.0000000E+000	0.0000000E+000	18.9834	2.90695	71.0166	-4.91521e-06	-0.000168196	2.6039e-09	-0.000168199	3.96749	93584.1	1.4488	93585.5
[...]
0.0602816	21.6643	2.75604	21.8389	-7.24997	240.717	3.96742	-0.0291276	957966	15256.6	1	11	0.00505627	0.000231526	0	-0.0031422	-0.000214174	7.70473e-07	-12.7167	0.00332781	0.00324618	0.00073255	-7.2508	21.8422	21.6676	2.75677	0.0454237	0.00577861	0.0457898	7.24997	1.52566e+07	1.19927e+08	1.20894e+08	-82.75	0.0000000E+000	0.0000000E+000	0.0000000E+000	82.75	0.0000000E+000	0.0000000E+000	0.0000000E+000	-82.75	0.0000000E+000	0.0000000E+000	0.0000000E+000	-7.24997	0.0000000E+000	0.0000000E+000	0.0000000E+000	7.24997	7.86067	82.75	0.000000000000000E+000	-0.000115561	6.23836e-09	-0.000115568	3.96764	136208	7.35294	136216
0.00796479	29.2602	6.03751	29.8766	-11.6587	20329.5	3.96745	0.00019566	3.3097e+06	135158	1	11	0.00505287	0.000169124	0	-0.0157012	-4.23269e-05	8.44895e-07	167.295	0.0049957	-0.00487339	-0.0010987	-11.6585	29.8716	29.2554	6.03641	0.0327804	0.00676385	0.033471	11.6587	1.35158e+08	6.55029e+08	6.68828e+08	-78.3413	0.0000000E+000	0.0000000E+000	0.0000000E+000	78.3413	0.0000000E+000	0.0000000E+000	0.0000000E+000	-78.3413	0.0000000E+000	0.0000000E+000	0.0000000E+000	-11.6587	0.0000000E+000	0.0000000E+000	0.0000000E+000	11.6587	4.84641	78.3413	-0.0125589	7.76271e-07	-8.28169e-12	7.76279e-07	3.96749	2.02772e+07	216.329	2.02775e+07
0.0019912	34.6149	8.90496	35.742	-14.427	20329.5	3.96745	0.00019566	8.97582e+06	557161	1	11	0.00506651	0.000141752	0	-0.0157012	-4.23269e-05	8.25619e-07	-135.176	0.00582437	-0.00413107	0.0041058	-14.435	35.739	34.6108	8.90906	0.027096	0.00697067	0.0279783	14.427	5.57161e+08	2.16577e+09	2.23629e+09	-75.573	0.0000000E+000	0.0000000E+000	0.0000000E+000	75.573	0.0000000E+000	0.0000000E+000	0.0000000E+000	-75.573	0.0000000E+000	0.0000000E+000	0.0000000E+000	-14.427	0.0000000E+000	0.0000000E+000	0.0000000E+000	14.427	3.88715	75.573	0.000000000000000E+000	7.76271e-07	-8.28169e-12	7.76279e-07	3.96749	2.02772e+07	216.329	2.02775e+07
0.000497799	37.8653	16.6932	41.3817	-23.7907	20329.6	3.96745	0.00019566	1.91525e+07	3.11666e+06	1	11	0.0050664	0.000122431	0	-0.0157012	-4.23269e-05	9.24338e-07	-69.9662	0.00754988	0.0025864	0.00709304	-23.7982	41.3869	37.8679	16.7003	0.0221118	0.00974819	0.0241653	23.7907	3.11666e+09	7.06953e+09	7.72605e+09	-66.2093	0.0000000E+000	0.0000000E+000	0.0000000E+000	66.2093	0.0000000E+000	0.0000000E+000	0.0000000E+000	-66.2093	0.0000000E+000	0.0000000E+000	0.0000000E+000	-23.7907	0.0000000E+000	0.0000000E+000	0.0000000E+000	23.7907	2.2683	66.2093	0.000000000000000E+000	7.76271e-07	-8.28169e-12	7.76279e-07	3.96749	2.02772e+07	216.329	2.02775e+07
9.95598e-05	42.909	89.6588	99.3976	-64.4251	20329.6	3.96745	0.00019566	1.78297e+07	1.4507e+07	1	11	0.00506766	5.09837e-05	0	-0.0157012	-4.23269e-05	3.22774e-06	-5.39881	0.0633092	0.0630284	0.00595661	-64.3939	99.4302	42.972	89.6648	0.00434306	0.00907489	0.0100606	64.4251	1.4507e+10	6.94276e+09	1.60827e+10	-25.5749	0.0000000E+000	0.0000000E+000	0.0000000E+000	25.5749	0.0000000E+000	0.0000000E+000	0.0000000E+000	-25.5749	0.0000000E+000	0.0000000E+000	0.0000000E+000	-64.4251	0.0000000E+000	0.0000000E+000	0.0000000E+000	64.4251	0.478581	25.5749	0.000000000000000E+000	7.76271e-07	-8.28169e-12	7.76279e-07	3.96749	2.02772e+07	216.329	2.02775e+07

File: 18692_R307_UC91_23p8_SOC50_C04.mpt
EC-Lab ASCII FILE
Nb header lines : 65

Potentio Electrochemical Impedance Spectroscopy

Run on channel : 4 (SN 66756)
User :
CE vs. WE compliance from -10 V to 10 V
Electrode connection : standard
Potential control : Ewe
Ewe ctrl range : min = -10.00 V, max = 10.00 V
Safety Limits :
	Do not start on E overload
Acquisition started on : 10/28/2025 15:55:43.028
Technique started on : 10/28/2025 15:55:45.263
Loaded Setting File :  C:\Users\Celltest\OneDrive - store-dot.com\Documents\EC-Lab\Data\@Biologic Test Protocols\cathode half cell EIS SOC50.mps
Saved on :
	File : 18692_R307_UC91_23p8_SOC50_C04.mpr
	Directory : C:\Users\Celltest\OneDrive - store-dot.com\Documents\EC-Lab\Data\Anna\
	Host : 169.254.61.224
Device : VMP-3e (SN .003165)
Address : USB
EC-LAB for windows v11.62 (software)
Internet server v27.00 (firmware)
Command interpretor v12.03 (firmware)
Electrode material :
Initial state :
Electrolyte :
Comments :
Electrode surface area : 0.001 cm²
Characteristic mass : 0.001 g
Equivalent Weight : 0.000 g/eq.
Density : 0.000 g/cm3
Volume (V) : 0.001 cm³
Record Ece
Cycle Definition : Charge/Discharge alternance
Mode                Multi sine
E (V)               0.0000
vs.                 Eoc
tE (h:m:s)          0:00:0.0000
record              0
dI                  0.000
unit dI             mA
dt (s)              0.000
fi                  1.000
unit fi             MHz
ff                  0.100
unit ff             mHz
Nd                  10
Points              per decade
spacing             Logarithmic
Va (mV)             5.0
pw                  0.10
Na                  2
corr                0
E range min (V)     -10.000
E range max (V)     10.000
I Range             Auto
Bandwidth           5
nc cycles           0
goto Ns'            0
nr cycles           0
inc. cycle          0

freq/Hz	Re(Z)/Ohm	-Im(Z)/Ohm	|Z|/Ohm	Phase(Z)/deg	time/s	<Ewe>/V	<I>/mA	Cs/µF	Cp/µF	cycle number	I Range	|Ewe|/V	|I|/A	Ns	(Q-Qo)/mA.h	<Ece>/V	|Ece|/V	Phase(Zce)/deg	|Zce|/Ohm	Re(Zce)/Ohm	-Im(Zce)/Ohm	Phase(Zwe-ce)/deg	|Zwe-ce|/Ohm	Re(Zwe-ce)/Ohm	-Im(Zwe-ce)/Ohm	Re(Y)/Ohm-1	Im(Y)/Ohm-1	|Y|/Ohm-1	Phase(Y)/deg	Re(C)/nF	Im(C)/nF	|C|/nF	Phase(C)/deg	Re(M)	Im(M)	|M|	Phase(M)/deg	Re(Permittivity)	Im(Permittivity)	|Permittivity|	Phase(Permittivity)/deg	Re(Resistivity)/Ohm.cm	Im(Resistivity)/Ohm.cm	|Resistivity|/Ohm.cm	Phase(Resistivity)/deg	Re(Conductivity)/mS/cm	Im(Conductivity)/mS/cm	|Conductivity|/mS/cm	Phase(Conductivity)/deg	Tan(Delta)	Loss Angle(Delta)/deg	dq/mA.h	Pwe/W	Pce/W	Pwe-ce/W	<Ewe-Ece>/V	Rwe/Ohm	Rce/Ohm	Rwe-ce/Ohm		Ewe-Ece/V
1.00002e+06	2.15789	2.9281	3.63735	-53.6113	2.23452	3.969	0.0300219	0.0543533	0.0352232	1	10	0.000204158	5.61283e-05	0	2.31933e-06	-0.000359481	0.000184509	-66.5222	3.28727	1.30963	3.01513	-59.739	6.88082	3.46752	5.94323	0.163103	0.221318	0.274926	53.6113	35.2232	25.9581	43.755	-36.3887	0.0000000E+000	0.0000000E+000	0.0000000E+000	36.3887	0.0000000E+000	0.0000000E+000	0.0000000E+000	-36.3887	0.0000000E+000	0.0000000E+000	0.0000000E+000	-53.6113	0.0000000E+000	0.0000000E+000	0.0000000E+000	53.6113	0.73696	36.3887	2.31933e-06	0.000119157	-1.07923e-08	0.000119168	3.96936	132203	11.9739	132215
251206	1.21413	0.361798	1.26689	-16.5935	4.93557	3.96762	-0.0451523	1.75115	0.142816	1	9	0.00274034	0.00216304	0	-2.26465e-05	9.9158e-05	9.55294e-05	76.0674	0.0441644	0.0106339	-0.042865	-14.5958	1.26561	1.22477	0.318933	0.756461	0.225417	0.789333	16.5935	142.816	479.266	500.092	-73.4065	0.0000000E+000	0.0000000E+000	0.0000000E+000	73.4065	0.0000000E+000	0.0000000E+000	0.0000000E+000	-73.4065	0.0000000E+000	0.0000000E+000	0.0000000E+000	-16.5935	0.0000000E+000	0.0000000E+000	0.0000000E+000	16.5935	3.35583	73.4065	-3.74349e-06	-0.000179147	-4.47722e-09	-0.000179143	3.96752	87871.8	2.19608	87869.6
63093.8	1.67996	1.11407	2.01579	-33.5505	7.10956	3.96747	-0.051008	2.26423	0.691599	1	9	0.00532312	0.0026407	0	-4.66163e-05	0.000252038	1.29784e-05	55.9162	0.00491476	0.00275426	-0.0040705	-33.4108	2.01585	1.68272	1.11	0.413434	0.274171	0.496082	33.5505	691.599	1042.89	1251.37	-56.4495	0.0000000E+000	0.0000000E+000	0.0000000E+000	56.4495	0.0000000E+000	0.0000000E+000	0.0000000E+000	-56.4495	0.0000000E+000	0.0000000E+000	0.0000000E+000	-33.5505	0.0000000E+000	0.0000000E+000	0.0000000E+000	33.5505	1.50795	56.4495	-4.31183e-06	-0.000202373	-1.28559e-08	-0.00020236	3.96722	77781.3	4.94114	77776.3
15847.7	3.06966	2.17317	3.76105	-35.2966	9.40753	3.96748	-0.0485837	4.62127	1.54287	1	9	0.00527788	0.0014033	0	-7.77169e-05	-3.46116e-05	5.32032e-06	-69.7927	0.00379129	0.00130958	0.00355793	-35.3293	3.76417	3.07097	2.17673	0.217007	0.15363	0.265883	35.2966	1542.87	2179.35	2670.21	-54.7034	0.0000000E+000	0.0000000E+000	0.0000000E+000	54.7034	0.0000000E+000	0.0000000E+000	0.0000000E+000	-54.7034	0.0000000E+000	0.0000000E+000	0.0000000E+000	-35.2966	0.0000000E+000	0.0000000E+000	0.0000000E+000	35.2966	1.41253	54.7034	-4.28715e-06	-0.000192755	1.68156e-09	-0.000192756	3.96751	81662.7	0.712412	81663.4
3983.6	5.31384	3.30019	6.25525	-31.8426	11.7841	3.96744	-0.0247781	12.1061	3.36972	1	10	0.00520881	0.000832709	0	-9.76382e-05	-0.000111051	5.32543e-06	32.1836	0.00639531	0.00541264	-0.00340636	-31.79	6.25806	5.31926	3.29679	0.135806	0.0843431	0.159866	31.8426	3369.72	5425.79	6387.03	-58.1574	0.0000000E+000	0.0000000E+000	0.0000000E+000	58.1574	0.0000000E+000	0.0000000E+000	0.0000000E+000	-58.1574	0.0000000E+000	0.0000000E+000	0.0000000E+000	-31.8426	0.0000000E+000	0.0000000E+000	0.0000000E+000	31.8426	1.61016	58.1574	-2.58975e-06	-9.83056e-05	2.75164e-09	-9.83083e-05	3.96755	160119	4.48184	160124
1000.32	8.87302	5.37448	10.3738	-31.2037	14.4128	3.96741	-0.0259382	29.6036	7.94589	1	10	0.00475413	0.000458282	0	-0.000116716	-0.000321261	8.24746e-06	-79.7157	0.0179965	0.00321296	0.0177073	-31.2781	10.3857	8.87623	5.39219	0.0824511	0.0499415	0.0963968	31.2037	7945.89	13118.3	15337.1	-58.7963	0.0000000E+000	0.0000000E+000	0.0000000E+000	58.7963	0.0000000E+000	0.0000000E+000	0.0000000E+000	-58.7963	0.0000000E+000	0.0000000E+000	0.0000000E+000	-31.2037	0.0000000E+000	0.0000000E+000	0.0000000E+000	31.2037	1.65095	58.7963	-3.05268e-06	-0.000102907	8.33292e-09	-0.000102916	3.96773	152956	12.3856	152969
251.044	15.3739	6.12949	16.5508	-21.7369	17.113	3.96742	-0.0263634	103.43	14.1859	1	10	0.00463742	0.000280193	0	-0.000135395	2.27182e-05	8.02396e-06	79.1819	0.0286372	0.00537498	-0.0281283	-21.6395	16.5454	15.3793	6.10136	0.0561239	0.0223763	0.0604201	21.7369	14185.9	35581	38304.6	-68.2631	0.0000000E+000	0.0000000E+000	0.0000000E+000	68.2631	0.0000000E+000	0.0000000E+000	0.0000000E+000	-68.2631	0.0000000E+000	0.0000000E+000	0.0000000E+000	-21.7369	0.0000000E+000	0.0000000E+000	0.0000000E+000	21.7369	2.50819	68.2631	-3.3878e-06	-0.000104595	-5.9893e-10	-0.000104594	3.96739	150489	0.861733	150489
[...]
0.0602816	26.264	3.06804	26.4426	-6.66285	240.475	3.96742	-0.0146162	860545	11584.8	1	11	0.00508391	0.000192262	0	-0.00193373	-0.000225711	9.02386e-07	-17.5603	0.00469352	0.0044748	0.00141608	-6.66477	26.4472	26.2685	3.06946	0.0375624	0.00438787	0.0378178	6.66285	1.15848e+07	9.91718e+07	9.98461e+07	-83.3372	0.0000000E+000	0.0000000E+000	0.0000000E+000	83.3372	0.0000000E+000	0.0000000E+000	0.0000000E+000	-83.3372	0.0000000E+000	0.0000000E+000	0.0000000E+000	-6.66285	0.0000000E+000	0.0000000E+000	0.0000000E+000	6.66285	8.5605	83.3372	0.000000000000000E+000	-5.79887e-05	3.29905e-09	-5.7992e-05	3.96765	271439	15.4425	271455
0.00796479	34.4806	6.06371	35.0097	-9.97397	20329.4	3.96743	-0.000227124	3.29539e+06	98856.9	1	11	0.00507608	0.000144991	0	-0.0126238	-9.19415e-05	3.88195e-07	-37.1766	0.00267738	0.00213327	0.00161787	-9.97597	35.0121	34.4828	6.06533	0.0281318	0.00494722	0.0285635	9.97397	9.88569e+07	5.62138e+08	5.70765e+08	-80.026	0.0000000E+000	0.0000000E+000	0.0000000E+000	80.026	0.0000000E+000	0.0000000E+000	0.0000000E+000	-80.026	0.0000000E+000	0.0000000E+000	0.0000000E+000	-9.97397	0.0000000E+000	0.0000000E+000	0.0000000E+000	9.97397	5.68639	80.026	-0.0106901	-9.01097e-07	2.08821e-11	-9.01118e-07	3.96752	1.74682e+07	404.808	1.74686e+07
0.0019912	39.5354	9.43217	40.645	-13.4185	20329.4	3.96743	-0.000227124	8.47411e+06	456357	1	11	0.00508868	0.000125198	0	-0.0126238	-9.19415e-05	9.20442e-07	28.3201	0.00735187	0.00647193	-0.0034877	-13.4116	40.6504	39.5419	9.42869	0.0239316	0.0057095	0.0246033	13.4185	4.56357e+08	1.91284e+09	1.96652e+09	-76.5815	0.0000000E+000	0.0000000E+000	0.0000000E+000	76.5815	0.0000000E+000	0.0000000E+000	0.0000000E+000	-76.5815	0.0000000E+000	0.0000000E+000	0.0000000E+000	-13.4185	0.0000000E+000	0.0000000E+000	0.0000000E+000	13.4185	4.19155	76.5815	0.000000000000000E+000	-9.01097e-07	2.08821e-11	-9.01118e-07	3.96752	1.74682e+07	404.808	1.74686e+07
0.000497799	42.7666	17.5323	46.2208	-22.2914	20329.4	3.96743	-0.000227124	1.82359e+07	2.6238e+06	1	11	0.00509058	0.000110136	0	-0.0126238	-9.19415e-05	2.58091e-06	42.5965	0.0234339	0.0172506	-0.0158608	-22.2651	46.2307	42.7838	17.5165	0.0200184	0.00820663	0.0216353	22.2914	2.6238e+09	6.40023e+09	6.91717e+09	-67.7086	0.0000000E+000	0.0000000E+000	0.0000000E+000	67.7086	0.0000000E+000	0.0000000E+000	0.0000000E+000	-67.7086	0.0000000E+000	0.0000000E+000	0.0000000E+000	-22.2914	0.0000000E+000	0.0000000E+000	0.0000000E+000	22.2914	2.4393	67.7086	0.000000000000000E+000	-9.01097e-07	2.08821e-11	-9.01118e-07	3.96752	1.74682e+07	404.808	1.74686e+07
9.95598e-05	46.7789	92.242	103.426	-63.109	20329.4	3.96743	-0.000227124	1.73304e+07	1.37851e+07	1	11	0.00509108	4.92246e-05	0	-0.0126238	-9.19415e-05	3.89529e-06	-113.688	0.0791331	-0.0317917	0.0724661	-63.1428	103.476	46.7471	92.3144	0.00437315	0.00862329	0.00966879	63.109	1.37851e+10	6.99085e+09	1.54564e+10	-26.891	0.0000000E+000	0.0000000E+000	0.0000000E+000	26.891	0.0000000E+000	0.0000000E+000	0.0000000E+000	-26.891	0.0000000E+000	0.0000000E+000	0.0000000E+000	-63.109	0.0000000E+000	0.0000000E+000	0.0000000E+000	63.109	0.507132	26.891	0.000000000000000E+000	-9.01097e-07	2.08821e-11	-9.01118e-07	3.96752	1.74682e+07	404.808	1.74686e+07