Folder: EIS/txt (part 12)

File: 17230_UC80_EIS_50SOC_C07.mpt
EC-Lab ASCII FILE
Nb header lines : 65

Potentio Electrochemical Impedance Spectroscopy

Run on channel : 7 (SN 66126)
User :
CE vs. WE compliance from -10 V to 10 V
Electrode connection : standard
Potential control : Ewe
Ewe ctrl range : min = -10.00 V, max = 10.00 V
Safety Limits :
	Do not start on E overload
Acquisition started on : 09/02/2025 16:42:33.126
Technique started on : 09/02/2025 16:42:35.361
Loaded Setting File :  C:\Users\Celltest\OneDrive - store-dot.com\Documents\EC-Lab\Data\Michael\R278\UC74_NCMA_16706_EIS_50_SOC.mps
Saved on :
	File : UC80_17230_EIS_50SOC_C07.mpr
	Directory : C:\Users\Celltest\OneDrive - store-dot.com\Documents\EC-Lab\Data\Michael\R278\
	Host : 169.254.61.224
Device : VMP-3e (SN .003165)
Address : USB
EC-LAB for windows v11.62 (software)
Internet server v27.00 (firmware)
Command interpretor v12.03 (firmware)
Electrode material :
Initial state :
Electrolyte :
Comments :
Electrode surface area : 0.001 cm²
Characteristic mass : 0.001 g
Equivalent Weight : 0.000 g/eq.
Density : 0.000 g/cm3
Volume (V) : 0.001 cm³
Record Ece
Cycle Definition : Charge/Discharge alternance
Mode                Multi sine
E (V)               0.0000
vs.                 Eoc
tE (h:m:s)          0:00:0.0000
record              0
dI                  0.000
unit dI             mA
dt (s)              0.000
fi                  1.000
unit fi             MHz
ff                  0.100
unit ff             mHz
Nd                  10
Points              per decade
spacing             Logarithmic
Va (mV)             5.0
pw                  0.10
Na                  2
corr                0
E range min (V)     -10.000
E range max (V)     10.000
I Range             Auto
Bandwidth           5
nc cycles           0
goto Ns'            0
nr cycles           0
inc. cycle          0

freq/Hz	Re(Z)/Ohm	-Im(Z)/Ohm	|Z|/Ohm	Phase(Z)/deg	time/s	<Ewe>/V	<I>/mA	Cs/µF	Cp/µF	cycle number	I Range	|Ewe|/V	|I|/A	Ns	(Q-Qo)/mA.h	<Ece>/V	|Ece|/V	Phase(Zce)/deg	|Zce|/Ohm	Re(Zce)/Ohm	-Im(Zce)/Ohm	Phase(Zwe-ce)/deg	|Zwe-ce|/Ohm	Re(Zwe-ce)/Ohm	-Im(Zwe-ce)/Ohm	Re(Y)/Ohm-1	Im(Y)/Ohm-1	|Y|/Ohm-1	Phase(Y)/deg	Re(C)/nF	Im(C)/nF	|C|/nF	Phase(C)/deg	Re(M)	Im(M)	|M|	Phase(M)/deg	Re(Permittivity)	Im(Permittivity)	|Permittivity|	Phase(Permittivity)/deg	Re(Resistivity)/Ohm.cm	Im(Resistivity)/Ohm.cm	|Resistivity|/Ohm.cm	Phase(Resistivity)/deg	Re(Conductivity)/mS/cm	Im(Conductivity)/mS/cm	|Conductivity|/mS/cm	Phase(Conductivity)/deg	Tan(Delta)	Loss Angle(Delta)/deg	dq/mA.h	Pwe/W	Pce/W	Pwe-ce/W	<Ewe-Ece>/V	Rwe/Ohm	Rce/Ohm	Rwe-ce/Ohm		Ewe-Ece/V
1.00002e+06	2.11295	3.35388	3.96397	-57.789	2.23454	3.78385	-0.0484994	0.0474531	0.0339702	1	10	0.000228895	5.7744e-05	0	-1.78965e-05	-0.000326596	0.000195682	-63.1647	3.38878	1.52979	3.02384	-60.2664	7.34472	3.64274	6.37772	0.134471	0.213445	0.252272	57.789	33.9702	21.4013	40.1496	-32.211	0.0000000E+000	0.0000000E+000	0.0000000E+000	32.211	0.0000000E+000	0.0000000E+000	0.0000000E+000	-32.211	0.0000000E+000	0.0000000E+000	0.0000000E+000	-57.789	0.0000000E+000	0.0000000E+000	0.0000000E+000	57.789	0.630001	32.211	-1.78965e-05	-0.000183514	1.58397e-08	-0.00018353	3.78417	78018.5	6.73403	78025.2
251206	0.918699	0.381032	0.994581	-22.5263	4.93854	3.78401	0.0386584	1.66276	0.244045	1	9	0.00239707	0.00241013	0	1.05192e-06	-0.000402898	4.16062e-05	95.9111	0.0172631	-0.00177784	-0.0171713	-21.6446	0.986478	0.916921	0.36386	0.928736	0.385195	1.00545	22.5263	244.045	588.413	637.015	-67.4737	0.0000000E+000	0.0000000E+000	0.0000000E+000	67.4737	0.0000000E+000	0.0000000E+000	0.0000000E+000	-67.4737	0.0000000E+000	0.0000000E+000	0.0000000E+000	-22.5263	0.0000000E+000	0.0000000E+000	0.0000000E+000	22.5263	2.41108	67.4737	1.62958e-06	0.000146283	-1.55754e-08	0.000146299	3.78441	97883.3	10.422	97893.7
63093.8	1.47813	0.73133	1.64915	-26.3247	7.23854	3.78407	0.0517282	3.44921	0.678303	1	9	0.00543851	0.00329775	0	2.40899e-05	-5.95403e-05	2.49866e-05	80.9904	0.00757687	0.00118654	-0.00748339	-26.073	1.64692	1.47932	0.723847	0.543488	0.2689	0.606371	26.3247	678.303	1370.95	1529.58	-63.6753	0.0000000E+000	0.0000000E+000	0.0000000E+000	63.6753	0.0000000E+000	0.0000000E+000	0.0000000E+000	-63.6753	0.0000000E+000	0.0000000E+000	0.0000000E+000	-26.3247	0.0000000E+000	0.0000000E+000	0.0000000E+000	26.3247	2.02115	63.6753	4.3032e-06	0.000195743	-3.07992e-09	0.000195746	3.78413	73152.8	1.15102	73154
15847.7	2.24405	0.782468	2.37655	-19.2229	9.28851	3.78408	0.0536645	12.8348	1.39131	1	9	0.00489794	0.00206094	0	5.96718e-05	-9.76912e-05	7.83253e-06	-83.247	0.00380046	0.000446892	0.0037741	-19.3052	2.37822	2.2445	0.786242	0.397317	0.138539	0.420777	19.2229	1391.31	3990.17	4225.78	-70.7771	0.0000000E+000	0.0000000E+000	0.0000000E+000	70.7771	0.0000000E+000	0.0000000E+000	0.0000000E+000	-70.7771	0.0000000E+000	0.0000000E+000	0.0000000E+000	-19.2229	0.0000000E+000	0.0000000E+000	0.0000000E+000	19.2229	2.86791	70.7771	2.47525e-06	0.000203071	-5.24255e-09	0.000203076	3.78418	70513.7	1.82041	70515.5
3983.6	2.84917	0.854476	2.97454	-16.6942	11.0191	3.78387	-0.0284411	46.7567	3.85837	1	9	0.00460598	0.00154847	0	7.42769e-05	-0.000173993	1.12337e-05	4.42128	0.00725472	0.00723313	-0.000559262	-16.6439	2.98131	2.8564	0.853917	0.322017	0.0965739	0.336186	16.6942	3858.37	12865.4	13431.5	-73.3058	0.0000000E+000	0.0000000E+000	0.0000000E+000	73.3058	0.0000000E+000	0.0000000E+000	0.0000000E+000	-73.3058	0.0000000E+000	0.0000000E+000	0.0000000E+000	-16.6942	0.0000000E+000	0.0000000E+000	0.0000000E+000	16.6942	3.33441	73.3058	-2.37629e-06	-0.000107617	4.94855e-09	-0.000107622	3.78405	133042	6.11766	133049
1000.32	3.69969	1.31261	3.92564	-19.5341	13.8928	3.78397	-0.0220156	121.212	13.5517	1	10	0.00456904	0.0011639	0	8.40701e-05	7.39876e-05	4.99722e-06	52.7428	0.00429353	0.00259928	-0.00341733	-19.4744	3.92695	3.70229	1.30919	0.240074	0.0851753	0.254736	19.5341	13551.7	38196.7	40529.4	-70.4659	0.0000000E+000	0.0000000E+000	0.0000000E+000	70.4659	0.0000000E+000	0.0000000E+000	0.0000000E+000	-70.4659	0.0000000E+000	0.0000000E+000	0.0000000E+000	-19.5341	0.0000000E+000	0.0000000E+000	0.0000000E+000	19.5341	2.81858	70.4659	-2.61951e-06	-8.33065e-05	-1.62888e-09	-8.33049e-05	3.7839	171877	3.36069	171873
251.044	5.33138	1.63559	5.57663	-17.0552	16.8071	3.78398	-0.0218034	387.611	33.3427	1	10	0.00499497	0.000895697	0	6.80107e-05	-0.000345672	5.79343e-06	89.4526	0.00646807	6.1798e-05	-0.00646778	-16.9915	5.57479	5.33144	1.62912	0.171434	0.0525933	0.17932	17.0552	33342.7	108684	113684	-72.9448	0.0000000E+000	0.0000000E+000	0.0000000E+000	72.9448	0.0000000E+000	0.0000000E+000	0.0000000E+000	-72.9448	0.0000000E+000	0.0000000E+000	0.0000000E+000	-17.0552	0.0000000E+000	0.0000000E+000	0.0000000E+000	17.0552	3.25961	72.9448	-3.20495e-06	-8.25037e-05	7.53683e-09	-8.25113e-05	3.78432	173550	15.854	173565
[...]
0.0602816	8.18671	1.12584	8.26376	-7.83024	240.284	3.78399	-0.017786	2.34508e+06	43526.8	1	11	0.0050766	0.000614321	0	-0.00363576	5.49122e-05	8.15562e-07	54.8978	0.00132758	0.000763409	-0.00108613	-7.82206	8.26437	8.18748	1.12476	0.119882	0.0164863	0.12101	7.83024	4.35268e+07	3.16511e+08	3.1949e+08	-82.1698	0.0000000E+000	0.0000000E+000	0.0000000E+000	82.1698	0.0000000E+000	0.0000000E+000	0.0000000E+000	-82.1698	0.0000000E+000	0.0000000E+000	0.0000000E+000	-7.83024	0.0000000E+000	0.0000000E+000	0.0000000E+000	7.83024	7.27163	82.1698	0.000000000000000E+000	-6.7302e-05	-9.76667e-10	-6.7301e-05	3.78394	212752	3.08739	212749
0.00796479	10.5839	1.77798	10.7322	-9.53599	20329.2	3.78403	0.00175891	1.12388e+07	308455	1	11	0.00507128	0.000472528	0	-0.026996	-0.000250295	2.60269e-07	-50.7958	0.000550802	0.000348154	0.000426815	-9.53793	10.7327	10.5843	1.77841	0.0918896	0.0154364	0.0931771	9.53599	3.08455e+08	1.83617e+09	1.8619e+09	-80.464	0.0000000E+000	0.0000000E+000	0.0000000E+000	80.464	0.0000000E+000	0.0000000E+000	0.0000000E+000	-80.464	0.0000000E+000	0.0000000E+000	0.0000000E+000	-9.53599	0.0000000E+000	0.0000000E+000	0.0000000E+000	9.53599	5.95279	80.464	-0.0233602	6.65574e-06	-4.40244e-10	6.65618e-06	3.78428	2.15135e+06	142.301	2.1515e+06
0.0019912	11.7743	2.6373	12.066	-12.6252	20329.2	3.78403	0.00175891	3.03072e+07	1.4479e+06	1	11	0.00508166	0.000421154	0	-0.026996	-0.000250295	9.30648e-07	-1.35266	0.00220975	0.00220914	5.21637e-05	-12.6232	12.0682	11.7765	2.63735	0.0808734	0.0181147	0.0828774	12.6252	1.4479e+09	6.46416e+09	6.62433e+09	-77.3748	0.0000000E+000	0.0000000E+000	0.0000000E+000	77.3748	0.0000000E+000	0.0000000E+000	0.0000000E+000	-77.3748	0.0000000E+000	0.0000000E+000	0.0000000E+000	-12.6252	0.0000000E+000	0.0000000E+000	0.0000000E+000	12.6252	4.46451	77.3748	0.000000000000000E+000	6.65574e-06	-4.40244e-10	6.65618e-06	3.78428	2.15135e+06	142.301	2.1515e+06
0.000497799	12.0192	6.74737	13.7837	-29.309	20329.2	3.78403	0.00175891	4.7384e+07	1.13546e+07	1	11	0.00508614	0.000368998	0	-0.026996	-0.000250295	5.07483e-06	10.7723	0.013753	0.0135107	-0.00257052	-29.2722	13.7942	12.0328	6.7448	0.0632628	0.0355145	0.0725497	29.309	1.13546e+10	2.02262e+10	2.31954e+10	-60.691	0.0000000E+000	0.0000000E+000	0.0000000E+000	60.691	0.0000000E+000	0.0000000E+000	0.0000000E+000	-60.691	0.0000000E+000	0.0000000E+000	0.0000000E+000	-29.309	0.0000000E+000	0.0000000E+000	0.0000000E+000	29.309	1.78132	60.691	0.000000000000000E+000	6.65574e-06	-4.40244e-10	6.65618e-06	3.78428	2.15135e+06	142.301	2.1515e+06
9.95598e-05	13.9507	34.3402	37.0658	-67.8905	20329.2	3.78403	0.00175891	4.65515e+07	3.9957e+07	1	11	0.0050817	0.0001371	0	-0.026996	-0.000250295	1.97487e-06	-52.8426	0.0144047	0.00870051	0.0114802	-67.8847	37.0797	13.9594	34.3517	0.0101543	0.0249952	0.0269791	67.8905	3.9957e+10	1.62326e+10	4.31284e+10	-22.1095	0.0000000E+000	0.0000000E+000	0.0000000E+000	22.1095	0.0000000E+000	0.0000000E+000	0.0000000E+000	-22.1095	0.0000000E+000	0.0000000E+000	0.0000000E+000	-67.8905	0.0000000E+000	0.0000000E+000	0.0000000E+000	67.8905	0.406251	22.1095	0.000000000000000E+000	6.65574e-06	-4.40244e-10	6.65618e-06	3.78428	2.15135e+06	142.301	2.1515e+06

File: 17231_R278_UC80_50SOC_C08.mpt
EC-Lab ASCII FILE
Nb header lines : 64

Potentio Electrochemical Impedance Spectroscopy

Run on channel : 8 (SN 65398)
User :
CE vs. WE compliance from -10 V to 10 V
Electrode connection : standard
Potential control : Ewe
Ewe ctrl range : min = -10.00 V, max = 10.00 V
Safety Limits :
	Do not start on E overload
Acquisition started on : 09/02/2025 16:42:45.432
Loaded Setting File :  C:\Users\Celltest\OneDrive - store-dot.com\Documents\EC-Lab\Data\Michael\R278\UC74_NCMA_16706_EIS_50_SOC.mps
Saved on :
	File : UC80_17231_EIS_50SOC_C08.mpr
	Directory : C:\Users\Celltest\OneDrive - store-dot.com\Documents\EC-Lab\Data\Michael\R278\
	Host : 169.254.61.224
Device : VMP-3e (SN .003165)
Address : USB
EC-LAB for windows v11.62 (software)
Internet server v27.00 (firmware)
Command interpretor v12.03 (firmware)
Electrode material :
Initial state :
Electrolyte :
Comments :
Electrode surface area : 0.001 cm²
Characteristic mass : 0.001 g
Equivalent Weight : 0.000 g/eq.
Density : 0.000 g/cm3
Volume (V) : 0.001 cm³
Record Ece
Cycle Definition : Charge/Discharge alternance
Mode                Multi sine
E (V)               0.0000
vs.                 Eoc
tE (h:m:s)          0:00:0.0000
record              0
dI                  0.000
unit dI             mA
dt (s)              0.000
fi                  1.000
unit fi             MHz
ff                  0.100
unit ff             mHz
Nd                  10
Points              per decade
spacing             Logarithmic
Va (mV)             5.0
pw                  0.10
Na                  2
corr                0
E range min (V)     -10.000
E range max (V)     10.000
I Range             Auto
Bandwidth           5
nc cycles           0
goto Ns'            0
nr cycles           0
inc. cycle          0

freq/Hz	Re(Z)/Ohm	-Im(Z)/Ohm	|Z|/Ohm	Phase(Z)/deg	time/s	<Ewe>/V	<I>/mA	Cs/µF	Cp/µF	cycle number	I Range	|Ewe|/V	|I|/A	Ns	(Q-Qo)/mA.h	<Ece>/V	|Ece|/V	Phase(Zce)/deg	|Zce|/Ohm	Re(Zce)/Ohm	-Im(Zce)/Ohm	Phase(Zwe-ce)/deg	|Zwe-ce|/Ohm	Re(Zwe-ce)/Ohm	-Im(Zwe-ce)/Ohm	Re(Y)/Ohm-1	Im(Y)/Ohm-1	|Y|/Ohm-1	Phase(Y)/deg	Re(C)/nF	Im(C)/nF	|C|/nF	Phase(C)/deg	Re(M)	Im(M)	|M|	Phase(M)/deg	Re(Permittivity)	Im(Permittivity)	|Permittivity|	Phase(Permittivity)/deg	Re(Resistivity)/Ohm.cm	Im(Resistivity)/Ohm.cm	|Resistivity|/Ohm.cm	Phase(Resistivity)/deg	Re(Conductivity)/mS/cm	Im(Conductivity)/mS/cm	|Conductivity|/mS/cm	Phase(Conductivity)/deg	Tan(Delta)	Loss Angle(Delta)/deg	dq/mA.h	Pwe/W	Pce/W	Pwe-ce/W	<Ewe-Ece>/V	Rwe/Ohm	Rce/Ohm	Rwe-ce/Ohm		Ewe-Ece/V
1.00002e+06	1.89172	3.16982	3.69139	-59.1716	2.23356	3.7858	0.00969818	0.0502085	0.0370226	1	10	0.000232826	6.30726e-05	0	-8.01361e-06	-3.1867e-05	0.000201817	-67.0948	3.19975	1.24537	2.94745	-62.8501	6.87476	3.13709	6.11727	0.138828	0.232624	0.270901	59.1716	37.0226	22.0948	43.1144	-30.8284	0.0000000E+000	0.0000000E+000	0.0000000E+000	30.8284	0.0000000E+000	0.0000000E+000	0.0000000E+000	-30.8284	0.0000000E+000	0.0000000E+000	0.0000000E+000	-59.1716	0.0000000E+000	0.0000000E+000	0.0000000E+000	59.1716	0.596791	30.8284	-8.01361e-06	3.67154e-05	-3.09052e-10	3.67157e-05	3.78583	390362	3.28587	390365
251206	0.790054	0.336342	0.858668	-23.0604	4.93652	3.7854	-0.0138368	1.88369	0.289015	1	9	0.00218001	0.00253883	0	-2.26249e-05	-7.00431e-05	8.04602e-05	91.766	0.0316918	-0.00097665	-0.0316768	-21.1117	0.845851	0.789077	0.304665	1.07153	0.456173	1.16459	23.0604	289.014	678.885	737.844	-66.9396	0.0000000E+000	0.0000000E+000	0.0000000E+000	66.9396	0.0000000E+000	0.0000000E+000	0.0000000E+000	-66.9396	0.0000000E+000	0.0000000E+000	0.0000000E+000	-23.0604	0.0000000E+000	0.0000000E+000	0.0000000E+000	23.0604	2.34896	66.9396	-3.02824e-06	-5.2378e-05	9.69174e-10	-5.23789e-05	3.78547	273575	5.06208	273580
63093.8	1.28801	0.895203	1.56855	-34.8005	7.23653	3.78533	-0.0120139	2.81781	0.917822	1	9	0.00531621	0.00338925	0	-5.46664e-06	-7.00431e-05	5.44356e-05	36.9848	0.0160613	0.0128297	-0.00966249	-34.245	1.57364	1.30083	0.88554	0.523506	0.363852	0.637532	34.8005	917.822	1320.55	1608.18	-55.1995	0.0000000E+000	0.0000000E+000	0.0000000E+000	55.1995	0.0000000E+000	0.0000000E+000	0.0000000E+000	-55.1995	0.0000000E+000	0.0000000E+000	0.0000000E+000	-34.8005	0.0000000E+000	0.0000000E+000	0.0000000E+000	34.8005	1.43879	55.1995	4.55738e-06	-4.54765e-05	8.41491e-10	-4.54774e-05	3.7854	315079	5.83017	315085
15847.7	2.47234	1.15377	2.72831	-25.0172	9.53456	3.78534	-0.00840532	8.7043	1.55664	1	9	0.00508455	0.00186363	0	-2.84819e-05	2.53972e-05	1.47756e-05	-61.6144	0.0079284	0.00376919	0.00697515	-25.1162	2.73468	2.47611	1.16075	0.332141	0.155001	0.366528	25.0172	1556.64	3335.62	3680.96	-64.9828	0.0000000E+000	0.0000000E+000	0.0000000E+000	64.9828	0.0000000E+000	0.0000000E+000	0.0000000E+000	-64.9828	0.0000000E+000	0.0000000E+000	0.0000000E+000	-25.0172	0.0000000E+000	0.0000000E+000	0.0000000E+000	25.0172	2.14283	64.9828	-2.6424e-06	-3.1817e-05	-2.13471e-10	-3.18168e-05	3.78531	450350	3.02156	450347
3983.6	3.38501	0.950478	3.51592	-15.6842	11.2571	3.78521	0.00242053	42.0341	3.07191	1	9	0.00541672	0.00154063	0	-3.06753e-05	8.26613e-05	5.82718e-06	87.252	0.00378235	0.00018134	-0.003778	-15.6241	3.51508	3.38519	0.9467	0.27383	0.0768889	0.28442	15.6842	3071.91	10940.2	11363.3	-74.3158	0.0000000E+000	0.0000000E+000	0.0000000E+000	74.3158	0.0000000E+000	0.0000000E+000	0.0000000E+000	-74.3158	0.0000000E+000	0.0000000E+000	0.0000000E+000	-15.6842	0.0000000E+000	0.0000000E+000	0.0000000E+000	15.6842	3.56138	74.3158	-5.91978e-07	9.1622e-06	2.00084e-10	9.162e-06	3.78513	1.5638e+06	34.1502	1.56376e+06
1000.32	4.15143	1.14012	4.30514	-15.3567	14.1309	3.78525	-0.0343387	139.55	9.78716	1	10	0.00533548	0.00123933	0	-5.57601e-05	0.000101749	1.74902e-05	-49.8421	0.0141126	0.00910119	0.0107859	-15.4628	4.31678	4.16053	1.15091	0.223987	0.0615142	0.23228	15.3567	9787.16	35637.2	36956.7	-74.6433	0.0000000E+000	0.0000000E+000	0.0000000E+000	74.6433	0.0000000E+000	0.0000000E+000	0.0000000E+000	-74.6433	0.0000000E+000	0.0000000E+000	0.0000000E+000	-15.3567	0.0000000E+000	0.0000000E+000	0.0000000E+000	15.3567	3.64122	74.6433	-3.70983e-06	-0.000129981	-3.49394e-09	-0.000129977	3.78515	110233	2.96311	110230
251.044	5.48146	1.3761	5.65156	-14.0927	16.832	3.78525	-0.0341639	460.7	27.314	1	10	0.00526108	0.000930908	0	-7.91426e-05	-0.000127307	2.89732e-06	151.572	0.00311236	-0.00273705	-0.00148166	-14.0849	5.64854	5.47872	1.37462	0.171617	0.0430839	0.176942	14.0927	27314	108800	112176	-75.9073	0.0000000E+000	0.0000000E+000	0.0000000E+000	75.9073	0.0000000E+000	0.0000000E+000	0.0000000E+000	-75.9073	0.0000000E+000	0.0000000E+000	0.0000000E+000	-14.0927	0.0000000E+000	0.0000000E+000	0.0000000E+000	14.0927	3.98332	75.9073	-3.76499e-06	-0.000129319	4.34931e-09	-0.000129323	3.78538	110797	3.72637	110801
63.0823	6.63899	0.787557	6.68554	-6.76516	19.552	3.78525	-0.0320696	3203.54	44.4551	1	10	0.00524206	0.00078409	0	-0.000101909	-0.000260924	1.89505e-05	119.732	0.0241687	-0.0119863	-0.020987	-6.59829	6.67119	6.627	0.76657	0.148535	0.0176201	0.149577	6.76516	44455.1	374750	377378	-83.2348	0.0000000E+000	0.0000000E+000	0.0000000E+000	83.2348	0.0000000E+000	0.0000000E+000	0.0000000E+000	-83.2348	0.0000000E+000	0.0000000E+000	0.0000000E+000	-6.76516	0.0000000E+000	0.0000000E+000	0.0000000E+000	6.76516	8.42985	83.2348	-4.47086e-06	-0.000121391	8.36771e-09	-0.0001214	3.78551	118033	8.13618	118041
[...]
0.0602816	7.95345	1.02658	8.01943	-7.35471	240.305	3.78527	-0.023052	2.57183e+06	42144.5	1	11	0.005218	0.00065067	0	-0.00432326	0.000101749	9.05761e-07	-25.946	0.00139204	0.00125173	0.000609053	-7.35788	8.02075	7.9547	1.02719	0.123671	0.0159627	0.124697	7.35471	4.21446e+07	3.26515e+08	3.29224e+08	-82.6453	0.0000000E+000	0.0000000E+000	0.0000000E+000	82.6453	0.0000000E+000	0.0000000E+000	0.0000000E+000	-82.6453	0.0000000E+000	0.0000000E+000	0.0000000E+000	-7.35471	0.0000000E+000	0.0000000E+000	0.0000000E+000	7.35471	7.74752	82.6453	0.000000000000000E+000	-8.7258e-05	-2.34552e-09	-8.72557e-05	3.78517	164206	4.41391	164202
0.00796479	10.4702	1.85877	10.634	-10.0668	20329.2	3.78526	0.00229012	1.07503e+07	328460	1	11	0.00521248	0.000490172	0	-0.0248698	0.000139925	3.48235e-07	-23.4398	0.000710434	0.000651808	0.0002826	-10.0677	10.6347	10.4709	1.85906	0.0925906	0.0164375	0.0940383	10.0668	3.2846e+08	1.85018e+09	1.8791e+09	-79.9332	0.0000000E+000	0.0000000E+000	0.0000000E+000	79.9332	0.0000000E+000	0.0000000E+000	0.0000000E+000	-79.9332	0.0000000E+000	0.0000000E+000	0.0000000E+000	-10.0668	0.0000000E+000	0.0000000E+000	0.0000000E+000	10.0668	5.63288	79.9332	-0.0205465	8.66872e-06	3.20446e-10	8.6684e-06	3.78512	1.65287e+06	61.0996	1.6528e+06
0.0019912	11.7042	2.67361	12.0056	-12.8674	20329.2	3.78526	0.00229012	2.98957e+07	1.48263e+06	1	11	0.00522648	0.000435335	0	-0.0248698	0.000139925	1.10692e-06	-47.9428	0.00254269	0.00170328	0.00188789	-12.8744	12.0077	11.7059	2.6755	0.0812025	0.0185493	0.0832942	12.8674	1.48263e+09	6.49046e+09	6.65765e+09	-77.1326	0.0000000E+000	0.0000000E+000	0.0000000E+000	77.1326	0.0000000E+000	0.0000000E+000	0.0000000E+000	-77.1326	0.0000000E+000	0.0000000E+000	0.0000000E+000	-12.8674	0.0000000E+000	0.0000000E+000	0.0000000E+000	12.8674	4.37766	77.1326	0.000000000000000E+000	8.66872e-06	3.20446e-10	8.6684e-06	3.78512	1.65287e+06	61.0996	1.6528e+06
0.000497799	12.0064	7.02454	13.9103	-30.3305	20329.2	3.78526	0.00229012	4.55144e+07	1.16067e+07	1	11	0.0052227	0.000375455	0	-0.0248698	0.000139925	5.86911e-06	19.9426	0.015632	0.0146946	-0.00533172	-30.2811	13.9203	12.0211	7.0192	0.0620494	0.0363031	0.0718891	30.3305	1.16067e+10	1.98383e+10	2.29842e+10	-59.6695	0.0000000E+000	0.0000000E+000	0.0000000E+000	59.6695	0.0000000E+000	0.0000000E+000	0.0000000E+000	-59.6695	0.0000000E+000	0.0000000E+000	0.0000000E+000	-30.3305	0.0000000E+000	0.0000000E+000	0.0000000E+000	30.3305	1.7092	59.6695	0.000000000000000E+000	8.66872e-06	3.20446e-10	8.6684e-06	3.78512	1.65287e+06	61.0996	1.6528e+06
9.95598e-05	14.0843	36.2542	38.8939	-68.7695	20329.2	3.78526	0.00229012	4.40938e+07	3.83117e+07	1	11	0.00522809	0.000134419	0	-0.0248698	0.000139925	3.60156e-06	-70.5035	0.0267935	0.0089423	0.0252572	-68.7707	38.9207	14.0932	36.2795	0.00931047	0.023966	0.025711	68.7695	3.83117e+10	1.48836e+10	4.11012e+10	-21.2305	0.0000000E+000	0.0000000E+000	0.0000000E+000	21.2305	0.0000000E+000	0.0000000E+000	0.0000000E+000	-21.2305	0.0000000E+000	0.0000000E+000	0.0000000E+000	-68.7695	0.0000000E+000	0.0000000E+000	0.0000000E+000	68.7695	0.388487	21.2305	0.000000000000000E+000	8.66872e-06	3.20446e-10	8.6684e-06	3.78512	1.65287e+06	61.0996	1.6528e+06