Folder: EIS/txt (part 18)

File: 17397_R279_UA651_SOC00_C03.mpt
EC-Lab ASCII FILE
Nb header lines : 63

Potentio Electrochemical Impedance Spectroscopy

Run on channel : 3 (SN 65921)
User :
CE vs. WE compliance from -10 V to 10 V
Electrode connection : standard
Potential control : Ewe
Ewe ctrl range : min = -10.00 V, max = 10.00 V
Safety Limits :
	Do not start on E overload
Acquisition started on : 09/11/2025 15:38:34.165
Loaded Setting File :  C:\Users\Celltest\OneDrive - store-dot.com\Documents\EC-Lab\Data\Charmaine\R279\17382_C01.mpr
Saved on :
	File : 17397_C03.mpr
	Directory : C:\Users\Celltest\OneDrive - store-dot.com\Documents\EC-Lab\Data\Charmaine\R279\
	Host : 169.254.61.224
Device : VMP-3e (SN .003165)
Address : USB
EC-LAB for windows v11.62 (software)
Internet server v27.00 (firmware)
Command interpretor v12.03 (firmware)
Electrode material :
Initial state :
Electrolyte :
Comments :
Electrode surface area : 0.001 cm²
Characteristic mass : 0.001 g
Equivalent Weight : 0.000 g/eq.
Density : 0.000 g/cm3
Volume (V) : 0.001 cm³
Cycle Definition : Charge/Discharge alternance
Mode                Single sine
E (V)               0.0000
vs.                 Eoc
tE (h:m:s)          0:00:0.0000
record              0
dI                  0.000
unit dI             mA
dt (s)              0.000
fi                  100.000
unit fi             kHz
ff                  10.000
unit ff             mHz
Nd                  6
Points              per decade
spacing             Logarithmic
Va (mV)             5.0
pw                  0.10
Na                  2
corr                0
E range min (V)     -10.000
E range max (V)     10.000
I Range             Auto
Bandwidth           5
nc cycles           0
goto Ns'            0
nr cycles           0
inc. cycle          0

freq/Hz	Re(Z)/Ohm	-Im(Z)/Ohm	|Z|/Ohm	Phase(Z)/deg	time/s	<Ewe>/V	<I>/mA	Cs/µF	Cp/µF	cycle number	I Range	|Ewe|/V	|I|/A	Ns	(Q-Qo)/mA.h	Re(Y)/Ohm-1	Im(Y)/Ohm-1	|Y|/Ohm-1	Phase(Y)/deg	Re(C)/nF	Im(C)/nF	|C|/nF	Phase(C)/deg	Re(M)	Im(M)	|M|	Phase(M)/deg	Re(Permittivity)	Im(Permittivity)	|Permittivity|	Phase(Permittivity)/deg	Re(Resistivity)/Ohm.cm	Im(Resistivity)/Ohm.cm	|Resistivity|/Ohm.cm	Phase(Resistivity)/deg	Re(Conductivity)/mS/cm	Im(Conductivity)/mS/cm	|Conductivity|/mS/cm	Phase(Conductivity)/deg	Tan(Delta)	Loss Angle(Delta)/deg	dq/mA.h	Pwe/W	Rwe/Ohm
100004	2.63237	0.853749	2.76736	-17.9693	2.02547	0.246404	0.00998824	1.86412	0.17742	1	9	0.00494136	0.00178559	0	-5.05963e-06	0.343729	0.111481	0.361355	17.9693	177.42	547.042	575.093	-72.0307	0.0000000E+000	0.0000000E+000	0.0000000E+000	72.0307	0.0000000E+000	0.0000000E+000	0.0000000E+000	-72.0307	0.0000000E+000	0.0000000E+000	0.0000000E+000	-17.9693	0.0000000E+000	0.0000000E+000	0.0000000E+000	17.9693	3.08331	72.0307	-5.05963e-06	2.46115e-06	24669.4
46420.4	3.0522	0.954498	3.19797	-17.3657	2.89948	0.246403	0.0147805	3.592	0.319991	1	9	0.00542579	0.00169664	0	-1.46725e-06	0.298445	0.0933312	0.312699	17.3657	319.991	1023.24	1072.11	-72.6343	0.0000000E+000	0.0000000E+000	0.0000000E+000	72.6343	0.0000000E+000	0.0000000E+000	0.0000000E+000	-72.6343	0.0000000E+000	0.0000000E+000	0.0000000E+000	-17.3657	0.0000000E+000	0.0000000E+000	0.0000000E+000	17.3657	3.1977	72.6343	2.30336e-06	3.64195e-06	16670.8
21544.7	3.50997	1.09246	3.67605	-17.2885	3.77348	0.246407	0.0203372	6.76198	0.597204	1	9	0.00532106	0.00144749	0	6.75868e-06	0.259741	0.080843	0.272031	17.2885	597.204	1918.76	2009.55	-72.7115	0.0000000E+000	0.0000000E+000	0.0000000E+000	72.7115	0.0000000E+000	0.0000000E+000	0.0000000E+000	-72.7115	0.0000000E+000	0.0000000E+000	0.0000000E+000	-17.2885	0.0000000E+000	0.0000000E+000	0.0000000E+000	17.2885	3.2129	72.7115	2.84167e-06	5.01122e-06	12116.1
10002.2	4.03238	1.29675	4.23576	-17.8269	4.64848	0.246404	0.0182301	12.2707	1.15005	1	9	0.00501907	0.00118493	0	1.16375e-05	0.22475	0.0722757	0.236085	17.8269	1150.05	3576.2	3756.57	-72.1731	0.0000000E+000	0.0000000E+000	0.0000000E+000	72.1731	0.0000000E+000	0.0000000E+000	0.0000000E+000	-72.1731	0.0000000E+000	0.0000000E+000	0.0000000E+000	-17.8269	0.0000000E+000	0.0000000E+000	0.0000000E+000	17.8269	3.10961	72.1731	1.02685e-06	4.49198e-06	13516.3
4641.49	4.61857	1.61831	4.89389	-19.31	5.7067	0.246472	-0.0134563	21.1886	2.31695	1	10	0.00517164	0.00105675	0	9.24473e-06	0.192841	0.0675699	0.204336	19.31	2316.95	6612.46	7006.63	-70.69	0.0000000E+000	0.0000000E+000	0.0000000E+000	70.69	0.0000000E+000	0.0000000E+000	0.0000000E+000	-70.69	0.0000000E+000	0.0000000E+000	0.0000000E+000	-19.31	0.0000000E+000	0.0000000E+000	0.0000000E+000	19.31	2.85395	70.69	-2.28664e-06	-3.3166e-06	18316.5
2155.69	5.37475	2.1092	5.77379	-21.4265	6.64068	0.246467	-0.0131356	35.0038	4.67122	1	10	0.00516116	0.000893895	0	6.20497e-06	0.161226	0.0632699	0.173197	21.4265	4671.23	11903.4	12787.1	-68.5735	0.0000000E+000	0.0000000E+000	0.0000000E+000	68.5735	0.0000000E+000	0.0000000E+000	0.0000000E+000	-68.5735	0.0000000E+000	0.0000000E+000	0.0000000E+000	-21.4265	0.0000000E+000	0.0000000E+000	0.0000000E+000	21.4265	2.54823	68.5735	-1.00356e-06	-3.23749e-06	18763.2
1000.32	6.38895	2.84522	6.99385	-24.0051	7.57667	0.246463	-0.0131188	55.9197	9.25475	1	10	0.00506592	0.000724339	0	2.82921e-06	0.130616	0.058168	0.142983	24.0051	9254.75	20781.5	22749.1	-65.9949	0.0000000E+000	0.0000000E+000	0.0000000E+000	65.9949	0.0000000E+000	0.0000000E+000	0.0000000E+000	-65.9949	0.0000000E+000	0.0000000E+000	0.0000000E+000	-24.0051	0.0000000E+000	0.0000000E+000	0.0000000E+000	24.0051	2.2455	65.9949	-1.30772e-06	-3.23331e-06	18786.9
463.961	7.8279	3.90589	8.74826	-26.5178	8.51119	0.246454	-0.0121493	87.8251	17.5072	1	10	0.00500202	0.000571773	0	-3.29761e-07	0.102283	0.051036	0.114308	26.5178	17507.2	35086.6	39211.8	-63.4822	0.0000000E+000	0.0000000E+000	0.0000000E+000	63.4822	0.0000000E+000	0.0000000E+000	0.0000000E+000	-63.4822	0.0000000E+000	0.0000000E+000	0.0000000E+000	-26.5178	0.0000000E+000	0.0000000E+000	0.0000000E+000	26.5178	2.00413	63.4822	-1.32665e-06	-2.99426e-06	20285.4
215.345	10.0335	5.23513	11.3171	-27.5541	9.44543	0.246457	-0.0121997	141.175	30.2094	1	10	0.00498298	0.000440305	0	-3.13369e-06	0.0783393	0.0408749	0.0883618	27.5541	30209.4	57898.3	65305.6	-62.4459	0.0000000E+000	0.0000000E+000	0.0000000E+000	62.4459	0.0000000E+000	0.0000000E+000	0.0000000E+000	-62.4459	0.0000000E+000	0.0000000E+000	0.0000000E+000	-27.5541	0.0000000E+000	0.0000000E+000	0.0000000E+000	27.5541	1.91656	62.4459	-1.6127e-06	-3.00669e-06	20201.9
100.032	13.2469	6.36139	14.6951	-25.6512	10.3767	0.246458	-0.0121326	250.109	46.869	1	10	0.00497341	0.000338439	0	-6.42383e-06	0.0613431	0.0294581	0.0680497	25.6512	46869	97599.4	108270	-64.3488	0.0000000E+000	0.0000000E+000	0.0000000E+000	64.3488	0.0000000E+000	0.0000000E+000	0.0000000E+000	-64.3488	0.0000000E+000	0.0000000E+000	0.0000000E+000	-25.6512	0.0000000E+000	0.0000000E+000	0.0000000E+000	25.6512	2.08239	64.3488	-1.65962e-06	-2.99017e-06	20313.8
46.4415	17.2558	6.50785	18.4422	-20.6635	11.3095	0.246446	-0.012677	526.594	65.5733	1	10	0.00497115	0.000269554	0	-9.60628e-06	0.0507353	0.0191344	0.0542236	20.6635	65573.3	173870	185824	-69.3365	0.0000000E+000	0.0000000E+000	0.0000000E+000	69.3365	0.0000000E+000	0.0000000E+000	0.0000000E+000	-69.3365	0.0000000E+000	0.0000000E+000	0.0000000E+000	-20.6635	0.0000000E+000	0.0000000E+000	0.0000000E+000	20.6635	2.65153	69.3365	-1.69445e-06	-3.12418e-06	19440.4
[...]
1.00006	25.7293	2.49694	25.8502	-5.54299	20.6361	0.246493	-0.0125805	63735.9	594.665	1	12	0.00496564	0.000192093	0	-5.22847e-05	0.0385035	0.00373663	0.0386844	5.54299	594665	6.12763e+06	6.15642e+06	-84.457	0.0000000E+000	0.0000000E+000	0.0000000E+000	84.457	0.0000000E+000	0.0000000E+000	0.0000000E+000	-84.457	0.0000000E+000	0.0000000E+000	0.0000000E+000	-5.54299	0.0000000E+000	0.0000000E+000	0.0000000E+000	5.54299	10.3043	84.457	-1.34876e-05	-3.10101e-06	19593.2
0.464091	26.9031	2.78019	27.0463	-5.90006	28.3205	0.24648	-0.0117996	123351	1303.39	1	12	0.00496892	0.000183719	0	-6.00906e-05	0.0367777	0.00380065	0.0369736	5.90006	1.30339e+06	1.26125e+07	1.26797e+07	-84.0999	0.0000000E+000	0.0000000E+000	0.0000000E+000	84.0999	0.0000000E+000	0.0000000E+000	0.0000000E+000	-84.0999	0.0000000E+000	0.0000000E+000	0.0000000E+000	-5.90006	0.0000000E+000	0.0000000E+000	0.0000000E+000	5.90006	9.67669	84.0999	-2.69796e-06	-2.90838e-06	20888.8
0.215268	28.2564	3.23207	28.4407	-6.52532	44.7996	0.246498	-0.00810517	228750	2954.21	1	12	0.00497332	0.000174866	0	-8.55052e-05	0.0349331	0.00399577	0.0351609	6.52532	2.95421e+06	2.58273e+07	2.59957e+07	-83.4747	0.0000000E+000	0.0000000E+000	0.0000000E+000	83.4747	0.0000000E+000	0.0000000E+000	0.0000000E+000	-83.4747	0.0000000E+000	0.0000000E+000	0.0000000E+000	-6.52532	0.0000000E+000	0.0000000E+000	0.0000000E+000	6.52532	8.74253	83.4747	-1.93677e-05	-1.99791e-06	30412.5
0.0999041	29.7696	4.03748	30.0421	-7.72358	80.2061	0.246498	-0.00460699	394572	7126.66	1	12	0.00497084	0.000165462	0	-0.000202934	0.0329846	0.00447352	0.0332866	7.72358	7.12666e+06	5.25471e+07	5.30281e+07	-82.2764	0.0000000E+000	0.0000000E+000	0.0000000E+000	82.2764	0.0000000E+000	0.0000000E+000	0.0000000E+000	-82.2764	0.0000000E+000	0.0000000E+000	0.0000000E+000	-7.72358	0.0000000E+000	0.0000000E+000	0.0000000E+000	7.72358	7.37331	82.2764	-7.37487e-05	-1.13561e-06	53505.3
0.0464052	31.6406	5.21509	32.0675	-9.35951	156.442	0.246495	-0.00357352	657645	17393.4	1	12	0.00496892	0.000154952	0	-0.000406081	0.0307691	0.00507145	0.0311842	9.35951	1.73934e+07	1.05528e+08	1.06952e+08	-80.6405	0.0000000E+000	0.0000000E+000	0.0000000E+000	80.6405	0.0000000E+000	0.0000000E+000	0.0000000E+000	-80.6405	0.0000000E+000	0.0000000E+000	0.0000000E+000	-9.35951	0.0000000E+000	0.0000000E+000	0.0000000E+000	9.35951	6.06712	80.6405	-0.000105906	-8.80854e-07	68978.2
0.0215268	33.357	7.85635	34.2696	-13.253	320.672	0.246496	-0.00262507	941067	49458.7	1	12	0.00496977	0.00014502	0	-0.000431949	0.0284032	0.00668962	0.0291803	13.253	4.94586e+07	2.09995e+08	2.1574e+08	-76.747	0.0000000E+000	0.0000000E+000	0.0000000E+000	76.747	0.0000000E+000	0.0000000E+000	0.0000000E+000	-76.747	0.0000000E+000	0.0000000E+000	0.0000000E+000	-13.253	0.0000000E+000	0.0000000E+000	0.0000000E+000	13.253	4.24586	76.747	3.95674e-05	-6.4707e-07	93900.6
0.0100092	35.8669	12.6146	38.0205	-19.3771	673.886	0.246495	-0.000487873	1.26052e+06	138759	1	12	0.00496951	0.000130706	0	6.07544e-05	0.0248117	0.00872645	0.0263016	19.3771	1.38758e+08	3.94529e+08	4.18219e+08	-70.6229	0.0000000E+000	0.0000000E+000	0.0000000E+000	70.6229	0.0000000E+000	0.0000000E+000	0.0000000E+000	-70.6229	0.0000000E+000	0.0000000E+000	0.0000000E+000	-19.3771	0.0000000E+000	0.0000000E+000	0.0000000E+000	19.3771	2.84328	70.6229	0.000301506	-1.20258e-07	505245

File: 17398_R279_UA651_SOC00_C04.mpt
EC-Lab ASCII FILE
Nb header lines : 63

Potentio Electrochemical Impedance Spectroscopy

Run on channel : 4 (SN 66756)
User :
CE vs. WE compliance from -10 V to 10 V
Electrode connection : standard
Potential control : Ewe
Ewe ctrl range : min = -10.00 V, max = 10.00 V
Safety Limits :
	Do not start on E overload
Acquisition started on : 09/11/2025 15:38:39.795
Loaded Setting File :  C:\Users\Celltest\OneDrive - store-dot.com\Documents\EC-Lab\Data\Charmaine\R279\17382.mps
Saved on :
	File : 17398_C04.mpr
	Directory : C:\Users\Celltest\OneDrive - store-dot.com\Documents\EC-Lab\Data\Charmaine\R279\
	Host : 169.254.61.224
Device : VMP-3e (SN .003165)
Address : USB
EC-LAB for windows v11.62 (software)
Internet server v27.00 (firmware)
Command interpretor v12.03 (firmware)
Electrode material :
Initial state :
Electrolyte :
Comments :
Electrode surface area : 0.001 cm²
Characteristic mass : 0.001 g
Equivalent Weight : 0.000 g/eq.
Density : 0.000 g/cm3
Volume (V) : 0.001 cm³
Cycle Definition : Charge/Discharge alternance
Mode                Single sine
E (V)               0.0000
vs.                 Eoc
tE (h:m:s)          0:00:0.0000
record              0
dI                  0.000
unit dI             mA
dt (s)              0.000
fi                  100.000
unit fi             kHz
ff                  10.000
unit ff             mHz
Nd                  6
Points              per decade
spacing             Logarithmic
Va (mV)             5.0
pw                  0.10
Na                  2
corr                0
E range min (V)     -10.000
E range max (V)     10.000
I Range             Auto
Bandwidth           5
nc cycles           0
goto Ns'            0
nr cycles           0
inc. cycle          0

freq/Hz	Re(Z)/Ohm	-Im(Z)/Ohm	|Z|/Ohm	Phase(Z)/deg	time/s	<Ewe>/V	<I>/mA	Cs/µF	Cp/µF	cycle number	I Range	|Ewe|/V	|I|/A	Ns	(Q-Qo)/mA.h	Re(Y)/Ohm-1	Im(Y)/Ohm-1	|Y|/Ohm-1	Phase(Y)/deg	Re(C)/nF	Im(C)/nF	|C|/nF	Phase(C)/deg	Re(M)	Im(M)	|M|	Phase(M)/deg	Re(Permittivity)	Im(Permittivity)	|Permittivity|	Phase(Permittivity)/deg	Re(Resistivity)/Ohm.cm	Im(Resistivity)/Ohm.cm	|Resistivity|/Ohm.cm	Phase(Resistivity)/deg	Re(Conductivity)/mS/cm	Im(Conductivity)/mS/cm	|Conductivity|/mS/cm	Phase(Conductivity)/deg	Tan(Delta)	Loss Angle(Delta)/deg	dq/mA.h	Pwe/W	Rwe/Ohm
100004	2.25414	0.777519	2.38447	-19.0308	1.86548	0.233809	-0.0757548	2.04688	0.217637	1	9	0.00463004	0.00194175	0	-1.88839e-05	0.396459	0.13675	0.419381	19.0308	217.637	630.961	667.441	-70.9692	0.0000000E+000	0.0000000E+000	0.0000000E+000	70.9692	0.0000000E+000	0.0000000E+000	0.0000000E+000	-70.9692	0.0000000E+000	0.0000000E+000	0.0000000E+000	-19.0308	0.0000000E+000	0.0000000E+000	0.0000000E+000	19.0308	2.89914	70.9692	-1.88839e-05	-1.77121e-05	3086.39
46420.4	2.63657	0.883077	2.78053	-18.5175	3.02249	0.233809	-0.0713537	3.88251	0.391612	1	9	0.00504927	0.00181594	0	-4.25408e-05	0.341024	0.114221	0.359644	18.5175	391.612	1169.22	1233.06	-71.4825	0.0000000E+000	0.0000000E+000	0.0000000E+000	71.4825	0.0000000E+000	0.0000000E+000	0.0000000E+000	-71.4825	0.0000000E+000	0.0000000E+000	0.0000000E+000	-18.5175	0.0000000E+000	0.0000000E+000	0.0000000E+000	18.5175	2.98566	71.4825	-8.48248e-06	-1.66831e-05	3276.76
21544.7	3.04798	1.06432	3.22846	-19.2486	3.89649	0.233819	-0.0718945	6.94077	0.75433	1	9	0.00518414	0.00160576	0	-5.82522e-05	0.29243	0.102113	0.309745	19.2486	754.331	2160.24	2288.15	-70.7514	0.0000000E+000	0.0000000E+000	0.0000000E+000	70.7514	0.0000000E+000	0.0000000E+000	0.0000000E+000	-70.7514	0.0000000E+000	0.0000000E+000	0.0000000E+000	-19.2486	0.0000000E+000	0.0000000E+000	0.0000000E+000	19.2486	2.86378	70.7514	-7.99517e-06	-1.68103e-05	3252.24
10002.2	3.55424	1.31316	3.78906	-20.2774	4.62949	0.23383	-0.0756056	12.1173	1.45538	1	9	0.00502977	0.00132744	0	-7.11289e-05	0.247562	0.0914648	0.263918	20.2774	1455.38	3939.19	4199.45	-69.7226	0.0000000E+000	0.0000000E+000	0.0000000E+000	69.7226	0.0000000E+000	0.0000000E+000	0.0000000E+000	-69.7226	0.0000000E+000	0.0000000E+000	0.0000000E+000	-20.2774	0.0000000E+000	0.0000000E+000	0.0000000E+000	20.2774	2.70663	69.7226	-4.71669e-06	-1.76789e-05	3092.76
4641.49	4.20202	1.71169	4.53727	-22.1635	5.68871	0.233878	-0.0296441	20.0326	2.85101	1	10	0.00501728	0.00110579	0	-7.94688e-05	0.204112	0.0831448	0.220397	22.1635	2851.01	6998.92	7557.33	-67.8365	0.0000000E+000	0.0000000E+000	0.0000000E+000	67.8365	0.0000000E+000	0.0000000E+000	0.0000000E+000	-67.8365	0.0000000E+000	0.0000000E+000	0.0000000E+000	-22.1635	0.0000000E+000	0.0000000E+000	0.0000000E+000	22.1635	2.4549	67.8365	-3.08517e-06	-6.93311e-06	7889.55
2155.69	5.01052	2.2769	5.5036	-24.4382	6.62269	0.233875	-0.0293046	32.4257	5.54988	1	10	0.00492488	0.000894847	0	-8.68338e-05	0.16542	0.075171	0.181699	24.4382	5549.88	12213	13414.9	-65.5618	0.0000000E+000	0.0000000E+000	0.0000000E+000	65.5618	0.0000000E+000	0.0000000E+000	0.0000000E+000	-65.5618	0.0000000E+000	0.0000000E+000	0.0000000E+000	-24.4382	0.0000000E+000	0.0000000E+000	0.0000000E+000	24.4382	2.20059	65.5618	-4.08119e-06	-6.85363e-06	7980.83
1000.32	6.10401	3.11644	6.85355	-27.0469	7.55869	0.233917	-0.0281446	51.0531	10.5562	1	10	0.00482696	0.000704301	0	-9.40211e-05	0.129952	0.0663481	0.14591	27.0469	10556.2	20675.9	23214.8	-62.9531	0.0000000E+000	0.0000000E+000	0.0000000E+000	62.9531	0.0000000E+000	0.0000000E+000	0.0000000E+000	-62.9531	0.0000000E+000	0.0000000E+000	0.0000000E+000	-27.0469	0.0000000E+000	0.0000000E+000	0.0000000E+000	27.0469	1.95865	62.9531	-4.13184e-06	-6.5835e-06	8311.28
463.961	7.68374	4.32877	8.81919	-29.3955	8.49321	0.233881	-0.0277063	79.2455	19.0918	1	10	0.00476904	0.000540757	0	-0.000101258	0.0987905	0.0556554	0.113389	29.3955	19091.8	33888.7	38896.5	-60.6045	0.0000000E+000	0.0000000E+000	0.0000000E+000	60.6045	0.0000000E+000	0.0000000E+000	0.0000000E+000	-60.6045	0.0000000E+000	0.0000000E+000	0.0000000E+000	-29.3955	0.0000000E+000	0.0000000E+000	0.0000000E+000	29.3955	1.77504	60.6045	-3.63104e-06	-6.47998e-06	8441.46
215.345	10.1541	5.8916	11.7395	-30.1231	9.42743	0.233906	-0.0278853	125.445	31.5949	1	10	0.00475286	0.000404859	0	-0.000108893	0.0736783	0.0427494	0.0851822	30.1231	31594.9	54453.5	62955.7	-59.8769	0.0000000E+000	0.0000000E+000	0.0000000E+000	59.8769	0.0000000E+000	0.0000000E+000	0.0000000E+000	-59.8769	0.0000000E+000	0.0000000E+000	0.0000000E+000	-30.1231	0.0000000E+000	0.0000000E+000	0.0000000E+000	30.1231	1.72349	59.8769	-3.75684e-06	-6.52255e-06	8388.15
100.032	13.8341	7.16582	15.5798	-27.3834	10.3587	0.233883	-0.027434	222.032	46.9702	1	10	0.00473861	0.000304151	0	-0.00011551	0.0569936	0.0295217	0.0641857	27.3834	46970.2	90679.1	102122	-62.6166	0.0000000E+000	0.0000000E+000	0.0000000E+000	62.6166	0.0000000E+000	0.0000000E+000	0.0000000E+000	-62.6166	0.0000000E+000	0.0000000E+000	0.0000000E+000	-27.3834	0.0000000E+000	0.0000000E+000	0.0000000E+000	27.3834	1.93056	62.6166	-3.21968e-06	-6.41633e-06	8525.3
46.4415	18.4605	7.23394	19.8273	-21.3983	11.5396	0.233889	-0.0239229	473.738	63.0613	1	11	0.00475043	0.000239591	0	-0.000123545	0.0469589	0.0184014	0.0504356	21.3983	63061.3	160928	172843	-68.6017	0.0000000E+000	0.0000000E+000	0.0000000E+000	68.6017	0.0000000E+000	0.0000000E+000	0.0000000E+000	-68.6017	0.0000000E+000	0.0000000E+000	0.0000000E+000	-21.3983	0.0000000E+000	0.0000000E+000	0.0000000E+000	21.3983	2.55193	68.6017	-4.83705e-06	-5.59532e-06	9776.79
[...]
1.00006	27.224	2.74457	27.362	-5.75678	20.6202	0.233956	-0.0184911	57985.3	583.405	1	12	0.00473578	0.000173079	0	-0.000167375	0.0363627	0.00366588	0.036547	5.75678	583405	5.78693e+06	5.81626e+06	-84.2432	0.0000000E+000	0.0000000E+000	0.0000000E+000	84.2432	0.0000000E+000	0.0000000E+000	0.0000000E+000	-84.2432	0.0000000E+000	0.0000000E+000	0.0000000E+000	-5.75678	0.0000000E+000	0.0000000E+000	0.0000000E+000	5.75678	9.91923	84.2432	-1.08177e-05	-4.32609e-06	12652.4
0.464091	28.6078	2.97472	28.762	-5.93645	28.3055	0.233946	-0.0156028	115285	1233.17	1	12	0.00475547	0.000165338	0	-0.000210739	0.0345816	0.00359589	0.034768	5.93645	1.23317e+06	1.18594e+07	1.19233e+07	-84.0636	0.0000000E+000	0.0000000E+000	0.0000000E+000	84.0636	0.0000000E+000	0.0000000E+000	0.0000000E+000	-84.0636	0.0000000E+000	0.0000000E+000	0.0000000E+000	-5.93645	0.0000000E+000	0.0000000E+000	0.0000000E+000	5.93645	9.61697	84.0636	-2.83242e-05	-3.6502e-06	14993.8
0.215268	29.9927	3.35506	30.1798	-6.38273	44.7838	0.233932	-0.0129603	220364	2723.39	1	12	0.00474338	0.000157171	0	-0.000305941	0.0329294	0.00368357	0.0331348	6.38273	2.72339e+06	2.43458e+07	2.44977e+07	-83.6173	0.0000000E+000	0.0000000E+000	0.0000000E+000	83.6173	0.0000000E+000	0.0000000E+000	0.0000000E+000	-83.6173	0.0000000E+000	0.0000000E+000	0.0000000E+000	-6.38273	0.0000000E+000	0.0000000E+000	0.0000000E+000	6.38273	8.93953	83.6173	-5.24691e-05	-3.03182e-06	18049.9
0.0999041	31.5816	4.26353	31.8681	-7.68847	80.1893	0.233942	-0.0100895	373652	6687.96	1	12	0.00474269	0.000148823	0	-0.000397751	0.0310973	0.00419814	0.0313794	7.68847	6.68796e+06	4.95403e+07	4.99897e+07	-82.3115	0.0000000E+000	0.0000000E+000	0.0000000E+000	82.3115	0.0000000E+000	0.0000000E+000	0.0000000E+000	-82.3115	0.0000000E+000	0.0000000E+000	0.0000000E+000	-7.68847	0.0000000E+000	0.0000000E+000	0.0000000E+000	7.68847	7.40739	82.3115	-3.97077e-05	-2.36036e-06	23186.6
0.0464052	33.2979	5.33627	33.7228	-9.10471	156.426	0.233948	-0.0055617	642711	16093.3	1	12	0.00474155	0.000140604	0	-0.000414432	0.0292799	0.00469235	0.0296535	9.10471	1.60933e+07	1.00421e+08	1.01702e+08	-80.8953	0.0000000E+000	0.0000000E+000	0.0000000E+000	80.8953	0.0000000E+000	0.0000000E+000	0.0000000E+000	-80.8953	0.0000000E+000	0.0000000E+000	0.0000000E+000	-9.10471	0.0000000E+000	0.0000000E+000	0.0000000E+000	9.10471	6.23992	80.8953	5.59379e-06	-1.30115e-06	42064.1
0.0215268	35.3048	7.92901	36.1842	-12.6579	320.656	0.233938	-0.00105513	932442	44773.5	1	12	0.00474386	0.000131103	0	-0.000438735	0.0269647	0.00605592	0.0276363	12.6579	4.47735e+07	1.99359e+08	2.04325e+08	-77.3421	0.0000000E+000	0.0000000E+000	0.0000000E+000	77.3421	0.0000000E+000	0.0000000E+000	0.0000000E+000	-77.3421	0.0000000E+000	0.0000000E+000	0.0000000E+000	-12.6579	0.0000000E+000	0.0000000E+000	0.0000000E+000	12.6579	4.45261	77.3421	-3.71659e-05	-2.46835e-07	221714
0.0100092	37.6485	12.8021	39.7656	-18.7803	673.872	0.233954	-0.000642776	1.24205e+06	128733	1	12	0.00474191	0.000119247	0	-0.000983971	0.0238085	0.00809595	0.0251474	18.7803	1.28733e+08	3.78578e+08	3.99866e+08	-71.2197	0.0000000E+000	0.0000000E+000	0.0000000E+000	71.2197	0.0000000E+000	0.0000000E+000	0.0000000E+000	-71.2197	0.0000000E+000	0.0000000E+000	0.0000000E+000	-18.7803	0.0000000E+000	0.0000000E+000	0.0000000E+000	18.7803	2.9408	71.2197	-0.000371438	-1.5038e-07	363974