Folder: EIS/txt (part 79)

File: 18351_R257_UA646_SOC00_C06.mpt
EC-Lab ASCII FILE
Nb header lines : 65

Potentio Electrochemical Impedance Spectroscopy

Run on channel : 6 (SN 65795)
User :
CE vs. WE compliance from -10 V to 10 V
Electrode connection : standard
Potential control : Ewe
Ewe ctrl range : min = -10.00 V, max = 10.00 V
Safety Limits :
	Do not start on E overload
Acquisition started on : 10/13/2025 14:40:26.156
Technique started on : 10/13/2025 14:40:28.068
Loaded Setting File :  C:\Users\Celltest\OneDrive - store-dot.com\Documents\EC-Lab\Data\@Biologic Test Protocols\anode half cell EIS SOC00.mps
Saved on :
	File : 18351_R257_UA646_SOC00_C06.mpr
	Directory : C:\Users\Celltest\OneDrive - store-dot.com\Documents\EC-Lab\Data\John\
	Host : 169.254.61.224
Device : VMP-3e (SN .003165)
Address : USB
EC-LAB for windows v11.62 (software)
Internet server v27.00 (firmware)
Command interpretor v12.03 (firmware)
Electrode material :
Initial state :
Electrolyte :
Comments :
Electrode surface area : 0.001 cm²
Characteristic mass : 0.001 g
Equivalent Weight : 0.000 g/eq.
Density : 0.000 g/cm3
Volume (V) : 0.001 cm³
Record Ece
Cycle Definition : Charge/Discharge alternance
Mode                Single sine
E (V)               0.0000
vs.                 Eoc
tE (h:m:s)          0:00:0.0000
record              0
dI                  0.000
unit dI             mA
dt (s)              0.000
fi                  100.000
unit fi             kHz
ff                  10.000
unit ff             mHz
Nd                  6
Points              per decade
spacing             Logarithmic
Va (mV)             5.0
pw                  0.10
Na                  2
corr                0
E range min (V)     -10.000
E range max (V)     10.000
I Range             Auto
Bandwidth           5
nc cycles           0
goto Ns'            0
nr cycles           0
inc. cycle          0

freq/Hz	Re(Z)/Ohm	-Im(Z)/Ohm	|Z|/Ohm	Phase(Z)/deg	time/s	<Ewe>/V	<I>/mA	Cs/µF	Cp/µF	cycle number	I Range	|Ewe|/V	|I|/A	Ns	(Q-Qo)/mA.h	<Ece>/V	|Ece|/V	Phase(Zce)/deg	|Zce|/Ohm	Re(Zce)/Ohm	-Im(Zce)/Ohm	Phase(Zwe-ce)/deg	|Zwe-ce|/Ohm	Re(Zwe-ce)/Ohm	-Im(Zwe-ce)/Ohm	Re(Y)/Ohm-1	Im(Y)/Ohm-1	|Y|/Ohm-1	Phase(Y)/deg	Re(C)/nF	Im(C)/nF	|C|/nF	Phase(C)/deg	Re(M)	Im(M)	|M|	Phase(M)/deg	Re(Permittivity)	Im(Permittivity)	|Permittivity|	Phase(Permittivity)/deg	Re(Resistivity)/Ohm.cm	Im(Resistivity)/Ohm.cm	|Resistivity|/Ohm.cm	Phase(Resistivity)/deg	Re(Conductivity)/mS/cm	Im(Conductivity)/mS/cm	|Conductivity|/mS/cm	Phase(Conductivity)/deg	Tan(Delta)	Loss Angle(Delta)/deg	dq/mA.h	Pwe/W	Pce/W	Pwe-ce/W	<Ewe-Ece>/V	Rwe/Ohm	Rce/Ohm	Rwe-ce/Ohm		Ewe-Ece/V
100004	1.30271	0.491086	1.3922	-20.6551	1.91153	0.253806	0.0298304	3.24076	0.403237	1	9	0.00481349	0.00345748	0	1.29904e-06	0.00017267	4.19192e-05	90.4044	0.0121242	-8.558e-05	-0.0121239	-20.188	1.38789	1.30262	0.478962	0.672118	0.253371	0.718289	20.6551	403.237	1069.67	1143.15	-69.3449	0.0000000E+000	0.0000000E+000	0.0000000E+000	69.3449	0.0000000E+000	0.0000000E+000	0.0000000E+000	-69.3449	0.0000000E+000	0.0000000E+000	0.0000000E+000	-20.6551	0.0000000E+000	0.0000000E+000	0.0000000E+000	20.6551	2.65271	69.3449	1.29904e-06	7.57113e-06	5.1508e-09	7.56598e-06	0.253633	8508.3	5.78837	8502.51
31621.1	1.73972	0.725752	1.88503	-22.6442	3.43256	0.253774	0.0270739	6.93512	1.028	1	9	0.00498596	0.00264503	0	4.97318e-05	7.71793e-05	1.92543e-05	66.6925	0.00727942	0.00288022	-0.00668538	-22.423	1.88513	1.7426	0.719067	0.489601	0.204245	0.530495	22.6442	1028	2464.25	2670.08	-67.3558	0.0000000E+000	0.0000000E+000	0.0000000E+000	67.3558	0.0000000E+000	0.0000000E+000	0.0000000E+000	-67.3558	0.0000000E+000	0.0000000E+000	0.0000000E+000	-22.6442	0.0000000E+000	0.0000000E+000	0.0000000E+000	22.6442	2.39713	67.3558	7.83272e-06	6.87066e-06	2.08954e-09	6.86857e-06	0.253697	9373.4	2.85069	9370.55
10002.2	2.32059	0.991188	2.52341	-23.1286	4.45752	0.253771	0.0253604	16.0534	2.47687	1	9	0.00480955	0.00190597	0	6.22523e-05	0.000134473	2.47638e-06	132.143	0.00129928	-0.000871799	-0.000963375	-23.1163	2.52223	2.31972	0.990225	0.364437	0.155661	0.396289	23.1286	2476.87	5798.91	6305.73	-66.8714	0.0000000E+000	0.0000000E+000	0.0000000E+000	66.8714	0.0000000E+000	0.0000000E+000	0.0000000E+000	-66.8714	0.0000000E+000	0.0000000E+000	0.0000000E+000	-23.1286	0.0000000E+000	0.0000000E+000	0.0000000E+000	23.1286	2.34122	66.8714	9.34315e-07	6.43573e-06	3.4103e-09	6.43232e-06	0.253637	10006.6	5.3025	10001.3
3163.08	3.09046	1.44891	3.41325	-25.1187	5.48268	0.253544	-0.0261563	34.7271	6.2577	1	9	0.00491905	0.00144116	0	6.21319e-05	0.000134473	8.75441e-06	0.0341236	0.00607455	0.00607455	-3.61782e-06	-25.0755	3.41875	3.09654	1.44891	0.265269	0.124367	0.292976	25.1187	6257.7	13347.4	14741.5	-64.8813	0.0000000E+000	0.0000000E+000	0.0000000E+000	64.8813	0.0000000E+000	0.0000000E+000	0.0000000E+000	-64.8813	0.0000000E+000	0.0000000E+000	0.0000000E+000	-25.1187	0.0000000E+000	0.0000000E+000	0.0000000E+000	25.1187	2.13295	64.8813	-3.31281e-06	-6.63178e-06	-3.51733e-09	-6.62826e-06	0.25341	9693.41	5.14114	9688.27
1000.32	4.10039	2.25279	4.67849	-28.7848	7.08078	0.253719	-0.0125033	70.6254	16.3754	1	10	0.0049046	0.00104833	0	6.34436e-05	0.000287258	3.30461e-05	-83.1995	0.0315226	0.00373268	0.0313008	-29.0975	4.6969	4.10412	2.28409	0.187333	0.102922	0.213744	28.7848	16375.4	29805.4	34007.6	-61.2152	0.0000000E+000	0.0000000E+000	0.0000000E+000	61.2152	0.0000000E+000	0.0000000E+000	0.0000000E+000	-61.2152	0.0000000E+000	0.0000000E+000	0.0000000E+000	-28.7848	0.0000000E+000	0.0000000E+000	0.0000000E+000	28.7848	1.82014	61.2152	-9.0562e-07	-3.17231e-06	-3.59166e-09	-3.16872e-06	0.253431	20292.2	22.9746	20269.2
316.316	5.73821	4.27088	7.15314	-36.6598	8.431	0.253708	-0.0133902	117.81	41.9974	1	10	0.00484878	0.000677852	0	5.8163e-05	-9.4703e-05	1.83914e-05	92.8766	0.0271319	-0.00136162	-0.0270977	-36.4918	7.1359	5.73685	4.24378	0.112146	0.0834686	0.139799	36.6598	41997.4	56426.3	70340	-53.3402	0.0000000E+000	0.0000000E+000	0.0000000E+000	53.3402	0.0000000E+000	0.0000000E+000	0.0000000E+000	-53.3402	0.0000000E+000	0.0000000E+000	0.0000000E+000	-36.6598	0.0000000E+000	0.0000000E+000	0.0000000E+000	36.6598	1.34357	53.3401	-2.10719e-06	-3.39719e-06	1.26809e-09	-3.39846e-06	0.253802	18947.3	7.07256	18954.3
100.032	10.1398	7.74387	12.7587	-37.3693	9.77878	0.25369	-0.0142212	205.458	75.6884	1	10	0.00481383	0.000377299	0	5.33933e-05	5.80813e-05	4.81152e-06	11.7239	0.0127525	0.0124865	-0.00259125	-37.3261	12.767	10.1523	7.74128	0.0622902	0.0475717	0.0783782	37.3693	75688.4	99106.3	124703	-52.6307	0.0000000E+000	0.0000000E+000	0.0000000E+000	52.6307	0.0000000E+000	0.0000000E+000	0.0000000E+000	-52.6307	0.0000000E+000	0.0000000E+000	0.0000000E+000	-37.3693	0.0000000E+000	0.0000000E+000	0.0000000E+000	37.3693	1.3094	52.6307	-2.02737e-06	-3.60778e-06	-8.25987e-10	-3.60695e-06	0.253632	17838.8	4.08413	17834.7
[...]
1.00006	29.6598	3.26707	29.8392	-6.28588	19.83	0.253745	-0.00494918	48711.8	583.952	1	12	0.00481766	0.000161454	0	4.1227e-05	0.000249062	3.94148e-06	30.5689	0.0244124	0.0210195	-0.0124155	-6.25778	29.8587	29.6808	3.25465	0.0333115	0.00366931	0.033513	6.28588	583952	5.30135e+06	5.33342e+06	-83.7141	0.0000000E+000	0.0000000E+000	0.0000000E+000	83.7141	0.0000000E+000	0.0000000E+000	0.0000000E+000	-83.7141	0.0000000E+000	0.0000000E+000	0.0000000E+000	-6.28588	0.0000000E+000	0.0000000E+000	0.0000000E+000	6.28588	9.07841	83.7141	1.25538e-06	-1.25583e-06	-1.23265e-09	-1.2546e-06	0.253496	51270.1	50.3238	51219.8
0.316193	31.4999	3.50573	31.6944	-6.3505	34.1749	0.253741	-0.0041997	143579	1756.63	1	12	0.00481743	0.000151996	0	1.98126e-05	-7.5605e-05	2.17904e-06	62.0335	0.0143361	0.00672302	-0.012662	-6.32641	31.6997	31.5067	3.49307	0.0313577	0.0034899	0.0315513	6.3505	1.75663e+06	1.57838e+07	1.58813e+07	-83.6495	0.0000000E+000	0.0000000E+000	0.0000000E+000	83.6495	0.0000000E+000	0.0000000E+000	0.0000000E+000	-83.6495	0.0000000E+000	0.0000000E+000	0.0000000E+000	-6.3505	0.0000000E+000	0.0000000E+000	0.0000000E+000	6.3505	8.98528	83.6495	-1.7077e-05	-1.06564e-06	3.17518e-10	-1.06595e-06	0.253817	60418.9	18.0025	60436.9
0.0999041	33.8773	5.11464	34.2612	-8.58542	79.3829	0.253737	-0.00672808	311474	6941.4	1	12	0.00481075	0.000140414	0	-0.000107999	5.80813e-05	1.78117e-06	-39.9845	0.0126851	0.00971956	0.00815119	-8.59647	34.272	33.887	5.12279	0.0288605	0.00435722	0.0291875	8.58542	6.9414e+06	4.5977e+07	4.6498e+07	-81.4146	0.0000000E+000	0.0000000E+000	0.0000000E+000	81.4146	0.0000000E+000	0.0000000E+000	0.0000000E+000	-81.4146	0.0000000E+000	0.0000000E+000	0.0000000E+000	-8.58542	0.0000000E+000	0.0000000E+000	0.0000000E+000	8.58542	6.62359	81.4146	-5.05959e-05	-1.70717e-06	-3.90776e-10	-1.70678e-06	0.253679	37713.2	8.63266	37704.5
0.0315922	37.5421	8.59504	38.5134	-12.8953	222.267	0.253728	-0.00889718	586128	29192	1	12	0.00481746	0.000125085	0	-0.000245499	0.000229964	2.63939e-06	25.5745	0.0211008	0.0190334	-0.00910887	-12.8758	38.5299	37.5611	8.58593	0.0253101	0.00579461	0.025965	12.8953	2.9192e+07	1.27507e+08	1.30806e+08	-77.1047	0.0000000E+000	0.0000000E+000	0.0000000E+000	77.1047	0.0000000E+000	0.0000000E+000	0.0000000E+000	-77.1047	0.0000000E+000	0.0000000E+000	0.0000000E+000	-12.8953	0.0000000E+000	0.0000000E+000	0.0000000E+000	12.8953	4.36788	77.1047	-4.88639e-05	-2.25746e-06	-2.04603e-09	-2.25542e-06	0.253498	28517.8	25.8468	28492
0.0100092	43.9459	16.9137	47.0884	-21.0505	673.489	0.253729	-0.0102788	940118	121292	1	12	0.0048129	0.00010221	0	-0.00148311	0.000191768	1.02367e-06	8.60022	0.0100154	0.00990276	-0.00149769	-21.0445	47.0971	43.9558	16.9122	0.0198194	0.00762801	0.0212366	21.0505	1.21292e+08	3.15146e+08	3.37682e+08	-68.9495	0.0000000E+000	0.0000000E+000	0.0000000E+000	68.9495	0.0000000E+000	0.0000000E+000	0.0000000E+000	-68.9495	0.0000000E+000	0.0000000E+000	0.0000000E+000	-21.0505	0.0000000E+000	0.0000000E+000	0.0000000E+000	21.0505	2.59824	68.9495	-0.000759801	-2.60802e-06	-1.97114e-09	-2.60605e-06	0.253537	24684.7	18.6566	24666

File: 18353_R257_UA646_SOC00_C07.mpt
EC-Lab ASCII FILE
Nb header lines : 65

Potentio Electrochemical Impedance Spectroscopy

Run on channel : 7 (SN 66126)
User :
CE vs. WE compliance from -10 V to 10 V
Electrode connection : standard
Potential control : Ewe
Ewe ctrl range : min = -10.00 V, max = 10.00 V
Safety Limits :
	Do not start on E overload
Acquisition started on : 10/13/2025 14:40:40.999
Technique started on : 10/13/2025 14:40:42.911
Loaded Setting File :  C:\Users\Celltest\OneDrive - store-dot.com\Documents\EC-Lab\Data\@Biologic Test Protocols\anode half cell EIS SOC00.mps
Saved on :
	File : 18353_R257_UA646_SOC00_C07.mpr
	Directory : C:\Users\Celltest\OneDrive - store-dot.com\Documents\EC-Lab\Data\John\
	Host : 169.254.61.224
Device : VMP-3e (SN .003165)
Address : USB
EC-LAB for windows v11.62 (software)
Internet server v27.00 (firmware)
Command interpretor v12.03 (firmware)
Electrode material :
Initial state :
Electrolyte :
Comments :
Electrode surface area : 0.001 cm²
Characteristic mass : 0.001 g
Equivalent Weight : 0.000 g/eq.
Density : 0.000 g/cm3
Volume (V) : 0.001 cm³
Record Ece
Cycle Definition : Charge/Discharge alternance
Mode                Single sine
E (V)               0.0000
vs.                 Eoc
tE (h:m:s)          0:00:0.0000
record              0
dI                  0.000
unit dI             mA
dt (s)              0.000
fi                  100.000
unit fi             kHz
ff                  10.000
unit ff             mHz
Nd                  6
Points              per decade
spacing             Logarithmic
Va (mV)             5.0
pw                  0.10
Na                  2
corr                0
E range min (V)     -10.000
E range max (V)     10.000
I Range             Auto
Bandwidth           5
nc cycles           0
goto Ns'            0
nr cycles           0
inc. cycle          0

freq/Hz	Re(Z)/Ohm	-Im(Z)/Ohm	|Z|/Ohm	Phase(Z)/deg	time/s	<Ewe>/V	<I>/mA	Cs/µF	Cp/µF	cycle number	I Range	|Ewe|/V	|I|/A	Ns	(Q-Qo)/mA.h	<Ece>/V	|Ece|/V	Phase(Zce)/deg	|Zce|/Ohm	Re(Zce)/Ohm	-Im(Zce)/Ohm	Phase(Zwe-ce)/deg	|Zwe-ce|/Ohm	Re(Zwe-ce)/Ohm	-Im(Zwe-ce)/Ohm	Re(Y)/Ohm-1	Im(Y)/Ohm-1	|Y|/Ohm-1	Phase(Y)/deg	Re(C)/nF	Im(C)/nF	|C|/nF	Phase(C)/deg	Re(M)	Im(M)	|M|	Phase(M)/deg	Re(Permittivity)	Im(Permittivity)	|Permittivity|	Phase(Permittivity)/deg	Re(Resistivity)/Ohm.cm	Im(Resistivity)/Ohm.cm	|Resistivity|/Ohm.cm	Phase(Resistivity)/deg	Re(Conductivity)/mS/cm	Im(Conductivity)/mS/cm	|Conductivity|/mS/cm	Phase(Conductivity)/deg	Tan(Delta)	Loss Angle(Delta)/deg	dq/mA.h	Pwe/W	Pce/W	Pwe-ce/W	<Ewe-Ece>/V	Rwe/Ohm	Rce/Ohm	Rwe-ce/Ohm		Ewe-Ece/V
100004	1.2859	0.482881	1.37357	-20.5822	1.91156	0.251532	0.044281	3.29582	0.407325	1	9	0.00488417	0.00355582	0	8.36717e-06	-0.000193068	3.19656e-05	87.933	0.00898968	0.000324246	-0.00898383	-20.2259	1.37074	1.28622	0.473898	0.681557	0.255939	0.728028	20.5822	407.325	1084.69	1158.65	-69.4178	0.0000000E+000	0.0000000E+000	0.0000000E+000	69.4178	0.0000000E+000	0.0000000E+000	0.0000000E+000	-69.4178	0.0000000E+000	0.0000000E+000	0.0000000E+000	-20.5822	0.0000000E+000	0.0000000E+000	0.0000000E+000	20.5822	2.66296	69.4178	8.36717e-06	1.11381e-05	-8.54926e-09	1.11466e-05	0.251725	5680.35	4.36007	5684.71
31621.1	1.71492	0.707381	1.85509	-22.4155	3.43252	0.251568	0.0453981	7.11524	1.03459	1	9	0.00521973	0.00281374	0	-3.64594e-06	-0.000231219	9.2032e-06	20.1047	0.00327081	0.00307151	-0.0011243	-22.3473	1.8575	1.71799	0.706257	0.498329	0.205554	0.539059	22.4155	1034.59	2508.18	2713.18	-67.5845	0.0000000E+000	0.0000000E+000	0.0000000E+000	67.5845	0.0000000E+000	0.0000000E+000	0.0000000E+000	-67.5845	0.0000000E+000	0.0000000E+000	0.0000000E+000	-22.4155	0.0000000E+000	0.0000000E+000	0.0000000E+000	22.4155	2.42432	67.5845	-2.81774e-06	1.14207e-05	-1.04969e-08	1.14312e-05	0.251799	5541.38	5.09315	5546.47
10002.2	2.26959	0.982228	2.47301	-23.4019	4.58355	0.251569	0.0485259	16.1999	2.55554	1	9	0.00488641	0.00197589	0	1.96097e-05	1.67614e-05	4.51734e-06	-9.40858	0.00228623	0.00225547	0.000373738	-23.3891	2.47523	2.27184	0.982601	0.371103	0.160605	0.404365	23.4019	2555.54	5904.97	6434.24	-66.5981	0.0000000E+000	0.0000000E+000	0.0000000E+000	66.5981	0.0000000E+000	0.0000000E+000	0.0000000E+000	-66.5981	0.0000000E+000	0.0000000E+000	0.0000000E+000	-23.4019	0.0000000E+000	0.0000000E+000	0.0000000E+000	23.4019	2.31065	66.5981	6.61133e-06	1.22076e-05	8.1336e-10	1.22068e-05	0.251552	5184.22	0.345411	5183.87
3163.08	3.01776	1.43184	3.34022	-25.3829	5.65867	0.251338	-0.0161532	35.1412	6.45735	1	9	0.00495021	0.001482	0	2.42218e-05	-0.000116767	1.2306e-05	9.87922	0.00830359	0.00818046	-0.00142466	-25.3009	3.347	3.02594	1.43041	0.27048	0.128335	0.299382	25.3829	6457.35	13609.6	15063.8	-64.6171	0.0000000E+000	0.0000000E+000	0.0000000E+000	64.6171	0.0000000E+000	0.0000000E+000	0.0000000E+000	-64.6171	0.0000000E+000	0.0000000E+000	0.0000000E+000	-25.3829	0.0000000E+000	0.0000000E+000	0.0000000E+000	25.3829	2.10762	64.6171	-6.60309e-07	-4.05991e-06	1.88615e-09	-4.06179e-06	0.251455	15559.6	7.2287	15566.9
1000.32	4.00501	2.25437	4.5959	-29.3746	7.25782	0.251484	-0.0178908	70.5758	16.9811	1	10	0.0049381	0.00107446	0	2.26204e-05	-0.000441049	3.24835e-05	-53.5275	0.0302324	0.0179712	0.0243112	-29.5279	4.6235	4.02298	2.27868	0.189611	0.10673	0.217585	29.3746	16981.1	30167.8	34618.7	-60.6254	0.0000000E+000	0.0000000E+000	0.0000000E+000	60.6254	0.0000000E+000	0.0000000E+000	0.0000000E+000	-60.6254	0.0000000E+000	0.0000000E+000	0.0000000E+000	-29.3746	0.0000000E+000	0.0000000E+000	0.0000000E+000	29.3746	1.77655	60.6254	-2.38753e-06	-4.49926e-06	7.89072e-09	-4.50715e-06	0.251925	14056.6	24.6522	14081.3
316.316	5.65615	4.28155	7.09392	-37.1247	8.60704	0.251479	-0.0190002	117.516	42.8082	1	10	0.00488814	0.000689061	0	1.53828e-05	-0.000383823	7.64332e-06	55.0277	0.0110924	0.00635792	-0.00908941	-37.0352	7.09351	5.66251	4.27246	0.112395	0.0850802	0.140966	37.1247	42808.2	56552	70927.2	-52.8753	0.0000000E+000	0.0000000E+000	0.0000000E+000	52.8753	0.0000000E+000	0.0000000E+000	0.0000000E+000	-52.8753	0.0000000E+000	0.0000000E+000	0.0000000E+000	-37.1247	0.0000000E+000	0.0000000E+000	0.0000000E+000	37.1247	1.32105	52.8753	-2.39846e-06	-4.77816e-06	7.29271e-09	-4.78545e-06	0.251863	13235.6	20.201	13255.8
100.032	10.1387	7.7627	12.7692	-37.4395	9.95384	0.25148	-0.0198081	204.96	75.7472	1	10	0.00486888	0.000381298	0	9.19605e-06	-0.000326596	3.26611e-06	91.5952	0.00856576	-0.00023845	-0.00856244	-37.4097	12.7638	10.1384	7.75414	0.0621805	0.0476086	0.0783134	37.4395	75747.2	98931.7	124600	-52.5605	0.0000000E+000	0.0000000E+000	0.0000000E+000	52.5605	0.0000000E+000	0.0000000E+000	0.0000000E+000	-52.5605	0.0000000E+000	0.0000000E+000	0.0000000E+000	-37.4395	0.0000000E+000	0.0000000E+000	0.0000000E+000	37.4395	1.30608	52.5605	-2.60802e-06	-4.98132e-06	6.46924e-09	-4.98779e-06	0.251806	12695.8	16.488	12712.3
[...]
1.00006	29.4388	3.26285	29.6191	-6.32457	20.008	0.251539	-0.00674812	48774.7	591.898	1	12	0.00486397	0.000164217	0	-7.63464e-06	1.67614e-05	3.98373e-06	-10.8354	0.0242589	0.0238264	0.0045604	-6.32826	29.6433	29.4626	3.26741	0.0335565	0.00371924	0.033762	6.32457	591898	5.34035e+06	5.37305e+06	-83.6754	0.0000000E+000	0.0000000E+000	0.0000000E+000	83.6754	0.0000000E+000	0.0000000E+000	0.0000000E+000	-83.6754	0.0000000E+000	0.0000000E+000	0.0000000E+000	-6.32457	0.0000000E+000	0.0000000E+000	0.0000000E+000	6.32457	9.02242	83.6754	2.03546e-08	-1.69741e-06	-1.13108e-10	-1.6973e-06	0.251522	37275.3	2.48386	37272.8
0.316193	31.2609	3.50537	31.4568	-6.39801	34.3529	0.251543	-0.00565385	143593	1783.08	1	12	0.00486311	0.000154596	0	-3.87976e-05	-0.000135842	2.93518e-06	5.22691	0.0189861	0.0189071	-0.00172964	-6.39104	31.4754	31.2798	3.50364	0.0315916	0.00354245	0.0317896	6.39801	1.78309e+06	1.59016e+07	1.60012e+07	-83.602	0.0000000E+000	0.0000000E+000	0.0000000E+000	83.602	0.0000000E+000	0.0000000E+000	0.0000000E+000	-83.602	0.0000000E+000	0.0000000E+000	0.0000000E+000	-6.39801	0.0000000E+000	0.0000000E+000	0.0000000E+000	6.39801	8.918	83.602	-2.12567e-05	-1.42219e-06	7.6803e-10	-1.42295e-06	0.251679	44490.5	24.0265	44514.6
0.0999041	33.7332	5.1849	34.1293	-8.73816	79.5609	0.251541	-0.007555	307253	7091.23	1	12	0.00486171	0.00014245	0	-0.00017431	-0.000383823	2.25516e-06	-30.8624	0.0158313	0.0135896	0.0081211	-8.74816	34.144	33.7468	5.19302	0.0289602	0.00445128	0.0293003	8.73816	7.09123e+06	4.61359e+07	4.66777e+07	-81.2618	0.0000000E+000	0.0000000E+000	0.0000000E+000	81.2618	0.0000000E+000	0.0000000E+000	0.0000000E+000	-81.2618	0.0000000E+000	0.0000000E+000	0.0000000E+000	-8.73816	0.0000000E+000	0.0000000E+000	0.0000000E+000	8.73816	6.50605	81.2618	-5.0755e-05	-1.9004e-06	2.89978e-09	-1.9033e-06	0.251925	33294.7	50.8038	33345.5
0.0315922	37.5811	8.51665	38.534	-12.7687	222.444	0.25155	-0.00884594	591523	28894.8	1	12	0.00486138	0.000126158	0	-0.000307939	-0.0004792	3.65614e-06	20.3272	0.0289806	0.0271758	-0.0100673	-12.7452	38.5583	37.6083	8.50658	0.0253093	0.00573561	0.0259511	12.7687	2.88948e+07	1.27503e+08	1.30736e+08	-77.2313	0.0000000E+000	0.0000000E+000	0.0000000E+000	77.2313	0.0000000E+000	0.0000000E+000	0.0000000E+000	-77.2313	0.0000000E+000	0.0000000E+000	0.0000000E+000	-12.7687	0.0000000E+000	0.0000000E+000	0.0000000E+000	12.7687	4.41266	77.2313	-4.95395e-05	-2.22519e-06	4.23897e-09	-2.22943e-06	0.252029	28436.7	54.1717	28490.9
0.0100092	43.8242	16.4177	46.7985	-20.5372	673.668	0.25155	-0.0102739	968525	119198	1	12	0.00486094	0.000103869	0	-0.00161876	-0.0004792	2.17546e-06	4.89279	0.0209441	0.0208678	-0.00178636	-20.5262	46.8174	43.8451	16.4159	0.0200101	0.0074963	0.0213682	20.5372	1.19198e+08	3.18179e+08	3.39774e+08	-69.4628	0.0000000E+000	0.0000000E+000	0.0000000E+000	69.4628	0.0000000E+000	0.0000000E+000	0.0000000E+000	-69.4628	0.0000000E+000	0.0000000E+000	0.0000000E+000	-20.5372	0.0000000E+000	0.0000000E+000	0.0000000E+000	20.5372	2.66933	69.4628	-0.000790349	-2.58439e-06	4.92323e-09	-2.58931e-06	0.252029	24484.4	46.6426	24531.1