Folder: EIS/txt (part 10)

File: 17223_R278_UC78_50SOC__C03.mpt
EC-Lab ASCII FILE
Nb header lines : 64

Potentio Electrochemical Impedance Spectroscopy

Run on channel : 3 (SN 65921)
User :
CE vs. WE compliance from -10 V to 10 V
Electrode connection : standard
Potential control : Ewe
Ewe ctrl range : min = -10.00 V, max = 10.00 V
Safety Limits :
	Do not start on E overload
Acquisition started on : 09/02/2025 16:41:11.386
Loaded Setting File :  C:\Users\Celltest\OneDrive - store-dot.com\Documents\EC-Lab\Data\Michael\R278\UC74_NCMA_16706_EIS_50_SOC.mps
Saved on :
	File : UC78_17223_EIS_50SOC_C03.mpr
	Directory : C:\Users\Celltest\OneDrive - store-dot.com\Documents\EC-Lab\Data\Michael\R278\
	Host : 169.254.61.224
Device : VMP-3e (SN .003165)
Address : USB
EC-LAB for windows v11.62 (software)
Internet server v27.00 (firmware)
Command interpretor v12.03 (firmware)
Electrode material :
Initial state :
Electrolyte :
Comments :
Electrode surface area : 0.001 cm²
Characteristic mass : 0.001 g
Equivalent Weight : 0.000 g/eq.
Density : 0.000 g/cm3
Volume (V) : 0.001 cm³
Record Ece
Cycle Definition : Charge/Discharge alternance
Mode                Multi sine
E (V)               0.0000
vs.                 Eoc
tE (h:m:s)          0:00:0.0000
record              0
dI                  0.000
unit dI             mA
dt (s)              0.000
fi                  1.000
unit fi             MHz
ff                  0.100
unit ff             mHz
Nd                  10
Points              per decade
spacing             Logarithmic
Va (mV)             5.0
pw                  0.10
Na                  2
corr                0
E range min (V)     -10.000
E range max (V)     10.000
I Range             Auto
Bandwidth           5
nc cycles           0
goto Ns'            0
nr cycles           0
inc. cycle          0

freq/Hz	Re(Z)/Ohm	-Im(Z)/Ohm	|Z|/Ohm	Phase(Z)/deg	time/s	<Ewe>/V	<I>/mA	Cs/µF	Cp/µF	cycle number	I Range	|Ewe|/V	|I|/A	Ns	(Q-Qo)/mA.h	<Ece>/V	|Ece|/V	Phase(Zce)/deg	|Zce|/Ohm	Re(Zce)/Ohm	-Im(Zce)/Ohm	Phase(Zwe-ce)/deg	|Zwe-ce|/Ohm	Re(Zwe-ce)/Ohm	-Im(Zwe-ce)/Ohm	Re(Y)/Ohm-1	Im(Y)/Ohm-1	|Y|/Ohm-1	Phase(Y)/deg	Re(C)/nF	Im(C)/nF	|C|/nF	Phase(C)/deg	Re(M)	Im(M)	|M|	Phase(M)/deg	Re(Permittivity)	Im(Permittivity)	|Permittivity|	Phase(Permittivity)/deg	Re(Resistivity)/Ohm.cm	Im(Resistivity)/Ohm.cm	|Resistivity|/Ohm.cm	Phase(Resistivity)/deg	Re(Conductivity)/mS/cm	Im(Conductivity)/mS/cm	|Conductivity|/mS/cm	Phase(Conductivity)/deg	Tan(Delta)	Loss Angle(Delta)/deg	dq/mA.h	Pwe/W	Pce/W	Pwe-ce/W	<Ewe-Ece>/V	Rwe/Ohm	Rce/Ohm	Rwe-ce/Ohm		Ewe-Ece/V
1.00002e+06	1.01747	-0.142036	1.02733	7.94701	2.23354	3.78478	0.0175215	-1.1205	-0.0214184	1	9	0.000226411	0.000220386	0	-4.23503e-05	-0.000188301	0.00019893	0.339317	0.902643	0.902627	-0.0053456	4.38928	1.92574	1.9201	-0.147382	0.964044	-0.134578	0.973392	-7.94701	-21.4184	153.43	154.917	-97.947	0.0000000E+000	0.0000000E+000	0.0000000E+000	97.947	0.0000000E+000	0.0000000E+000	0.0000000E+000	-97.947	0.0000000E+000	0.0000000E+000	0.0000000E+000	7.94701	0.0000000E+000	0.0000000E+000	0.0000000E+000	-7.94701	7.16344	82.053	-4.23503e-05	6.6315e-05	-3.29932e-09	6.63183e-05	3.78496	216007	10.7469	216018
251206	0.762639	0.27439	0.810499	-19.7883	4.53154	3.78435	-0.0494577	2.30898	0.264639	1	9	0.00210161	0.00259298	0	-6.86531e-05	4.08277e-05	3.71093e-05	106.401	0.0143115	-0.00404091	-0.0137291	-18.9632	0.802132	0.758598	0.260661	1.16095	0.4177	1.23381	19.7883	264.639	735.536	781.695	-70.2117	0.0000000E+000	0.0000000E+000	0.0000000E+000	70.2117	0.0000000E+000	0.0000000E+000	0.0000000E+000	-70.2117	0.0000000E+000	0.0000000E+000	0.0000000E+000	-19.7883	0.0000000E+000	0.0000000E+000	0.0000000E+000	19.7883	2.77939	70.2117	-3.62656e-06	-0.000187165	-2.01924e-09	-0.000187163	3.78431	76517	0.825507	76516.1
63093.8	1.17867	0.389033	1.24122	-18.266	6.83153	3.78426	-0.0540448	6.48405	0.636978	1	9	0.00533814	0.00430073	0	-9.24496e-05	-7.37367e-05	2.61144e-05	78.0733	0.00607208	0.00125485	-0.005941	-17.9873	1.24056	1.17993	0.383092	0.765065	0.252517	0.805661	18.266	636.978	1929.89	2032.29	-71.734	0.0000000E+000	0.0000000E+000	0.0000000E+000	71.734	0.0000000E+000	0.0000000E+000	0.0000000E+000	-71.734	0.0000000E+000	0.0000000E+000	0.0000000E+000	-18.266	0.0000000E+000	0.0000000E+000	0.0000000E+000	18.266	3.02975	71.734	-1.4979e-05	-0.00020452	3.98508e-09	-0.000204524	3.78434	70021	1.36436	70022.3
15847.7	1.50558	0.404344	1.55893	-15.0328	9.13357	3.78427	-0.047854	24.8372	1.67091	1	9	0.00498558	0.00319808	0	-0.000117574	2.63955e-06	1.25679e-05	-20.0219	0.00392984	0.00369233	0.0013455	-15.0454	1.56285	1.50927	0.40569	0.619513	0.166379	0.641465	15.0328	1670.91	6221.63	6442.1	-74.9671	0.0000000E+000	0.0000000E+000	0.0000000E+000	74.9671	0.0000000E+000	0.0000000E+000	0.0000000E+000	-74.9671	0.0000000E+000	0.0000000E+000	0.0000000E+000	-15.0328	0.0000000E+000	0.0000000E+000	0.0000000E+000	15.0328	3.72351	74.9671	-3.94807e-06	-0.000181093	-1.26313e-10	-0.000181093	3.78427	79079.5	0.0551583	79079.4
3983.6	1.84437	0.533585	1.92001	-16.1354	10.7341	3.78411	-0.117966	74.8757	5.78285	1	9	0.00465695	0.00242549	0	-0.000142207	-3.55486e-05	9.295e-06	0.691809	0.00383222	0.00383194	-4.62705e-05	-16.1023	1.92368	1.84821	0.533539	0.500314	0.144743	0.520831	16.1354	5782.85	19988.8	20808.5	-73.8646	0.0000000E+000	0.0000000E+000	0.0000000E+000	73.8646	0.0000000E+000	0.0000000E+000	0.0000000E+000	-73.8646	0.0000000E+000	0.0000000E+000	0.0000000E+000	-16.1354	0.0000000E+000	0.0000000E+000	0.0000000E+000	16.1354	3.45657	73.8646	-8.33258e-06	-0.000446396	4.19352e-09	-0.0004464	3.78415	32078	0.301346	32078.3
1000.32	2.37078	0.863668	2.52319	-20.0165	13.3628	3.78417	-0.0548653	184.219	21.5837	1	9	0.00453108	0.00179577	0	-0.00018989	-7.37367e-05	7.87122e-06	50.4819	0.0043832	0.00278913	-0.0033813	-19.9228	2.52466	2.37357	0.860286	0.372383	0.135658	0.396323	20.0165	21583.7	59247.6	63056.6	-69.9835	0.0000000E+000	0.0000000E+000	0.0000000E+000	69.9835	0.0000000E+000	0.0000000E+000	0.0000000E+000	-69.9835	0.0000000E+000	0.0000000E+000	0.0000000E+000	-20.0165	0.0000000E+000	0.0000000E+000	0.0000000E+000	20.0165	2.74501	69.9835	-8.70586e-06	-0.000207619	4.04558e-09	-0.000207624	3.78424	68972	1.34396	68973.4
251.044	3.48408	1.22777	3.69408	-19.4122	16.31	3.78423	-0.0965302	516.358	57.0394	1	10	0.00450621	0.00121984	0	-0.000254526	2.17336e-05	1.05659e-05	-96.7326	0.00866164	-0.00101546	0.00860191	-19.5432	3.69599	3.48306	1.23638	0.255314	0.0899716	0.270703	19.4122	57039.4	161862	171618	-70.5878	0.0000000E+000	0.0000000E+000	0.0000000E+000	70.5878	0.0000000E+000	0.0000000E+000	0.0000000E+000	-70.5878	0.0000000E+000	0.0000000E+000	0.0000000E+000	-19.4122	0.0000000E+000	0.0000000E+000	0.0000000E+000	19.4122	2.83772	70.5878	-1.2115e-05	-0.000365292	-2.09795e-09	-0.00036529	3.78421	39202.5	0.225148	39202.3
63.0823	4.60561	0.769942	4.66952	-9.49065	19.247	3.78421	-0.0969888	3276.84	89.0893	1	10	0.00497835	0.00106614	0	-0.000337112	0.000212674	7.5247e-06	87.9774	0.00705791	0.000249105	-0.00705351	-9.40476	4.66861	4.60586	0.762888	0.211223	0.0353112	0.214155	9.49065	89089.3	532911	540306	-80.5094	0.0000000E+000	0.0000000E+000	0.0000000E+000	80.5094	0.0000000E+000	0.0000000E+000	0.0000000E+000	-80.5094	0.0000000E+000	0.0000000E+000	0.0000000E+000	-9.49065	0.0000000E+000	0.0000000E+000	0.0000000E+000	9.49065	5.98176	80.5094	-1.22036e-05	-0.000367026	-2.0627e-08	-0.000367005	3.784	39016.9	2.19277	39014.8
[...]
0.0602816	5.85827	0.974058	5.9387	-9.44025	240.184	3.7842	-0.0632021	2.7105e+06	72918.5	1	11	0.00505908	0.000851884	0	-0.00828443	0.000212674	8.35591e-07	-3.04399	0.000980874	0.00097949	5.2087e-05	-9.43919	5.93967	5.85925	0.97411	0.166107	0.0276187	0.168387	9.44025	7.29185e+07	4.38553e+08	4.44574e+08	-80.5598	0.0000000E+000	0.0000000E+000	0.0000000E+000	80.5598	0.0000000E+000	0.0000000E+000	0.0000000E+000	-80.5598	0.0000000E+000	0.0000000E+000	0.0000000E+000	-9.44025	0.0000000E+000	0.0000000E+000	0.0000000E+000	9.44025	6.01429	80.5598	0.000000000000000E+000	-0.000239169	-1.34414e-08	-0.000239156	3.78399	59874.6	3.36499	59871.2
0.00796479	8.0974	1.70338	8.27462	-11.8796	20329	3.7842	0.00166506	1.1731e+07	497119	1	11	0.00505405	0.000610789	0	-0.0567225	-3.55486e-05	2.67202e-07	-146.687	0.00043747	-0.000365587	0.000240262	-11.8817	8.27431	8.09703	1.70362	0.118263	0.0248779	0.120851	11.8796	4.97119e+08	2.36317e+09	2.41489e+09	-78.1204	0.0000000E+000	0.0000000E+000	0.0000000E+000	78.1204	0.0000000E+000	0.0000000E+000	0.0000000E+000	-78.1204	0.0000000E+000	0.0000000E+000	0.0000000E+000	-11.8796	0.0000000E+000	0.0000000E+000	0.0000000E+000	11.8796	4.75373	78.1204	-0.0484381	6.30093e-06	-5.91906e-11	6.30099e-06	3.78423	2.27271e+06	21.3497	2.27273e+06
0.0019912	9.30846	2.5591	9.65383	-15.3721	20329	3.7842	0.00166506	3.12333e+07	2.1948e+06	1	11	0.00506482	0.000524644	0	-0.0567225	-3.55486e-05	5.09883e-07	-45.8441	0.000971866	0.000677015	0.000697262	-15.375	9.65467	9.30914	2.5598	0.09988	0.0274592	0.103586	15.3721	2.1948e+09	7.98334e+09	8.27954e+09	-74.6279	0.0000000E+000	0.0000000E+000	0.0000000E+000	74.6279	0.0000000E+000	0.0000000E+000	0.0000000E+000	-74.6279	0.0000000E+000	0.0000000E+000	0.0000000E+000	-15.3721	0.0000000E+000	0.0000000E+000	0.0000000E+000	15.3721	3.63739	74.6279	0.000000000000000E+000	6.30093e-06	-5.91906e-11	6.30099e-06	3.78423	2.27271e+06	21.3497	2.27273e+06
0.000497799	9.61464	6.66851	11.7009	-34.7444	20329	3.7842	0.00166506	4.79443e+07	1.55725e+07	1	11	0.0050646	0.00043284	0	-0.0567225	-3.55486e-05	1.70157e-06	26.9463	0.00393118	0.00350438	-0.00178143	-34.7274	11.7027	9.61814	6.66673	0.0702259	0.0487072	0.0854638	34.7444	1.55725e+10	2.24524e+10	2.73242e+10	-55.2556	0.0000000E+000	0.0000000E+000	0.0000000E+000	55.2556	0.0000000E+000	0.0000000E+000	0.0000000E+000	-55.2556	0.0000000E+000	0.0000000E+000	0.0000000E+000	-34.7444	0.0000000E+000	0.0000000E+000	0.0000000E+000	34.7444	1.4418	55.2556	0.000000000000000E+000	6.30093e-06	-5.91906e-11	6.30099e-06	3.78423	2.27271e+06	21.3497	2.27273e+06
9.95598e-05	10.8289	36.4292	38.0046	-73.445	20329	3.7842	0.00166506	4.3882e+07	4.03193e+07	1	11	0.00507072	0.000133424	0	-0.0567225	-3.55486e-05	3.24386e-06	30.3431	0.0243125	0.020982	-0.0122821	-73.4094	37.9988	10.8499	36.4169	0.0074974	0.0252218	0.0263126	73.445	4.03193e+10	1.19852e+10	4.20629e+10	-16.555	0.0000000E+000	0.0000000E+000	0.0000000E+000	16.555	0.0000000E+000	0.0000000E+000	0.0000000E+000	-16.555	0.0000000E+000	0.0000000E+000	0.0000000E+000	-73.445	0.0000000E+000	0.0000000E+000	0.0000000E+000	73.445	0.297258	16.555	0.000000000000000E+000	6.30093e-06	-5.91906e-11	6.30099e-06	3.78423	2.27271e+06	21.3497	2.27273e+06

File: 17225_R278_UC78_50SOC_C04.mpt
EC-Lab ASCII FILE
Nb header lines : 65

Potentio Electrochemical Impedance Spectroscopy

Run on channel : 4 (SN 66756)
User :
CE vs. WE compliance from -10 V to 10 V
Electrode connection : standard
Potential control : Ewe
Ewe ctrl range : min = -10.00 V, max = 10.00 V
Safety Limits :
	Do not start on E overload
Acquisition started on : 09/02/2025 16:41:37.792
Technique started on : 09/02/2025 16:41:40.027
Loaded Setting File :  C:\Users\Celltest\OneDrive - store-dot.com\Documents\EC-Lab\Data\Michael\R278\UC74_NCMA_16706_EIS_50_SOC.mps
Saved on :
	File : UC79_17225_EIS_50SOC_C04.mpr
	Directory : C:\Users\Celltest\OneDrive - store-dot.com\Documents\EC-Lab\Data\Michael\R278\
	Host : 169.254.61.224
Device : VMP-3e (SN .003165)
Address : USB
EC-LAB for windows v11.62 (software)
Internet server v27.00 (firmware)
Command interpretor v12.03 (firmware)
Electrode material :
Initial state :
Electrolyte :
Comments :
Electrode surface area : 0.001 cm²
Characteristic mass : 0.001 g
Equivalent Weight : 0.000 g/eq.
Density : 0.000 g/cm3
Volume (V) : 0.001 cm³
Record Ece
Cycle Definition : Charge/Discharge alternance
Mode                Multi sine
E (V)               0.0000
vs.                 Eoc
tE (h:m:s)          0:00:0.0000
record              0
dI                  0.000
unit dI             mA
dt (s)              0.000
fi                  1.000
unit fi             MHz
ff                  0.100
unit ff             mHz
Nd                  10
Points              per decade
spacing             Logarithmic
Va (mV)             5.0
pw                  0.10
Na                  2
corr                0
E range min (V)     -10.000
E range max (V)     10.000
I Range             Auto
Bandwidth           5
nc cycles           0
goto Ns'            0
nr cycles           0
inc. cycle          0

freq/Hz	Re(Z)/Ohm	-Im(Z)/Ohm	|Z|/Ohm	Phase(Z)/deg	time/s	<Ewe>/V	<I>/mA	Cs/µF	Cp/µF	cycle number	I Range	|Ewe|/V	|I|/A	Ns	(Q-Qo)/mA.h	<Ece>/V	|Ece|/V	Phase(Zce)/deg	|Zce|/Ohm	Re(Zce)/Ohm	-Im(Zce)/Ohm	Phase(Zwe-ce)/deg	|Zwe-ce|/Ohm	Re(Zwe-ce)/Ohm	-Im(Zwe-ce)/Ohm	Re(Y)/Ohm-1	Im(Y)/Ohm-1	|Y|/Ohm-1	Phase(Y)/deg	Re(C)/nF	Im(C)/nF	|C|/nF	Phase(C)/deg	Re(M)	Im(M)	|M|	Phase(M)/deg	Re(Permittivity)	Im(Permittivity)	|Permittivity|	Phase(Permittivity)/deg	Re(Resistivity)/Ohm.cm	Im(Resistivity)/Ohm.cm	|Resistivity|/Ohm.cm	Phase(Resistivity)/deg	Re(Conductivity)/mS/cm	Im(Conductivity)/mS/cm	|Conductivity|/mS/cm	Phase(Conductivity)/deg	Tan(Delta)	Loss Angle(Delta)/deg	dq/mA.h	Pwe/W	Pce/W	Pwe-ce/W	<Ewe-Ece>/V	Rwe/Ohm	Rce/Ohm	Rwe-ce/Ohm		Ewe-Ece/V
1.00002e+06	0.900542	-0.503055	1.03152	29.1883	2.23454	3.78505	0.0788984	-0.316371	-0.0752436	1	9	0.000215982	0.000209382	0	-9.06785e-06	-9.16548e-05	0.000185668	1.11805	0.886747	0.886578	-0.0173025	16.234	1.86134	1.78712	-0.520358	0.846342	-0.472778	0.96944	-29.1883	-75.2436	134.697	154.288	-119.188	0.0000000E+000	0.0000000E+000	0.0000000E+000	119.188	0.0000000E+000	0.0000000E+000	0.0000000E+000	-119.188	0.0000000E+000	0.0000000E+000	0.0000000E+000	29.1883	0.0000000E+000	0.0000000E+000	0.0000000E+000	-29.1883	1.79015	60.8117	-9.06785e-06	0.000298634	-7.23142e-09	0.000298641	3.78514	47973.7	1.16168	47974.8
251206	0.875412	0.312435	0.929495	-19.6415	4.53256	3.78368	-0.129183	2.02782	0.229116	1	9	0.00243414	0.00261878	0	-6.92767e-05	-7.25448e-05	4.77396e-05	83.9903	0.0182297	0.0019086	-0.0181295	-18.5445	0.925369	0.87732	0.294306	1.01325	0.361631	1.07585	19.6415	229.116	641.96	681.62	-70.3585	0.0000000E+000	0.0000000E+000	0.0000000E+000	70.3585	0.0000000E+000	0.0000000E+000	0.0000000E+000	-70.3585	0.0000000E+000	0.0000000E+000	0.0000000E+000	-19.6415	0.0000000E+000	0.0000000E+000	0.0000000E+000	19.6415	2.8019	70.3585	-1.55765e-05	-0.000488788	9.37157e-09	-0.000488797	3.78375	29289.3	0.561566	29289.8
63093.8	1.4305	0.716231	1.59978	-26.5966	6.83253	3.78357	-0.114488	3.52192	0.705935	1	9	0.00543835	0.00339943	0	-0.00015295	-0.000206315	1.75924e-05	87.8935	0.0051751	0.000190224	-0.00517161	-26.4277	1.59764	1.43069	0.71106	0.558939	0.279854	0.625085	26.5966	705.935	1409.93	1576.78	-63.4034	0.0000000E+000	0.0000000E+000	0.0000000E+000	63.4034	0.0000000E+000	0.0000000E+000	0.0000000E+000	-63.4034	0.0000000E+000	0.0000000E+000	0.0000000E+000	-26.5966	0.0000000E+000	0.0000000E+000	0.0000000E+000	26.5966	1.99725	63.4034	-9.61442e-06	-0.000433173	2.36205e-08	-0.000433197	3.78377	33047.7	1.80206	33049.5
15847.7	2.19213	0.72748	2.30969	-18.3589	9.13454	3.78357	-0.107513	13.8049	1.36952	1	9	0.00488628	0.00211556	0	-0.000227733	-0.000282754	1.33131e-05	-125.719	0.00629292	-0.00367387	0.00510916	-18.5081	2.30782	2.18845	0.732589	0.410922	0.136369	0.432959	18.3589	1369.52	4126.81	4348.12	-71.6411	0.0000000E+000	0.0000000E+000	0.0000000E+000	71.6411	0.0000000E+000	0.0000000E+000	0.0000000E+000	-71.6411	0.0000000E+000	0.0000000E+000	0.0000000E+000	-18.3589	0.0000000E+000	0.0000000E+000	0.0000000E+000	18.3589	3.01332	71.6411	-1.16228e-05	-0.000406785	3.03999e-08	-0.000406815	3.78385	35191.6	2.62994	35194.2
3983.6	2.73484	0.76137	2.83884	-15.557	10.8591	3.78332	-0.185092	52.4745	3.77448	1	9	0.00460362	0.00162166	0	-0.00028325	-0.000301864	5.74267e-06	-12.3405	0.00354124	0.00345942	0.000756837	-15.553	2.84238	2.7383	0.762127	0.339351	0.0944742	0.352256	15.557	3774.48	13557.9	14073.5	-74.443	0.0000000E+000	0.0000000E+000	0.0000000E+000	74.443	0.0000000E+000	0.0000000E+000	0.0000000E+000	-74.443	0.0000000E+000	0.0000000E+000	0.0000000E+000	-15.557	0.0000000E+000	0.0000000E+000	0.0000000E+000	15.557	3.592	74.443	-1.57842e-05	-0.000700262	5.58726e-08	-0.000700318	3.78363	20440.3	1.63089	20441.9
1000.32	3.47195	1.10914	3.64481	-17.7165	13.7339	3.78348	-0.0971771	143.448	13.2837	1	10	0.00456763	0.00125319	0	-0.000348183	0.000175885	5.43851e-06	-78.5201	0.00433974	0.000863713	0.00425292	-17.776	3.64693	3.47281	1.11339	0.261351	0.0834906	0.274363	17.7165	13283.7	41582	43652.2	-72.2835	0.0000000E+000	0.0000000E+000	0.0000000E+000	72.2835	0.0000000E+000	0.0000000E+000	0.0000000E+000	-72.2835	0.0000000E+000	0.0000000E+000	0.0000000E+000	-17.7165	0.0000000E+000	0.0000000E+000	0.0000000E+000	17.7165	3.1303	72.2835	-1.11743e-05	-0.000367668	-1.70919e-08	-0.00036765	3.7833	38933.9	1.80994	38932.1
251.044	4.82946	1.30055	5.00151	-15.0719	16.435	3.78348	-0.096528	487.466	32.9604	1	10	0.00450386	0.000900499	0	-0.000420985	-0.000225424	9.42794e-06	-5.42625	0.0104697	0.0104228	0.000990058	-15.0518	5.01183	4.83988	1.30154	0.193062	0.0519904	0.19994	15.0719	32960.4	122396	126756	-74.9281	0.0000000E+000	0.0000000E+000	0.0000000E+000	74.9281	0.0000000E+000	0.0000000E+000	0.0000000E+000	-74.9281	0.0000000E+000	0.0000000E+000	0.0000000E+000	-15.0719	0.0000000E+000	0.0000000E+000	0.0000000E+000	15.0719	3.71341	74.9281	-1.12876e-05	-0.000365212	2.17598e-08	-0.000365234	3.78371	39195.7	2.33533	39198
[...]
0.0602816	7.11799	1.02613	7.19157	-8.20326	240.206	3.7835	-0.058488	2.57296e+06	52383	1	11	0.00508237	0.000706713	0	-0.00743483	-0.000110765	3.74227e-07	-29.2581	0.000529532	0.000461978	0.000258806	-8.20478	7.19206	7.11845	1.02639	0.137629	0.0198406	0.139052	8.20326	5.2383e+07	3.63367e+08	3.67123e+08	-81.7967	0.0000000E+000	0.0000000E+000	0.0000000E+000	81.7967	0.0000000E+000	0.0000000E+000	0.0000000E+000	-81.7967	0.0000000E+000	0.0000000E+000	0.0000000E+000	-8.20326	0.0000000E+000	0.0000000E+000	0.0000000E+000	8.20326	6.93672	81.7967	0.000000000000000E+000	-0.000221289	6.47841e-09	-0.000221296	3.78361	64688.4	1.8938	64690.3
0.00796479	9.51054	1.83226	9.68543	-10.9048	20329.1	3.78349	0.0014479	1.09058e+07	390297	1	11	0.00507506	0.000523989	0	-0.0441876	-9.16548e-05	4.58088e-07	-24.717	0.000874231	0.000794138	0.000365548	-10.906	9.68628	9.51133	1.83263	0.101384	0.0195321	0.103248	10.9048	3.90297e+08	2.02588e+09	2.06313e+09	-79.0952	0.0000000E+000	0.0000000E+000	0.0000000E+000	79.0952	0.0000000E+000	0.0000000E+000	0.0000000E+000	-79.0952	0.0000000E+000	0.0000000E+000	0.0000000E+000	-10.9048	0.0000000E+000	0.0000000E+000	0.0000000E+000	10.9048	5.1906	79.0952	-0.0367528	5.4781e-06	-1.32707e-10	5.47823e-06	3.78358	2.6131e+06	63.3021	2.61316e+06
0.0019912	10.8343	2.63243	11.1495	-13.6567	20329.1	3.78349	0.0014479	3.03633e+07	1.69259e+06	1	11	0.00508856	0.000456394	0	-0.0441876	-9.16548e-05	6.98302e-07	-60.8098	0.00153004	0.000746218	0.00133573	-13.6624	11.1505	10.835	2.63377	0.0871545	0.0211761	0.0896902	13.6567	1.69259e+09	6.9662e+09	7.16887e+09	-76.3433	0.0000000E+000	0.0000000E+000	0.0000000E+000	76.3433	0.0000000E+000	0.0000000E+000	0.0000000E+000	-76.3433	0.0000000E+000	0.0000000E+000	0.0000000E+000	-13.6567	0.0000000E+000	0.0000000E+000	0.0000000E+000	13.6567	4.11569	76.3433	0.000000000000000E+000	5.4781e-06	-1.32707e-10	5.47823e-06	3.78358	2.6131e+06	63.3021	2.61316e+06
0.000497799	11.3016	6.55073	13.0629	-30.0977	20329.1	3.78349	0.0014479	4.88063e+07	1.22737e+07	1	11	0.00509003	0.000389656	0	-0.0441876	-9.16548e-05	2.904e-06	13.7242	0.00745274	0.00723995	-0.00176815	-30.0751	13.0683	11.3089	6.54896	0.0662312	0.0383894	0.0765527	30.0977	1.22737e+10	2.11753e+10	2.44752e+10	-59.9023	0.0000000E+000	0.0000000E+000	0.0000000E+000	59.9023	0.0000000E+000	0.0000000E+000	0.0000000E+000	-59.9023	0.0000000E+000	0.0000000E+000	0.0000000E+000	-30.0977	0.0000000E+000	0.0000000E+000	0.0000000E+000	30.0977	1.72525	59.9023	0.000000000000000E+000	5.4781e-06	-1.32707e-10	5.47823e-06	3.78358	2.6131e+06	63.3021	2.61316e+06
9.95598e-05	13.6226	34.1783	36.7931	-68.269	20329.1	3.78349	0.0014479	4.67719e+07	4.03602e+07	1	11	0.0050851	0.000138208	0	-0.0441876	-9.16548e-05	1.3555e-06	55.7552	0.00980773	0.00551909	-0.00810747	-68.2563	36.7877	13.6282	34.1702	0.010063	0.0252474	0.027179	68.269	4.03602e+10	1.60866e+10	4.34479e+10	-21.731	0.0000000E+000	0.0000000E+000	0.0000000E+000	21.731	0.0000000E+000	0.0000000E+000	0.0000000E+000	-21.731	0.0000000E+000	0.0000000E+000	0.0000000E+000	-68.269	0.0000000E+000	0.0000000E+000	0.0000000E+000	68.269	0.398575	21.731	0.000000000000000E+000	5.4781e-06	-1.32707e-10	5.47823e-06	3.78358	2.6131e+06	63.3021	2.61316e+06