Folder: EIS/txt (part 72)

File: 18220_R279_UA654_SOC00_C07.mpt
EC-Lab ASCII FILE
Nb header lines : 65

Potentio Electrochemical Impedance Spectroscopy

Run on channel : 7 (SN 66126)
User :
CE vs. WE compliance from -10 V to 10 V
Electrode connection : standard
Potential control : Ewe
Ewe ctrl range : min = -10.00 V, max = 10.00 V
Safety Limits :
	Do not start on E overload
Acquisition started on : 10/08/2025 08:32:12.403
Technique started on : 10/08/2025 08:32:14.315
Loaded Setting File :  C:\Users\Celltest\OneDrive - store-dot.com\Documents\EC-Lab\Data\@Biologic Test Protocols\anode half cell EIS SOC00.mps
Saved on :
	File : 18220_R279_UA654_SOC00_C07.mpr
	Directory : C:\Users\Celltest\OneDrive - store-dot.com\Documents\EC-Lab\Data\Charmaine\
	Host : 169.254.61.224
Device : VMP-3e (SN .003165)
Address : USB
EC-LAB for windows v11.62 (software)
Internet server v27.00 (firmware)
Command interpretor v12.03 (firmware)
Electrode material :
Initial state :
Electrolyte :
Comments :
Electrode surface area : 0.001 cm²
Characteristic mass : 0.001 g
Equivalent Weight : 0.000 g/eq.
Density : 0.000 g/cm3
Volume (V) : 0.001 cm³
Record Ece
Cycle Definition : Charge/Discharge alternance
Mode                Single sine
E (V)               0.0000
vs.                 Eoc
tE (h:m:s)          0:00:0.0000
record              0
dI                  0.000
unit dI             mA
dt (s)              0.000
fi                  100.000
unit fi             kHz
ff                  10.000
unit ff             mHz
Nd                  6
Points              per decade
spacing             Logarithmic
Va (mV)             5.0
pw                  0.10
Na                  2
corr                0
E range min (V)     -10.000
E range max (V)     10.000
I Range             Auto
Bandwidth           5
nc cycles           0
goto Ns'            0
nr cycles           0
inc. cycle          0

freq/Hz	Re(Z)/Ohm	-Im(Z)/Ohm	|Z|/Ohm	Phase(Z)/deg	time/s	<Ewe>/V	<I>/mA	Cs/µF	Cp/µF	cycle number	I Range	|Ewe|/V	|I|/A	Ns	(Q-Qo)/mA.h	<Ece>/V	|Ece|/V	Phase(Zce)/deg	|Zce|/Ohm	Re(Zce)/Ohm	-Im(Zce)/Ohm	Phase(Zwe-ce)/deg	|Zwe-ce|/Ohm	Re(Zwe-ce)/Ohm	-Im(Zwe-ce)/Ohm	Re(Y)/Ohm-1	Im(Y)/Ohm-1	|Y|/Ohm-1	Phase(Y)/deg	Re(C)/nF	Im(C)/nF	|C|/nF	Phase(C)/deg	Re(M)	Im(M)	|M|	Phase(M)/deg	Re(Permittivity)	Im(Permittivity)	|Permittivity|	Phase(Permittivity)/deg	Re(Resistivity)/Ohm.cm	Im(Resistivity)/Ohm.cm	|Resistivity|/Ohm.cm	Phase(Resistivity)/deg	Re(Conductivity)/mS/cm	Im(Conductivity)/mS/cm	|Conductivity|/mS/cm	Phase(Conductivity)/deg	Tan(Delta)	Loss Angle(Delta)/deg	dq/mA.h	Pwe/W	Pce/W	Pwe-ce/W	<Ewe-Ece>/V	Rwe/Ohm	Rce/Ohm	Rwe-ce/Ohm		Ewe-Ece/V
100004	1.2185	0.229807	1.23998	-10.6804	1.91155	0.283354	0.0825597	6.92535	0.237869	1	9	0.00457562	0.00369008	0	8.92751e-06	-0.000460124	4.16115e-05	88.5205	0.0112766	0.000291144	-0.0112728	-10.1653	1.23823	1.21879	0.218534	0.792495	0.149463	0.806466	10.6804	237.869	1261.25	1283.48	-79.3196	0.0000000E+000	0.0000000E+000	0.0000000E+000	79.3196	0.0000000E+000	0.0000000E+000	0.0000000E+000	-79.3196	0.0000000E+000	0.0000000E+000	0.0000000E+000	-10.6804	0.0000000E+000	0.0000000E+000	0.0000000E+000	10.6804	5.30227	79.3196	8.92751e-06	2.33936e-05	-3.79877e-08	2.34316e-05	0.283814	3432.1	5.57323	3437.68
31621.1	1.40025	0.316477	1.43557	-12.7357	3.31054	0.283367	0.0796181	15.9038	0.772919	1	9	0.00506692	0.00352955	0	3.08291e-05	-0.000212144	1.487e-05	59.6572	0.00421299	0.00212828	-0.00363589	-12.5755	1.43685	1.40238	0.312841	0.679448	0.153565	0.696586	12.7357	772.919	3419.79	3506.04	-77.2643	0.0000000E+000	0.0000000E+000	0.0000000E+000	77.2643	0.0000000E+000	0.0000000E+000	0.0000000E+000	-77.2643	0.0000000E+000	0.0000000E+000	0.0000000E+000	-12.7357	0.0000000E+000	0.0000000E+000	0.0000000E+000	12.7357	4.42451	77.2643	9.95858e-06	2.25611e-05	-1.68905e-08	2.2578e-05	0.283579	3559.08	2.66452	3561.74
10002.2	1.64492	0.469722	1.71067	-15.9372	4.21154	0.283371	0.0841608	33.8752	2.55407	1	9	0.00493584	0.00288533	0	5.8093e-05	-0.000116767	1.05623e-05	16.8834	0.0036607	0.00350292	-0.00106316	-15.8709	1.71375	1.64842	0.468659	0.562098	0.160513	0.584567	15.9372	2554.07	8944.07	9301.59	-74.0628	0.0000000E+000	0.0000000E+000	0.0000000E+000	74.0628	0.0000000E+000	0.0000000E+000	0.0000000E+000	-74.0628	0.0000000E+000	0.0000000E+000	0.0000000E+000	-15.9372	0.0000000E+000	0.0000000E+000	0.0000000E+000	15.9372	3.50189	74.0628	4.08617e-06	2.38487e-05	-9.82718e-09	2.38585e-05	0.283487	3367.01	1.38742	3368.4
3163.08	1.99302	0.699733	2.11229	-19.3458	5.28663	0.283188	-0.0208449	71.908	7.89108	1	9	0.00485529	0.0022986	0	6.49005e-05	-0.000116767	4.51533e-06	-110.941	0.00196439	-0.000702098	0.00183463	-19.399	2.11223	1.99232	0.701568	0.44669	0.156829	0.47342	19.3458	7891.08	22475.8	23820.8	-70.6542	0.0000000E+000	0.0000000E+000	0.0000000E+000	70.6542	0.0000000E+000	0.0000000E+000	0.0000000E+000	-70.6542	0.0000000E+000	0.0000000E+000	0.0000000E+000	-19.3458	0.0000000E+000	0.0000000E+000	0.0000000E+000	19.3458	2.84826	70.6542	-3.86726e-06	-5.90303e-06	2.43399e-09	-5.90546e-06	0.283305	13585.5	5.60169	13591.1
1000.32	2.4671	1.22211	2.7532	-26.3522	6.6398	0.283268	0.0497919	130.188	25.6517	1	9	0.00475825	0.00172826	0	8.1552e-05	-9.76912e-05	8.32775e-06	-62.9637	0.00481858	0.00219031	0.004292	-26.4119	2.75707	2.46929	1.2264	0.325469	0.161226	0.363213	26.3522	25651.7	51783.4	57788.7	-63.6478	0.0000000E+000	0.0000000E+000	0.0000000E+000	63.6478	0.0000000E+000	0.0000000E+000	0.0000000E+000	-63.6478	0.0000000E+000	0.0000000E+000	0.0000000E+000	-26.3522	0.0000000E+000	0.0000000E+000	0.0000000E+000	26.3522	2.01872	63.6478	4.37353e-06	1.41045e-05	-4.86423e-09	1.41093e-05	0.283366	5689.04	1.96199	5691
316.316	3.37465	2.39662	4.13909	-35.3817	8.23709	0.28328	-0.0142165	209.942	70.3863	1	10	0.00476384	0.00115094	0	8.69974e-05	-0.000326596	3.48609e-05	44.9695	0.0302891	0.021429	-0.0214062	-34.9688	4.14427	3.39608	2.37521	0.196979	0.139891	0.241599	35.3817	70386.3	99110.2	121561	-54.6183	0.0000000E+000	0.0000000E+000	0.0000000E+000	54.6183	0.0000000E+000	0.0000000E+000	0.0000000E+000	-54.6183	0.0000000E+000	0.0000000E+000	0.0000000E+000	-35.3817	0.0000000E+000	0.0000000E+000	0.0000000E+000	35.3817	1.40809	54.6183	-1.22529e-06	-4.02723e-06	4.64304e-09	-4.03187e-06	0.283606	19926.2	22.9731	19949.1
100.032	5.68091	4.48151	7.23579	-38.2689	9.58478	0.283285	-0.0131629	355.023	136.186	1	10	0.00473223	0.000654003	0	8.33965e-05	-0.000307521	8.13932e-06	-41.3924	0.0124454	0.00933652	0.00822904	-38.2743	7.24822	5.69025	4.48974	0.108504	0.0855957	0.138202	38.2689	136186	172634	219885	-51.7311	0.0000000E+000	0.0000000E+000	0.0000000E+000	51.7311	0.0000000E+000	0.0000000E+000	0.0000000E+000	-51.7311	0.0000000E+000	0.0000000E+000	0.0000000E+000	-38.2689	0.0000000E+000	0.0000000E+000	0.0000000E+000	38.2689	1.26763	51.7311	-1.98422e-06	-3.72887e-06	4.04788e-09	-3.73291e-06	0.283593	21521.5	23.3626	21544.8
[...]
1.00006	18.3528	1.90346	18.4512	-5.92128	19.653	0.283329	-0.00037741	83608	889.79	1	12	0.00472867	0.00025628	0	6.65514e-05	-0.0004792	1.98188e-06	60.1057	0.00773327	0.00385428	-0.00670433	-5.89935	18.4544	18.3566	1.89676	0.0539078	0.00559107	0.054197	5.92128	889791	8.57915e+06	8.62517e+06	-84.0787	0.0000000E+000	0.0000000E+000	0.0000000E+000	84.0787	0.0000000E+000	0.0000000E+000	0.0000000E+000	-84.0787	0.0000000E+000	0.0000000E+000	0.0000000E+000	-5.92128	0.0000000E+000	0.0000000E+000	0.0000000E+000	5.92128	9.64177	84.0787	-9.17497e-06	-1.06931e-07	1.80855e-10	-1.07112e-07	0.283809	750721	1269.71	751990
0.316193	19.5911	1.95025	19.6879	-5.68495	33.9952	0.283331	-0.00171386	258093	2532.56	1	12	0.00472845	0.00024017	0	7.22714e-05	-2.13895e-05	5.05958e-07	68.6284	0.00210666	0.000767699	-0.0019618	-5.67905	19.6885	19.5919	1.94829	0.0505428	0.00503143	0.0507926	5.68495	2.53256e+06	2.54406e+07	2.55663e+07	-84.315	0.0000000E+000	0.0000000E+000	0.0000000E+000	84.315	0.0000000E+000	0.0000000E+000	0.0000000E+000	-84.315	0.0000000E+000	0.0000000E+000	0.0000000E+000	-5.68495	0.0000000E+000	0.0000000E+000	0.0000000E+000	5.68495	10.0454	84.315	1.33472e-05	-4.8559e-07	3.66587e-11	-4.85627e-07	0.283352	165317	12.4803	165329
0.0999041	20.7893	2.33534	20.92	-6.40938	79.2031	0.283329	0.000700865	682162	8500.85	1	12	0.0047275	0.00022598	0	0.000149187	-4.04649e-05	2.10837e-06	-13.2554	0.00932989	0.00908132	0.00213927	-6.41243	20.9293	20.7983	2.33748	0.0475023	0.00533612	0.0478011	6.40938	8.50085e+06	7.56749e+07	7.61509e+07	-83.5906	0.0000000E+000	0.0000000E+000	0.0000000E+000	83.5906	0.0000000E+000	0.0000000E+000	0.0000000E+000	-83.5906	0.0000000E+000	0.0000000E+000	0.0000000E+000	-6.40938	0.0000000E+000	0.0000000E+000	0.0000000E+000	6.40938	8.90204	83.5906	1.82663e-05	1.98575e-07	-2.83604e-11	1.98604e-07	0.283369	404256	57.7357	404314
0.0315922	21.9297	4.15535	22.3199	-10.7295	222.088	0.283335	0.000170685	1.21236e+06	42020.8	1	12	0.00472725	0.000211796	0	-0.000138102	-2.13895e-05	1.37621e-06	105.784	0.0064978	-0.00176744	-0.0062528	-10.7146	22.317	21.9279	4.14909	0.0440198	0.00834111	0.0448031	10.7295	4.20208e+07	2.21763e+08	2.25709e+08	-79.2705	0.0000000E+000	0.0000000E+000	0.0000000E+000	79.2705	0.0000000E+000	0.0000000E+000	0.0000000E+000	-79.2705	0.0000000E+000	0.0000000E+000	0.0000000E+000	-10.7295	0.0000000E+000	0.0000000E+000	0.0000000E+000	10.7295	5.27745	79.2705	-0.000181128	4.8361e-08	-3.65086e-12	4.83647e-08	0.283357	1.65999e+06	125.316	1.66012e+06
0.0100092	24.3584	9.61806	26.1885	-21.5469	673.311	0.283333	-0.00143351	1.65324e+06	222991	1	12	0.00472921	0.000180583	0	-0.000216639	-7.86157e-05	1.4838e-06	18.3015	0.0082167	0.00780108	-0.00258018	-21.5354	26.1948	24.3662	9.61548	0.0355162	0.0140238	0.0381846	21.5469	2.22991e+08	5.6474e+08	6.07171e+08	-68.4531	0.0000000E+000	0.0000000E+000	0.0000000E+000	68.4531	0.0000000E+000	0.0000000E+000	0.0000000E+000	-68.4531	0.0000000E+000	0.0000000E+000	0.0000000E+000	-21.5469	0.0000000E+000	0.0000000E+000	0.0000000E+000	21.5469	2.53257	68.4531	0.000230639	-4.06161e-07	1.12696e-10	-4.06273e-07	0.283412	197650	54.8415	197705

File: 18221_R279_UA654_SOC00_C08.mpt
EC-Lab ASCII FILE
Nb header lines : 65

Potentio Electrochemical Impedance Spectroscopy

Run on channel : 8 (SN 65398)
User :
CE vs. WE compliance from -10 V to 10 V
Electrode connection : standard
Potential control : Ewe
Ewe ctrl range : min = -10.00 V, max = 10.00 V
Safety Limits :
	Do not start on E overload
Acquisition started on : 10/08/2025 08:32:01.208
Technique started on : 10/08/2025 08:32:03.119
Loaded Setting File :  C:\Users\Celltest\OneDrive - store-dot.com\Documents\EC-Lab\Data\@Biologic Test Protocols\anode half cell EIS SOC00.mps
Saved on :
	File : 18221_R279_UA654_SOC00_C08.mpr
	Directory : C:\Users\Celltest\OneDrive - store-dot.com\Documents\EC-Lab\Data\Charmaine\
	Host : 169.254.61.224
Device : VMP-3e (SN .003165)
Address : USB
EC-LAB for windows v11.62 (software)
Internet server v27.00 (firmware)
Command interpretor v12.03 (firmware)
Electrode material :
Initial state :
Electrolyte :
Comments :
Electrode surface area : 0.001 cm²
Characteristic mass : 0.001 g
Equivalent Weight : 0.000 g/eq.
Density : 0.000 g/cm3
Volume (V) : 0.001 cm³
Record Ece
Cycle Definition : Charge/Discharge alternance
Mode                Single sine
E (V)               0.0000
vs.                 Eoc
tE (h:m:s)          0:00:0.0000
record              0
dI                  0.000
unit dI             mA
dt (s)              0.000
fi                  100.000
unit fi             kHz
ff                  10.000
unit ff             mHz
Nd                  6
Points              per decade
spacing             Logarithmic
Va (mV)             5.0
pw                  0.10
Na                  2
corr                0
E range min (V)     -10.000
E range max (V)     10.000
I Range             Auto
Bandwidth           5
nc cycles           0
goto Ns'            0
nr cycles           0
inc. cycle          0

freq/Hz	Re(Z)/Ohm	-Im(Z)/Ohm	|Z|/Ohm	Phase(Z)/deg	time/s	<Ewe>/V	<I>/mA	Cs/µF	Cp/µF	cycle number	I Range	|Ewe|/V	|I|/A	Ns	(Q-Qo)/mA.h	<Ece>/V	|Ece|/V	Phase(Zce)/deg	|Zce|/Ohm	Re(Zce)/Ohm	-Im(Zce)/Ohm	Phase(Zwe-ce)/deg	|Zwe-ce|/Ohm	Re(Zwe-ce)/Ohm	-Im(Zwe-ce)/Ohm	Re(Y)/Ohm-1	Im(Y)/Ohm-1	|Y|/Ohm-1	Phase(Y)/deg	Re(C)/nF	Im(C)/nF	|C|/nF	Phase(C)/deg	Re(M)	Im(M)	|M|	Phase(M)/deg	Re(Permittivity)	Im(Permittivity)	|Permittivity|	Phase(Permittivity)/deg	Re(Resistivity)/Ohm.cm	Im(Resistivity)/Ohm.cm	|Resistivity|/Ohm.cm	Phase(Resistivity)/deg	Re(Conductivity)/mS/cm	Im(Conductivity)/mS/cm	|Conductivity|/mS/cm	Phase(Conductivity)/deg	Tan(Delta)	Loss Angle(Delta)/deg	dq/mA.h	Pwe/W	Pce/W	Pwe-ce/W	<Ewe-Ece>/V	Rwe/Ohm	Rce/Ohm	Rwe-ce/Ohm		Ewe-Ece/V
100004	1.00091	0.269592	1.03658	-15.0746	1.91052	0.282828	0.0141021	5.90333	0.399303	1	9	0.00485486	0.00468352	0	-1.33843e-06	-0.00020366	6.13304e-05	98.0093	0.0130949	-0.00182457	-0.0129672	-14.4055	1.03152	0.999088	0.256625	0.93151	0.250899	0.964708	15.0746	399.303	1482.49	1535.32	-74.9254	0.0000000E+000	0.0000000E+000	0.0000000E+000	74.9254	0.0000000E+000	0.0000000E+000	0.0000000E+000	-74.9254	0.0000000E+000	0.0000000E+000	0.0000000E+000	-15.0746	0.0000000E+000	0.0000000E+000	0.0000000E+000	15.0746	3.7127	74.9254	-1.33843e-06	3.98848e-06	-2.87203e-09	3.99135e-06	0.283032	20055.7	14.4418	20070.2
31621.1	1.21842	0.398135	1.28182	-18.0955	3.30953	0.282835	0.0171155	12.6419	1.21961	1	9	0.00508473	0.00396681	0	-7.49557e-06	6.3091e-06	2.48725e-05	56.3112	0.00627016	0.00347794	-0.00521716	-17.8259	1.28352	1.2219	0.392917	0.741556	0.242313	0.780142	18.0955	1219.61	3732.39	3926.6	-71.9045	0.0000000E+000	0.0000000E+000	0.0000000E+000	71.9045	0.0000000E+000	0.0000000E+000	0.0000000E+000	-71.9045	0.0000000E+000	0.0000000E+000	0.0000000E+000	-18.0955	0.0000000E+000	0.0000000E+000	0.0000000E+000	18.0955	3.06032	71.9045	5.55003e-06	4.84086e-06	1.07983e-10	4.84075e-06	0.282829	16525.1	0.36862	16524.8
10002.2	1.53981	0.588331	1.64838	-20.9108	4.46056	0.282844	0.0143625	27.0459	3.44533	1	9	0.00490341	0.00297468	0	2.40263e-06	-1.2779e-05	1.12074e-05	-120.515	0.00376759	-0.00191307	0.00324575	-21.04	1.64776	1.5379	0.591577	0.5667	0.216524	0.606656	20.9108	3445.33	9017.3	9653.08	-69.0892	0.0000000E+000	0.0000000E+000	0.0000000E+000	69.0892	0.0000000E+000	0.0000000E+000	0.0000000E+000	-69.0892	0.0000000E+000	0.0000000E+000	0.0000000E+000	-20.9108	0.0000000E+000	0.0000000E+000	0.0000000E+000	20.9108	2.61726	69.0892	2.9466e-06	4.06234e-06	-1.83537e-10	4.06252e-06	0.282857	19693.3	0.889746	19694.2
3163.08	2.00069	0.885269	2.1878	-23.8685	5.48561	0.282529	-0.12749	56.8374	9.30614	1	9	0.00486967	0.00222583	0	-1.47098e-05	6.3091e-06	8.73121e-06	10.2746	0.00392268	0.00385977	-0.000699672	-23.8109	2.19105	2.00455	0.88457	0.417989	0.184952	0.45708	23.8685	9306.14	21031.7	22998.6	-66.1315	0.0000000E+000	0.0000000E+000	0.0000000E+000	66.1315	0.0000000E+000	0.0000000E+000	0.0000000E+000	-66.1315	0.0000000E+000	0.0000000E+000	0.0000000E+000	-23.8685	0.0000000E+000	0.0000000E+000	0.0000000E+000	23.8685	2.25998	66.1315	-1.44969e-05	-3.60196e-05	-8.04345e-10	-3.60187e-05	0.282523	2216.1	0.0494871	2216.05
1000.32	2.67008	1.43726	3.03233	-28.2929	6.83979	0.282733	0.0507834	110.699	24.8693	1	9	0.00476708	0.00157208	0	4.15744e-06	0.000235366	4.88552e-06	59.4285	0.00310767	0.0015806	-0.00267569	-28.2342	3.03246	2.67166	1.43459	0.290382	0.156308	0.329779	28.2929	24869.3	46201	52469.1	-61.7071	0.0000000E+000	0.0000000E+000	0.0000000E+000	61.7071	0.0000000E+000	0.0000000E+000	0.0000000E+000	-61.7071	0.0000000E+000	0.0000000E+000	0.0000000E+000	-28.2929	0.0000000E+000	0.0000000E+000	0.0000000E+000	28.2929	1.85776	61.7071	6.73037e-06	1.43582e-05	1.19527e-08	1.43462e-05	0.282498	5567.43	4.6347	5562.8
316.316	3.81082	2.4679	4.54014	-32.9273	8.43501	0.282769	-0.0233276	203.878	60.2405	1	10	0.00478756	0.00105449	0	-5.26263e-07	0.000159014	1.03241e-05	-36.1908	0.00979054	0.00790151	0.00578108	-32.9343	4.54992	3.81872	2.47369	0.184876	0.119726	0.220257	32.9273	60240.5	93020.5	110823	-57.0727	0.0000000E+000	0.0000000E+000	0.0000000E+000	57.0727	0.0000000E+000	0.0000000E+000	0.0000000E+000	-57.0727	0.0000000E+000	0.0000000E+000	0.0000000E+000	-32.9273	0.0000000E+000	0.0000000E+000	0.0000000E+000	32.9273	1.54415	57.0727	-2.96666e-06	-6.59634e-06	-3.70941e-09	-6.59263e-06	0.28261	12121.6	6.81653	12114.8
100.032	6.13617	4.06326	7.35953	-33.5118	9.78282	0.282761	-0.021888	391.567	119.359	1	10	0.00473782	0.000643767	0	-9.76038e-06	0.000101749	2.51205e-05	-17.6219	0.0390211	0.0371901	0.011813	-33.4291	7.39707	6.17336	4.07508	0.113291	0.0750196	0.135878	33.5118	119359	180251	216188	-56.4882	0.0000000E+000	0.0000000E+000	0.0000000E+000	56.4882	0.0000000E+000	0.0000000E+000	0.0000000E+000	-56.4882	0.0000000E+000	0.0000000E+000	0.0000000E+000	-33.5118	0.0000000E+000	0.0000000E+000	0.0000000E+000	33.5118	1.51016	56.4882	-2.07674e-06	-6.18908e-06	-2.22709e-09	-6.18685e-06	0.282659	12918.5	4.64863	12913.9
[...]
1.00006	16.0406	1.54117	16.1144	-5.4881	19.8438	0.282789	-0.00618891	103262	944.522	1	12	0.00474745	0.000294608	0	-4.56459e-05	0.000139925	3.71589e-06	-44.5377	0.012613	0.0089904	0.00884649	-5.51634	16.1242	16.0496	1.55002	0.0617717	0.00593499	0.0620561	5.4881	944522	9.83064e+06	9.87591e+06	-84.5119	0.0000000E+000	0.0000000E+000	0.0000000E+000	84.5119	0.0000000E+000	0.0000000E+000	0.0000000E+000	-84.5119	0.0000000E+000	0.0000000E+000	0.0000000E+000	-5.4881	0.0000000E+000	0.0000000E+000	0.0000000E+000	5.4881	10.4081	84.5119	-3.88603e-06	-1.75016e-06	-8.65987e-10	-1.74929e-06	0.282649	45692.8	22.6091	45670.2
0.316193	17.0377	1.57761	17.1106	-5.29023	34.1869	0.282801	-0.00372342	319057	2712.3	1	12	0.00474549	0.000277343	0	-2.28636e-05	8.26613e-05	4.30632e-06	14.3759	0.0155271	0.0150409	-0.0038551	-5.27275	17.1252	17.0527	1.57376	0.0581944	0.00538853	0.0584434	5.29023	2.7123e+06	2.9292e+07	2.94173e+07	-84.7098	0.0000000E+000	0.0000000E+000	0.0000000E+000	84.7098	0.0000000E+000	0.0000000E+000	0.0000000E+000	-84.7098	0.0000000E+000	0.0000000E+000	0.0000000E+000	-5.29023	0.0000000E+000	0.0000000E+000	0.0000000E+000	5.29023	10.7997	84.7098	5.71434e-06	-1.05299e-06	-3.07783e-10	-1.05268e-06	0.282719	75952	22.2004	75929.8
0.0999041	17.8955	2.08655	18.0167	-6.65043	79.3951	0.282789	-0.0011765	763500	10240.3	1	12	0.00474752	0.000263506	0	-0.000159834	0.00019719	2.28431e-06	-1.18928	0.00866889	0.00866703	0.000179926	-6.64781	18.0254	17.9042	2.08673	0.0551304	0.00642799	0.0555039	6.65043	1.02403e+07	8.7827e+07	8.8422e+07	-83.3496	0.0000000E+000	0.0000000E+000	0.0000000E+000	83.3496	0.0000000E+000	0.0000000E+000	0.0000000E+000	-83.3496	0.0000000E+000	0.0000000E+000	0.0000000E+000	-6.65043	0.0000000E+000	0.0000000E+000	0.0000000E+000	6.65043	8.57662	83.3496	-8.03641e-05	-3.32702e-07	-2.31994e-10	-3.3247e-07	0.282592	240364	167.607	240197
0.0315922	19.0227	4.19159	19.479	-12.4264	222.278	0.282788	-0.00335431	1.20188e+06	55652.7	1	12	0.00474985	0.000243845	0	-0.000352121	4.44852e-05	3.27337e-06	16.0742	0.013424	0.0128992	-0.00371686	-12.4076	19.4908	19.0356	4.18787	0.0501347	0.011047	0.0513374	12.4264	5.56527e+07	2.52568e+08	2.58627e+08	-77.5736	0.0000000E+000	0.0000000E+000	0.0000000E+000	77.5736	0.0000000E+000	0.0000000E+000	0.0000000E+000	-77.5736	0.0000000E+000	0.0000000E+000	0.0000000E+000	-12.4264	0.0000000E+000	0.0000000E+000	0.0000000E+000	12.4264	4.53829	77.5736	2.84353e-06	-9.48556e-07	-1.49217e-10	-9.48407e-07	0.282743	84305.9	13.2621	84292.6
0.0100092	21.4893	9.42984	23.4673	-23.6926	673.502	0.282788	-0.00016537	1.68623e+06	272271	1	12	0.00474794	0.000202322	0	0.000601588	0.000120837	2.33092e-06	-4.15584	0.0115209	0.0114906	0.000834913	-23.6832	23.4781	21.5008	9.43068	0.0390209	0.017123	0.0426125	23.6926	2.72271e+08	6.20468e+08	6.77578e+08	-66.3074	0.0000000E+000	0.0000000E+000	0.0000000E+000	66.3074	0.0000000E+000	0.0000000E+000	0.0000000E+000	-66.3074	0.0000000E+000	0.0000000E+000	0.0000000E+000	-23.6926	0.0000000E+000	0.0000000E+000	0.0000000E+000	23.6926	2.27887	66.3074	0.000375515	-4.67647e-08	-1.99829e-11	-4.67447e-08	0.282667	1.71003e+06	730.709	1.7093e+06