Folder: EIS/txt (part 143)

File: 18946_R308_UA705_SOC00_C03.mpt
EC-Lab ASCII FILE
Nb header lines : 65

Potentio Electrochemical Impedance Spectroscopy

Run on channel : 3 (SN 65921)
Grouped channel(s) : 1, 2, 3, 4, 5
User :
CE vs. WE compliance from -10 V to 10 V
Electrode connection : standard
Potential control : Ewe
Ewe ctrl range : min = -10.00 V, max = 10.00 V
Safety Limits :
	Do not start on E overload
Acquisition started on : 11/04/2025 15:30:07.703
Loaded Setting File :  C:\Users\Celltest\OneDrive - store-dot.com\Documents\EC-Lab\Data\@Biologic Test Protocols\anode half cell EIS SOC00.mps
Saved on :
	File : 18944_R308_UA705_SOC00_C03.mpr
	Directory : C:\Users\Celltest\OneDrive - store-dot.com\Documents\EC-Lab\Data\Charmaine\
	Host : 169.254.61.224
Device : VMP-3e (SN .003165)
Address : USB
EC-LAB for windows v11.62 (software)
Internet server v27.00 (firmware)
Command interpretor v12.03 (firmware)
Electrode material :
Initial state :
Electrolyte :
Comments :
Electrode surface area : 0.001 cm²
Characteristic mass : 0.001 g
Equivalent Weight : 0.000 g/eq.
Density : 0.000 g/cm3
Volume (V) : 0.001 cm³
Record Ece
Cycle Definition : Charge/Discharge alternance
Mode                Single sine
E (V)               0.0000
vs.                 Eoc
tE (h:m:s)          0:00:0.0000
record              0
dI                  0.000
unit dI             mA
dt (s)              0.000
fi                  100.000
unit fi             kHz
ff                  10.000
unit ff             mHz
Nd                  6
Points              per decade
spacing             Logarithmic
Va (mV)             5.0
pw                  0.10
Na                  2
corr                0
E range min (V)     -10.000
E range max (V)     10.000
I Range             Auto
Bandwidth           5
nc cycles           0
goto Ns'            0
nr cycles           0
inc. cycle          0

freq/Hz	Re(Z)/Ohm	-Im(Z)/Ohm	|Z|/Ohm	Phase(Z)/deg	time/s	<Ewe>/V	<I>/mA	Cs/µF	Cp/µF	cycle number	I Range	|Ewe|/V	|I|/A	Ns	(Q-Qo)/mA.h	<Ece>/V	|Ece|/V	Phase(Zce)/deg	|Zce|/Ohm	Re(Zce)/Ohm	-Im(Zce)/Ohm	Phase(Zwe-ce)/deg	|Zwe-ce|/Ohm	Re(Zwe-ce)/Ohm	-Im(Zwe-ce)/Ohm	Re(Y)/Ohm-1	Im(Y)/Ohm-1	|Y|/Ohm-1	Phase(Y)/deg	Re(C)/nF	Im(C)/nF	|C|/nF	Phase(C)/deg	Re(M)	Im(M)	|M|	Phase(M)/deg	Re(Permittivity)	Im(Permittivity)	|Permittivity|	Phase(Permittivity)/deg	Re(Resistivity)/Ohm.cm	Im(Resistivity)/Ohm.cm	|Resistivity|/Ohm.cm	Phase(Resistivity)/deg	Re(Conductivity)/mS/cm	Im(Conductivity)/mS/cm	|Conductivity|/mS/cm	Phase(Conductivity)/deg	Tan(Delta)	Loss Angle(Delta)/deg	dq/mA.h	Pwe/W	Pce/W	Pwe-ce/W	<Ewe-Ece>/V	Rwe/Ohm	Rce/Ohm	Rwe-ce/Ohm		Ewe-Ece/V
100004	2.14599	1.47405	2.60347	-34.4847	1.72654	0.192661	-0.031072	1.07967	0.346106	1	9	0.0046494	0.00178585	0	-9.60472e-06	-0.000223386	3.2751e-05	95.1282	0.0183392	-0.00163925	-0.0182658	-34.1724	2.59182	2.14435	1.45578	0.316607	0.217473	0.384102	34.4847	346.106	503.877	611.295	-55.5153	0.0000000E+000	0.0000000E+000	0.0000000E+000	55.5153	0.0000000E+000	0.0000000E+000	0.0000000E+000	-55.5153	0.0000000E+000	0.0000000E+000	0.0000000E+000	-34.4847	0.0000000E+000	0.0000000E+000	0.0000000E+000	34.4847	1.45584	55.5153	-9.60472e-06	-5.98637e-06	6.94105e-09	-5.99331e-06	0.192885	6200.49	7.18931	6207.68
31621.1	3.64822	2.52607	4.4374	-34.6991	3.12357	0.192668	-0.0337571	1.9925	0.645699	1	9	0.0050156	0.0011303	0	-1.7643e-05	2.48367e-05	1.69048e-05	-64.3462	0.014956	0.00647494	0.0134818	-34.7944	4.45041	3.6547	2.53955	0.185278	0.128288	0.225357	34.6991	645.698	932.537	1134.26	-55.3009	0.0000000E+000	0.0000000E+000	0.0000000E+000	55.3009	0.0000000E+000	0.0000000E+000	0.0000000E+000	-55.3009	0.0000000E+000	0.0000000E+000	0.0000000E+000	-34.6991	0.0000000E+000	0.0000000E+000	0.0000000E+000	34.6991	1.44423	55.3009	-2.72667e-06	-6.5039e-06	-8.38415e-10	-6.50307e-06	0.192643	5707.46	0.735746	5706.73
10002.2	5.8709	3.26095	6.71575	-29.0497	4.42752	0.192744	-0.037241	4.87955	1.15048	1	10	0.00526174	0.000783493	0	-2.89535e-05	-3.24455e-05	1.28363e-05	-88.6742	0.0163834	0.000379078	0.016379	-29.1701	6.72404	5.87128	3.27733	0.130172	0.0723029	0.148904	29.0497	1150.48	2071.28	2369.35	-60.9503	0.0000000E+000	0.0000000E+000	0.0000000E+000	60.9503	0.0000000E+000	0.0000000E+000	0.0000000E+000	-60.9503	0.0000000E+000	0.0000000E+000	0.0000000E+000	-29.0497	0.0000000E+000	0.0000000E+000	0.0000000E+000	29.0497	1.80036	60.9503	-1.83639e-06	-7.17796e-06	1.2083e-09	-7.17916e-06	0.192776	5175.58	0.871232	5176.45
3163.08	8.35469	3.93938	9.23686	-25.2447	5.32562	0.192606	-0.0220532	12.7727	2.32322	1	10	0.00498244	0.000539409	0	-3.67302e-05	5.74261e-06	3.10874e-06	81.0471	0.00576323	0.000896887	-0.00569301	-25.2104	9.23524	8.35559	3.93369	0.0979223	0.0461721	0.108262	25.2447	2323.22	4927.1	5447.35	-64.7553	0.0000000E+000	0.0000000E+000	0.0000000E+000	64.7553	0.0000000E+000	0.0000000E+000	0.0000000E+000	-64.7553	0.0000000E+000	0.0000000E+000	0.0000000E+000	-25.2447	0.0000000E+000	0.0000000E+000	0.0000000E+000	25.2447	2.12081	64.7553	-1.68647e-06	-4.24759e-06	-1.26643e-10	-4.24746e-06	0.1926	8733.68	0.260397	8733.42
1000.32	11.1027	5.42275	12.3562	-26.0317	6.67878	0.192703	0.00077124	29.3401	5.65106	1	10	0.00486865	0.000394024	0	-3.62147e-05	-1.33515e-05	8.92366e-06	23.8531	0.0226475	0.020713	-0.0091585	-25.9515	12.3708	11.1234	5.41359	0.0727207	0.0355181	0.080931	26.0317	5651.06	11570.1	12876.4	-63.9683	0.0000000E+000	0.0000000E+000	0.0000000E+000	63.9683	0.0000000E+000	0.0000000E+000	0.0000000E+000	-63.9683	0.0000000E+000	0.0000000E+000	0.0000000E+000	-26.0317	0.0000000E+000	0.0000000E+000	0.0000000E+000	26.0317	2.04743	63.9683	1.71606e-07	1.4862e-07	-1.02972e-11	1.48631e-07	0.192716	249861	17.3117	249878
316.316	15.5993	8.73073	17.8764	-29.2352	8.02806	0.192707	0.00100243	57.63	13.7465	1	10	0.00484472	0.000271012	0	-3.58627e-05	6.30248e-05	8.24527e-06	-75.2873	0.0304239	0.00772682	0.0294264	-29.3053	17.8975	15.607	8.76016	0.0488143	0.0273207	0.0559398	29.2352	13746.5	24561	28146.2	-60.7648	0.0000000E+000	0.0000000E+000	0.0000000E+000	60.7648	0.0000000E+000	0.0000000E+000	0.0000000E+000	-60.7648	0.0000000E+000	0.0000000E+000	0.0000000E+000	-29.2352	0.0000000E+000	0.0000000E+000	0.0000000E+000	29.2352	1.78671	60.7648	-5.5726e-08	1.93176e-07	6.3178e-11	1.93113e-07	0.192644	192240	62.872	192177
100.032	24.8013	12.1137	27.6016	-26.0323	9.61781	0.192734	-0.0108493	131.342	25.2982	1	11	0.00484766	0.00017563	0	-3.75202e-05	-0.00014701	1.05515e-05	-11.8054	0.0600784	0.0588076	0.0122914	-26.0017	27.6599	24.8602	12.126	0.0325541	0.0159004	0.0362298	26.0323	25298.2	51794.9	57643	-63.9677	0.0000000E+000	0.0000000E+000	0.0000000E+000	63.9677	0.0000000E+000	0.0000000E+000	0.0000000E+000	-63.9677	0.0000000E+000	0.0000000E+000	0.0000000E+000	-26.0323	0.0000000E+000	0.0000000E+000	0.0000000E+000	26.0323	2.04738	63.9677	-1.27247e-06	-2.09103e-06	1.59495e-09	-2.09262e-06	0.192881	17764.7	13.5502	17778.3
[...]
1.00006	42.3787	2.57176	42.4567	-3.47275	19.115	0.192748	-0.00716478	61881.6	227.055	1	12	0.00483558	0.000113894	0	-5.99675e-05	-0.00024248	2.48177e-06	32.885	0.0217901	0.0182985	-0.011831	-3.45532	42.4743	42.397	2.55993	0.0235102	0.00142672	0.0235534	3.47275	227055	3.74152e+06	3.7484e+06	-86.5273	0.0000000E+000	0.0000000E+000	0.0000000E+000	86.5273	0.0000000E+000	0.0000000E+000	0.0000000E+000	-86.5273	0.0000000E+000	0.0000000E+000	0.0000000E+000	-3.47275	0.0000000E+000	0.0000000E+000	0.0000000E+000	3.47275	16.4785	86.5273	-6.99504e-06	-1.381e-06	1.73732e-09	-1.38273e-06	0.192991	26902.2	33.8434	26936
0.316193	44.1921	3.39846	44.3225	-4.39751	33.4577	0.192745	-0.00657842	148110	870.765	1	12	0.0048381	0.000109157	0	-9.76133e-05	4.39307e-05	2.07682e-06	-23.9435	0.0190261	0.0173888	0.00772145	-4.40574	44.3405	44.2094	3.40618	0.0224955	0.00172995	0.0225619	4.39751	870766	1.1323e+07	1.13565e+07	-85.6025	0.0000000E+000	0.0000000E+000	0.0000000E+000	85.6025	0.0000000E+000	0.0000000E+000	0.0000000E+000	-85.6025	0.0000000E+000	0.0000000E+000	0.0000000E+000	-4.39751	0.0000000E+000	0.0000000E+000	0.0000000E+000	4.39751	13.0035	85.6025	-1.31176e-05	-1.26796e-06	-2.88995e-10	-1.26767e-06	0.192701	29299.6	6.678	29292.9
0.0999041	46.0704	5.59018	46.4083	-6.91845	78.6654	0.192744	-0.00446639	284978	4134.97	1	12	0.00483777	0.000104244	0	-0.000110679	-0.00014701	1.30408e-06	81.2637	0.0125099	0.00190009	-0.0123648	-6.90302	46.4087	46.0723	5.57782	0.021391	0.00259558	0.0215479	6.91845	4.13497e+06	3.40775e+07	3.43274e+07	-83.0815	0.0000000E+000	0.0000000E+000	0.0000000E+000	83.0815	0.0000000E+000	0.0000000E+000	0.0000000E+000	-83.0815	0.0000000E+000	0.0000000E+000	0.0000000E+000	-6.91845	0.0000000E+000	0.0000000E+000	0.0000000E+000	6.91845	8.2413	83.0815	-6.16193e-07	-8.60869e-07	6.56603e-10	-8.61525e-07	0.192891	43154.3	32.9147	43187.3
0.0315922	49.1557	12.5506	50.7327	-14.3229	221.548	0.192746	-0.0029207	401399	24565.7	1	12	0.004841	9.54218e-05	0	-0.000280347	-0.000185198	2.97065e-06	25.7195	0.0311318	0.0280476	-0.0135101	-14.3003	50.7565	49.1838	12.5371	0.0190985	0.00487628	0.0197112	14.3229	2.45657e+07	9.62142e+07	9.93007e+07	-75.6771	0.0000000E+000	0.0000000E+000	0.0000000E+000	75.6771	0.0000000E+000	0.0000000E+000	0.0000000E+000	-75.6771	0.0000000E+000	0.0000000E+000	0.0000000E+000	-14.3229	0.0000000E+000	0.0000000E+000	0.0000000E+000	14.3229	3.91661	75.6771	-0.000115767	-5.62952e-07	5.40908e-10	-5.63493e-07	0.192931	65993	63.4088	66056.4
0.0100092	58.2716	29.333	65.238	-26.72	672.77	0.192747	-0.00392047	542083	109591	1	12	0.00483639	7.41345e-05	0	-0.00101791	5.74261e-06	2.03072e-06	-24.1712	0.0273924	0.0249908	0.0112162	-26.7189	65.2654	58.2966	29.3442	0.0136916	0.00689215	0.0153285	26.72	1.09591e+08	2.17709e+08	2.43737e+08	-63.2801	0.0000000E+000	0.0000000E+000	0.0000000E+000	63.2801	0.0000000E+000	0.0000000E+000	0.0000000E+000	-63.2801	0.0000000E+000	0.0000000E+000	0.0000000E+000	-26.72	0.0000000E+000	0.0000000E+000	0.0000000E+000	26.72	1.98656	63.2801	-0.000257309	-7.55658e-07	-2.25137e-11	-7.55636e-07	0.192741	49164.3	1.46478	49162.8

File: 18947_R308_UA705_SOC00_C04.mpt
EC-Lab ASCII FILE
Nb header lines : 65

Potentio Electrochemical Impedance Spectroscopy

Run on channel : 4 (SN 66756)
Grouped channel(s) : 1, 2, 3, 4, 5
User :
CE vs. WE compliance from -10 V to 10 V
Electrode connection : standard
Potential control : Ewe
Ewe ctrl range : min = -10.00 V, max = 10.00 V
Safety Limits :
	Do not start on E overload
Acquisition started on : 11/04/2025 15:30:07.703
Loaded Setting File :  C:\Users\Celltest\OneDrive - store-dot.com\Documents\EC-Lab\Data\@Biologic Test Protocols\anode half cell EIS SOC00.mps
Saved on :
	File : 18944_R308_UA705_SOC00_C04.mpr
	Directory : C:\Users\Celltest\OneDrive - store-dot.com\Documents\EC-Lab\Data\Charmaine\
	Host : 169.254.61.224
Device : VMP-3e (SN .003165)
Address : USB
EC-LAB for windows v11.62 (software)
Internet server v27.00 (firmware)
Command interpretor v12.03 (firmware)
Electrode material :
Initial state :
Electrolyte :
Comments :
Electrode surface area : 0.001 cm²
Characteristic mass : 0.001 g
Equivalent Weight : 0.000 g/eq.
Density : 0.000 g/cm3
Volume (V) : 0.001 cm³
Record Ece
Cycle Definition : Charge/Discharge alternance
Mode                Single sine
E (V)               0.0000
vs.                 Eoc
tE (h:m:s)          0:00:0.0000
record              0
dI                  0.000
unit dI             mA
dt (s)              0.000
fi                  100.000
unit fi             kHz
ff                  10.000
unit ff             mHz
Nd                  6
Points              per decade
spacing             Logarithmic
Va (mV)             5.0
pw                  0.10
Na                  2
corr                0
E range min (V)     -10.000
E range max (V)     10.000
I Range             Auto
Bandwidth           5
nc cycles           0
goto Ns'            0
nr cycles           0
inc. cycle          0

freq/Hz	Re(Z)/Ohm	-Im(Z)/Ohm	|Z|/Ohm	Phase(Z)/deg	time/s	<Ewe>/V	<I>/mA	Cs/µF	Cp/µF	cycle number	I Range	|Ewe|/V	|I|/A	Ns	(Q-Qo)/mA.h	<Ece>/V	|Ece|/V	Phase(Zce)/deg	|Zce|/Ohm	Re(Zce)/Ohm	-Im(Zce)/Ohm	Phase(Zwe-ce)/deg	|Zwe-ce|/Ohm	Re(Zwe-ce)/Ohm	-Im(Zwe-ce)/Ohm	Re(Y)/Ohm-1	Im(Y)/Ohm-1	|Y|/Ohm-1	Phase(Y)/deg	Re(C)/nF	Im(C)/nF	|C|/nF	Phase(C)/deg	Re(M)	Im(M)	|M|	Phase(M)/deg	Re(Permittivity)	Im(Permittivity)	|Permittivity|	Phase(Permittivity)/deg	Re(Resistivity)/Ohm.cm	Im(Resistivity)/Ohm.cm	|Resistivity|/Ohm.cm	Phase(Resistivity)/deg	Re(Conductivity)/mS/cm	Im(Conductivity)/mS/cm	|Conductivity|/mS/cm	Phase(Conductivity)/deg	Tan(Delta)	Loss Angle(Delta)/deg	dq/mA.h	Pwe/W	Pce/W	Pwe-ce/W	<Ewe-Ece>/V	Rwe/Ohm	Rce/Ohm	Rwe-ce/Ohm		Ewe-Ece/V
100004	2.24347	1.46245	2.67805	-33.0991	2.04152	0.201508	-0.0727897	1.08824	0.324526	1	9	0.00464366	0.00173397	0	-1.32529e-05	3.90573e-05	2.72542e-05	101.408	0.0157178	-0.00310888	-0.0154073	-32.8583	2.66705	2.24036	1.44704	0.312813	0.203913	0.373407	33.0991	324.526	497.839	594.273	-56.9009	0.0000000E+000	0.0000000E+000	0.0000000E+000	56.9009	0.0000000E+000	0.0000000E+000	0.0000000E+000	-56.9009	0.0000000E+000	0.0000000E+000	0.0000000E+000	-33.0991	0.0000000E+000	0.0000000E+000	0.0000000E+000	33.0991	1.53405	56.9009	-1.32529e-05	-1.46677e-05	-2.84297e-09	-1.46649e-05	0.201469	2768.37	0.536578	2767.83
31621.1	3.65302	2.51296	4.4339	-34.5246	3.44054	0.201547	-0.0740951	2.00289	0.643362	1	9	0.00487427	0.00109932	0	-4.9025e-05	-0.000381362	1.08067e-05	-27.5215	0.00983037	0.00871794	0.00454243	-34.5092	4.44366	3.66174	2.5175	0.185814	0.127824	0.225535	34.5246	643.362	935.237	1135.16	-55.4754	0.0000000E+000	0.0000000E+000	0.0000000E+000	55.4754	0.0000000E+000	0.0000000E+000	0.0000000E+000	-55.4754	0.0000000E+000	0.0000000E+000	0.0000000E+000	-34.5246	0.0000000E+000	0.0000000E+000	0.0000000E+000	34.5246	1.45367	55.4754	-7.69557e-06	-1.49336e-05	2.8257e-08	-1.49619e-05	0.201928	2720.11	5.14692	2725.26
10002.2	5.90234	3.55088	6.88813	-31.0313	4.62053	0.201619	-0.0293625	4.48113	1.19085	1	10	0.00548077	0.000795683	0	-6.03013e-05	1.99474e-05	6.23369e-06	-118.123	0.00783439	-0.00369288	0.00690944	-31.0964	6.88853	5.89865	3.55778	0.1244	0.0748398	0.145177	31.0313	1190.85	1979.45	2310.05	-58.9687	0.0000000E+000	0.0000000E+000	0.0000000E+000	58.9687	0.0000000E+000	0.0000000E+000	0.0000000E+000	-58.9687	0.0000000E+000	0.0000000E+000	0.0000000E+000	-31.0313	0.0000000E+000	0.0000000E+000	0.0000000E+000	31.0313	1.66222	58.9687	-1.88811e-06	-5.92004e-06	-5.85704e-10	-5.91945e-06	0.201599	6866.56	0.679349	6865.88
3163.08	8.7083	4.61742	9.85673	-27.934	5.51767	0.201528	-0.0131325	10.8971	2.39135	1	10	0.00513765	0.000521233	0	-6.62537e-05	-9.47124e-05	8.80599e-06	-102.779	0.0168945	-0.00373692	0.0164761	-28.0287	9.86116	8.70457	4.6339	0.089633	0.0475263	0.101454	27.934	2391.36	4510.01	5104.78	-62.066	0.0000000E+000	0.0000000E+000	0.0000000E+000	62.066	0.0000000E+000	0.0000000E+000	0.0000000E+000	-62.066	0.0000000E+000	0.0000000E+000	0.0000000E+000	-27.934	0.0000000E+000	0.0000000E+000	0.0000000E+000	27.934	1.88597	62.066	-1.47239e-06	-2.64656e-06	1.24381e-09	-2.64781e-06	0.201623	15345.8	7.21207	15353
1000.32	12.1348	6.45529	13.745	-28.0113	6.87086	0.201578	0.000758698	24.6471	5.43635	1	10	0.00502702	0.000365734	0	-6.65772e-05	8.3741e-07	6.01954e-06	-30.9528	0.0164588	0.0141149	0.00846527	-28.0148	13.7614	12.149	6.46375	0.064231	0.0341685	0.0727537	28.0113	5436.35	10219.4	11575.4	-61.9887	0.0000000E+000	0.0000000E+000	0.0000000E+000	61.9887	0.0000000E+000	0.0000000E+000	0.0000000E+000	-61.9887	0.0000000E+000	0.0000000E+000	0.0000000E+000	-28.0113	0.0000000E+000	0.0000000E+000	0.0000000E+000	28.0113	1.87983	61.9887	1.88002e-07	1.52937e-07	6.35341e-13	1.52936e-07	0.201577	265689	1.10375	265688
316.316	17.5284	10.0061	20.1834	-29.7199	8.22006	0.201579	-0.000569248	50.2845	12.3588	1	10	0.00500592	0.000248022	0	-6.68785e-05	-0.000152042	5.38275e-06	131.222	0.0217027	-0.0143017	-0.0163239	-29.6997	20.1629	17.5141	9.98978	0.0430285	0.0245628	0.0495457	29.7199	12358.8	21649.9	24929	-60.2801	0.0000000E+000	0.0000000E+000	0.0000000E+000	60.2801	0.0000000E+000	0.0000000E+000	0.0000000E+000	-60.2801	0.0000000E+000	0.0000000E+000	0.0000000E+000	-29.7199	0.0000000E+000	0.0000000E+000	0.0000000E+000	29.7199	1.75177	60.2801	2.03337e-08	-1.14748e-07	8.65497e-11	-1.14835e-07	0.201731	354114	267.093	354381
100.032	27.9874	13.3332	31.0011	-25.4731	9.80985	0.201619	-0.00361983	119.329	22.073	1	11	0.00499938	0.000161265	0	-6.77169e-05	-0.000171152	5.75097e-06	11.198	0.0356617	0.0349827	-0.00692551	-25.4338	31.0297	28.0224	13.3263	0.0291211	0.0138733	0.0322569	25.4731	22073	46332.9	51322.1	-64.5269	0.0000000E+000	0.0000000E+000	0.0000000E+000	64.5269	0.0000000E+000	0.0000000E+000	0.0000000E+000	-64.5269	0.0000000E+000	0.0000000E+000	0.0000000E+000	-25.4731	0.0000000E+000	0.0000000E+000	0.0000000E+000	25.4731	2.09908	64.5269	-3.25647e-07	-7.29826e-07	6.19541e-10	-7.30446e-07	0.20179	55698.5	47.2819	55745.8
[...]
1.00006	47.7235	3.43134	47.8467	-4.11251	19.3078	0.201635	-0.00107593	46379.8	238.535	1	12	0.00499428	0.000104381	0	-7.41615e-05	-0.000324032	5.06474e-06	33.1683	0.0485217	0.0406159	-0.0265462	-4.07735	47.8853	47.7641	3.40479	0.0208463	0.00149886	0.0209001	4.11251	238535	3.31758e+06	3.32614e+06	-85.8875	0.0000000E+000	0.0000000E+000	0.0000000E+000	85.8875	0.0000000E+000	0.0000000E+000	0.0000000E+000	-85.8875	0.0000000E+000	0.0000000E+000	0.0000000E+000	-4.11251	0.0000000E+000	0.0000000E+000	0.0000000E+000	4.11251	13.9081	85.8875	-3.62737e-06	-2.16946e-07	3.48636e-10	-2.17294e-07	0.201959	187405	301.164	187706
0.316193	50.148	4.01328	50.3083	-4.57556	33.6508	0.201623	-0.00215516	125420	798.156	1	12	0.00499843	9.93559e-05	0	-8.7465e-05	-0.000190262	3.69624e-06	21.3956	0.037202	0.0346382	-0.0135715	-4.55702	50.3418	50.1826	3.99971	0.0198141	0.0015857	0.0198774	4.57556	798155	9.97336e+06	1.00052e+07	-85.4244	0.0000000E+000	0.0000000E+000	0.0000000E+000	85.4244	0.0000000E+000	0.0000000E+000	0.0000000E+000	-85.4244	0.0000000E+000	0.0000000E+000	0.0000000E+000	-4.57556	0.0000000E+000	0.0000000E+000	0.0000000E+000	4.57556	12.4955	85.4244	-2.32581e-06	-4.3453e-07	4.10046e-10	-4.3494e-07	0.201813	93553.7	88.2821	93641.9
0.0999041	52.3483	5.98284	52.6891	-6.51999	78.8588	0.201633	-0.00164134	266274	3433.23	1	12	0.00499522	9.48056e-05	0	-6.2794e-05	5.81673e-05	2.41225e-06	-15.6555	0.0254442	0.0245002	0.00686617	-6.52438	52.7142	52.3728	5.98971	0.0188565	0.00215509	0.0189793	6.51999	3.43323e+06	3.00399e+07	3.02354e+07	-83.48	0.0000000E+000	0.0000000E+000	0.0000000E+000	83.48	0.0000000E+000	0.0000000E+000	0.0000000E+000	-83.48	0.0000000E+000	0.0000000E+000	0.0000000E+000	-6.51999	0.0000000E+000	0.0000000E+000	0.0000000E+000	6.51999	8.74975	83.48	1.13256e-05	-3.30949e-07	-9.54725e-11	-3.30854e-07	0.201575	122846	35.4388	122811
0.0315922	55.3677	13.3378	56.9516	-13.5442	221.742	0.201622	-0.00184843	377708	20716.3	1	12	0.00499416	8.76913e-05	0	-0.000195075	-0.000209372	2.24895e-06	8.80296	0.0256462	0.0253441	-0.00392482	-13.5344	56.9753	55.3931	13.3339	0.0170705	0.00411218	0.0175588	13.5442	2.07163e+07	8.59974e+07	8.84574e+07	-76.4558	0.0000000E+000	0.0000000E+000	0.0000000E+000	76.4558	0.0000000E+000	0.0000000E+000	0.0000000E+000	-76.4558	0.0000000E+000	0.0000000E+000	0.0000000E+000	-13.5442	0.0000000E+000	0.0000000E+000	0.0000000E+000	13.5442	4.1512	76.4558	-9.98206e-05	-3.72683e-07	3.87009e-10	-3.7307e-07	0.201831	109077	113.27	109191
0.0100092	64.7647	31.7234	72.1168	-26.0968	672.964	0.201624	-0.00332439	501237	96990.3	1	12	0.00499469	6.92584e-05	0	-0.000752553	-5.64925e-05	3.4233e-06	3.58857	0.049428	0.049331	-0.00309377	-26.0773	72.1598	64.814	31.7203	0.0124527	0.00609967	0.0138664	26.0968	9.69903e+07	1.9801e+08	2.20488e+08	-63.9032	0.0000000E+000	0.0000000E+000	0.0000000E+000	63.9032	0.0000000E+000	0.0000000E+000	0.0000000E+000	-63.9032	0.0000000E+000	0.0000000E+000	0.0000000E+000	-26.0968	0.0000000E+000	0.0000000E+000	0.0000000E+000	26.0968	2.04154	63.9032	-0.000173404	-6.70278e-07	1.87803e-10	-6.70466e-07	0.201681	60650.1	16.9933	60667.1