Folder: EIS/txt

File: 14380_R229_UA592_SOC00_C01.mpt
EC-Lab ASCII FILE
Nb header lines : 63

Potentio Electrochemical Impedance Spectroscopy

Run on channel : 1 (SN 66354)
User :
CE vs. WE compliance from -10 V to 10 V
Electrode connection : standard
Potential control : Ewe
Ewe ctrl range : min = -10.00 V, max = 10.00 V
Safety Limits :
	Do not start on E overload
Acquisition started on : 09/15/2025 10:21:49.411
Loaded Setting File :  C:\Users\Celltest\OneDrive - store-dot.com\Documents\EC-Lab\Data\Gyutae\EIS_SOC0_C01.mpr
Saved on :
	File : 14380_R229-G1, Nb2O5 30% blending_C01.mpr
	Directory : C:\Users\Celltest\OneDrive - store-dot.com\Documents\EC-Lab\Data\Gyutae\
	Host : 169.254.61.224
Device : VMP-3e (SN .003165)
Address : USB
EC-LAB for windows v11.62 (software)
Internet server v27.00 (firmware)
Command interpretor v12.03 (firmware)
Electrode material :
Initial state :
Electrolyte :
Comments :
Electrode surface area : 0.001 cm²
Characteristic mass : 0.001 g
Equivalent Weight : 0.000 g/eq.
Density : 0.000 g/cm3
Volume (V) : 0.001 cm³
Cycle Definition : Charge/Discharge alternance
Mode                Single sine
E (V)               0.0000
vs.                 Eoc
tE (h:m:s)          0:00:0.0000
record              0
dI                  0.000
unit dI             mA
dt (s)              0.000
fi                  100.000
unit fi             kHz
ff                  10.000
unit ff             mHz
Nd                  6
Points              per decade
spacing             Logarithmic
Va (mV)             5.0
pw                  0.10
Na                  2
corr                0
E range min (V)     -10.000
E range max (V)     10.000
I Range             Auto
Bandwidth           5
nc cycles           0
goto Ns'            0
nr cycles           0
inc. cycle          0

freq/Hz	Re(Z)/Ohm	-Im(Z)/Ohm	|Z|/Ohm	Phase(Z)/deg	time/s	<Ewe>/V	<I>/mA	Cs/µF	Cp/µF	cycle number	I Range	|Ewe|/V	|I|/A	Ns	(Q-Qo)/mA.h	Re(Y)/Ohm-1	Im(Y)/Ohm-1	|Y|/Ohm-1	Phase(Y)/deg	Re(C)/nF	Im(C)/nF	|C|/nF	Phase(C)/deg	Re(M)	Im(M)	|M|	Phase(M)/deg	Re(Permittivity)	Im(Permittivity)	|Permittivity|	Phase(Permittivity)/deg	Re(Resistivity)/Ohm.cm	Im(Resistivity)/Ohm.cm	|Resistivity|/Ohm.cm	Phase(Resistivity)/deg	Re(Conductivity)/mS/cm	Im(Conductivity)/mS/cm	|Conductivity|/mS/cm	Phase(Conductivity)/deg	Tan(Delta)	Loss Angle(Delta)/deg	dq/mA.h	Pwe/W	Rwe/Ohm
100004	1.17054	0.267716	1.20077	-12.8826	2.06747	0.366419	0.0742806	5.94469	0.295502	1	9	0.00474828	0.00395437	0	5.03186e-06	0.811837	0.185676	0.8328	12.8826	295.502	1292.03	1325.39	-77.1174	0.0000000E+000	0.0000000E+000	0.0000000E+000	77.1174	0.0000000E+000	0.0000000E+000	0.0000000E+000	-77.1174	0.0000000E+000	0.0000000E+000	0.0000000E+000	-12.8826	0.0000000E+000	0.0000000E+000	0.0000000E+000	12.8826	4.37233	77.1174	5.03186e-06	2.72179e-05	4932.91
46420.4	1.30772	0.336025	1.3502	-14.4106	3.22348	0.366425	0.0761619	10.2033	0.631953	1	9	0.00501566	0.00371475	0	3.84555e-05	0.717327	0.18432	0.74063	14.4106	631.953	2459.4	2539.29	-75.5894	0.0000000E+000	0.0000000E+000	0.0000000E+000	75.5894	0.0000000E+000	0.0000000E+000	0.0000000E+000	-75.5894	0.0000000E+000	0.0000000E+000	0.0000000E+000	-14.4106	0.0000000E+000	0.0000000E+000	0.0000000E+000	14.4106	3.89174	75.5894	1.8017e-05	2.79076e-05	4811.13
21544.7	1.47166	0.438173	1.5355	-16.5804	4.23849	0.366422	0.0738708	16.8591	1.37285	1	9	0.00524529	0.00341601	0	4.28481e-05	0.624173	0.185842	0.651252	16.5804	1372.85	4610.89	4810.93	-73.4196	0.0000000E+000	0.0000000E+000	0.0000000E+000	73.4196	0.0000000E+000	0.0000000E+000	0.0000000E+000	-73.4196	0.0000000E+000	0.0000000E+000	0.0000000E+000	-16.5804	0.0000000E+000	0.0000000E+000	0.0000000E+000	16.5804	3.35862	73.4196	5.2165e-06	2.70679e-05	4960.31
10002.2	1.67815	0.565794	1.77096	-18.6317	5.1125	0.366418	0.0717845	28.1232	2.87055	1	9	0.00490403	0.00276914	0	6.11669e-05	0.535072	0.180402	0.564666	18.6317	2870.55	8514.05	8984.93	-71.3683	0.0000000E+000	0.0000000E+000	0.0000000E+000	71.3683	0.0000000E+000	0.0000000E+000	0.0000000E+000	-71.3683	0.0000000E+000	0.0000000E+000	0.0000000E+000	-18.6317	0.0000000E+000	0.0000000E+000	0.0000000E+000	18.6317	2.966	71.3683	8.39751e-06	2.63031e-05	5104.41
4641.49	1.95738	0.759028	2.09939	-21.1952	6.18469	0.366399	0.10373	45.1757	5.90518	1	9	0.00485776	0.00231389	0	7.21061e-05	0.444106	0.172215	0.476328	21.1952	5905.18	15228.2	16333.1	-68.8048	0.0000000E+000	0.0000000E+000	0.0000000E+000	68.8048	0.0000000E+000	0.0000000E+000	0.0000000E+000	-68.8048	0.0000000E+000	0.0000000E+000	0.0000000E+000	-21.1952	0.0000000E+000	0.0000000E+000	0.0000000E+000	21.1952	2.5788	68.8048	1.71724e-05	3.80066e-05	3532.23
2155.69	2.29487	1.01874	2.51083	-23.9376	7.11868	0.366408	0.106934	72.4717	11.9307	1	9	0.0047464	0.00189037	0	9.82385e-05	0.364019	0.161596	0.398275	23.9376	11930.7	26875.6	29404.7	-66.0625	0.0000000E+000	0.0000000E+000	0.0000000E+000	66.0625	0.0000000E+000	0.0000000E+000	0.0000000E+000	-66.0625	0.0000000E+000	0.0000000E+000	0.0000000E+000	-23.9376	0.0000000E+000	0.0000000E+000	0.0000000E+000	23.9376	2.25264	66.0625	1.23696e-05	3.91814e-05	3426.48
1000.32	2.68121	1.45321	3.04971	-28.4576	8.05468	0.366406	0.106114	109.485	24.8595	1	9	0.00469834	0.00154059	0	0.000123509	0.28828	0.156247	0.3279	28.4576	24859.5	45866.5	52170.2	-61.5424	0.0000000E+000	0.0000000E+000	0.0000000E+000	61.5424	0.0000000E+000	0.0000000E+000	0.0000000E+000	-61.5424	0.0000000E+000	0.0000000E+000	0.0000000E+000	-28.4576	0.0000000E+000	0.0000000E+000	0.0000000E+000	28.4576	1.84503	61.5424	1.39777e-05	3.8881e-05	3452.94
463.961	3.19466	2.29771	3.93514	-35.7251	9.24418	0.366382	-0.0106297	149.294	50.8997	1	10	0.00473978	0.00120448	0	0.000127482	0.206302	0.14838	0.254121	35.7251	50899.7	70769	87172.4	-54.2749	0.0000000E+000	0.0000000E+000	0.0000000E+000	54.2749	0.0000000E+000	0.0000000E+000	0.0000000E+000	-54.2749	0.0000000E+000	0.0000000E+000	0.0000000E+000	-35.7251	0.0000000E+000	0.0000000E+000	0.0000000E+000	35.7251	1.39036	54.2749	-6.15831e-07	-3.89452e-06	34467.9
215.345	4.06849	3.90677	5.64052	-43.8383	10.1784	0.366383	-0.0107452	189.177	90.754	1	10	0.00470197	0.000833607	0	0.000124524	0.127878	0.122795	0.177289	43.8383	90754	94510.8	131029	-46.1617	0.0000000E+000	0.0000000E+000	0.0000000E+000	46.1617	0.0000000E+000	0.0000000E+000	0.0000000E+000	-46.1617	0.0000000E+000	0.0000000E+000	0.0000000E+000	-43.8383	0.0000000E+000	0.0000000E+000	0.0000000E+000	43.8383	1.0414	46.1617	-1.82477e-06	-3.93687e-06	34097.4
100.032	6.00503	6.6368	8.95028	-47.8609	11.1087	0.366371	-0.0110788	239.73	131.815	1	10	0.00468661	0.000523627	0	0.000122246	0.0749622	0.0828486	0.111728	47.8609	131815	119268	177764	-42.1391	0.0000000E+000	0.0000000E+000	0.0000000E+000	42.1391	0.0000000E+000	0.0000000E+000	0.0000000E+000	-42.1391	0.0000000E+000	0.0000000E+000	0.0000000E+000	-47.8609	0.0000000E+000	0.0000000E+000	0.0000000E+000	47.8609	0.904809	42.1391	-1.02987e-06	-4.05894e-06	33069.6
46.4415	10.2069	10.0901	14.3524	-44.6701	12.0425	0.366367	-0.0141591	339.64	167.864	1	10	0.00467899	0.000326007	0	0.000120043	0.0495503	0.048983	0.0696747	44.6701	167864	169809	238775	-45.3299	0.0000000E+000	0.0000000E+000	0.0000000E+000	45.3299	0.0000000E+000	0.0000000E+000	0.0000000E+000	-45.3299	0.0000000E+000	0.0000000E+000	0.0000000E+000	-44.6701	0.0000000E+000	0.0000000E+000	0.0000000E+000	44.6701	1.01158	45.3299	-1.53818e-06	-5.18742e-06	25875
[...]
1.00006	38.0786	6.07009	38.5594	-9.05728	21.0492	0.366418	-0.00246336	26217.9	649.722	1	12	0.00468788	0.000121576	0	0.000107959	0.0256107	0.00408258	0.025934	9.05728	649722	4.07581e+06	4.12727e+06	-80.9427	0.0000000E+000	0.0000000E+000	0.0000000E+000	80.9427	0.0000000E+000	0.0000000E+000	0.0000000E+000	-80.9427	0.0000000E+000	0.0000000E+000	0.0000000E+000	-9.05728	0.0000000E+000	0.0000000E+000	0.0000000E+000	9.05728	6.27315	80.9427	-5.75004e-06	-9.02619e-07	148747
0.464091	40.4235	4.78913	40.7063	-6.75655	28.7338	0.366418	-0.00262896	71607.9	991.178	1	12	0.00468553	0.000115106	0	0.000100669	0.0243956	0.00289024	0.0245663	6.75655	991177	8.36623e+06	8.42474e+06	-83.2435	0.0000000E+000	0.0000000E+000	0.0000000E+000	83.2435	0.0000000E+000	0.0000000E+000	0.0000000E+000	-83.2435	0.0000000E+000	0.0000000E+000	0.0000000E+000	-6.75655	0.0000000E+000	0.0000000E+000	0.0000000E+000	6.75655	8.44069	83.2435	-1.9069e-06	-9.63298e-07	139378
0.215268	42.1558	4.27618	42.3721	-5.79213	45.2139	0.366425	-0.00215251	172896	1760.91	1	12	0.00468257	0.000110511	0	0.000113233	0.0234799	0.00238174	0.0236004	5.79213	1.7609e+06	1.73595e+07	1.74486e+07	-84.2079	0.0000000E+000	0.0000000E+000	0.0000000E+000	84.2079	0.0000000E+000	0.0000000E+000	0.0000000E+000	-84.2079	0.0000000E+000	0.0000000E+000	0.0000000E+000	-5.79213	0.0000000E+000	0.0000000E+000	0.0000000E+000	5.79213	9.85829	84.2079	8.85034e-06	-7.88733e-07	170232
0.0999041	44.0319	4.83995	44.2971	-6.27272	80.6193	0.366421	-0.000880968	329152	3929.41	1	12	0.00468715	0.000105812	0	0.000120873	0.0224397	0.00246655	0.0225748	6.27272	3.92941e+06	3.57482e+07	3.59635e+07	-83.7273	0.0000000E+000	0.0000000E+000	0.0000000E+000	83.7273	0.0000000E+000	0.0000000E+000	0.0000000E+000	-83.7273	0.0000000E+000	0.0000000E+000	0.0000000E+000	-6.27272	0.0000000E+000	0.0000000E+000	0.0000000E+000	6.27272	9.09759	83.7273	-1.04001e-06	-3.22805e-07	415930
0.0464052	46.416	6.69709	46.8967	-8.2102	156.856	0.366428	0.000101644	512115	10443.7	1	12	0.00468761	9.99561e-05	0	4.65892e-05	0.0211049	0.0030451	0.0213235	8.2102	1.04437e+07	7.23831e+07	7.31326e+07	-81.7898	0.0000000E+000	0.0000000E+000	0.0000000E+000	81.7898	0.0000000E+000	0.0000000E+000	0.0000000E+000	-81.7898	0.0000000E+000	0.0000000E+000	0.0000000E+000	-8.2102	0.0000000E+000	0.0000000E+000	0.0000000E+000	8.2102	6.93078	81.7898	-5.44995e-05	3.7245e-08	3.60503e+06
0.0215268	49.894	9.83196	50.8535	-11.1477	321.086	0.366429	-0.000598985	751970	28108.6	1	12	0.00468465	9.21205e-05	0	-0.000131136	0.0192933	0.00380188	0.0196643	11.1477	2.81086e+07	1.42642e+08	1.45385e+08	-78.8523	0.0000000E+000	0.0000000E+000	0.0000000E+000	78.8523	0.0000000E+000	0.0000000E+000	0.0000000E+000	-78.8523	0.0000000E+000	0.0000000E+000	0.0000000E+000	-11.1477	0.0000000E+000	0.0000000E+000	0.0000000E+000	11.1477	5.07467	78.8523	-9.10906e-05	-2.19485e-07	611749
0.0100092	53.5302	15.6897	55.7821	-16.3359	674.302	0.366429	-0.000680922	1.01346e+06	80176.5	1	12	0.00468636	8.40119e-05	0	-7.23283e-05	0.0172032	0.00504226	0.0179269	16.3359	8.01765e+07	2.73546e+08	2.85054e+08	-73.6641	0.0000000E+000	0.0000000E+000	0.0000000E+000	73.6641	0.0000000E+000	0.0000000E+000	0.0000000E+000	-73.6641	0.0000000E+000	0.0000000E+000	0.0000000E+000	-16.3359	0.0000000E+000	0.0000000E+000	0.0000000E+000	16.3359	3.4118	73.6641	9.67683e-05	-2.4951e-07	538137

File: 14381_R229_UA592_SOC00_C02.mpt
EC-Lab ASCII FILE
Nb header lines : 63

Potentio Electrochemical Impedance Spectroscopy

Run on channel : 2 (SN 66139)
User :
CE vs. WE compliance from -10 V to 10 V
Electrode connection : standard
Potential control : Ewe
Ewe ctrl range : min = -10.00 V, max = 10.00 V
Safety Limits :
	Do not start on E overload
Acquisition started on : 09/15/2025 10:22:00.221
Loaded Setting File :  C:\Users\Celltest\OneDrive - store-dot.com\Documents\EC-Lab\Data\Charmaine\R279\17382_C01.mpr
Saved on :
	File : 14381_R229-G1, Nb2O5 30% blending_C02.mpr
	Directory : C:\Users\Celltest\OneDrive - store-dot.com\Documents\EC-Lab\Data\Gyutae\
	Host : 169.254.61.224
Device : VMP-3e (SN .003165)
Address : USB
EC-LAB for windows v11.62 (software)
Internet server v27.00 (firmware)
Command interpretor v12.03 (firmware)
Electrode material :
Initial state :
Electrolyte :
Comments :
Electrode surface area : 0.001 cm²
Characteristic mass : 0.001 g
Equivalent Weight : 0.000 g/eq.
Density : 0.000 g/cm3
Volume (V) : 0.001 cm³
Cycle Definition : Charge/Discharge alternance
Mode                Single sine
E (V)               0.0000
vs.                 Eoc
tE (h:m:s)          0:00:0.0000
record              0
dI                  0.000
unit dI             mA
dt (s)              0.000
fi                  100.000
unit fi             kHz
ff                  10.000
unit ff             mHz
Nd                  6
Points              per decade
spacing             Logarithmic
Va (mV)             5.0
pw                  0.10
Na                  2
corr                0
E range min (V)     -10.000
E range max (V)     10.000
I Range             Auto
Bandwidth           5
nc cycles           0
goto Ns'            0
nr cycles           0
inc. cycle          0

freq/Hz	Re(Z)/Ohm	-Im(Z)/Ohm	|Z|/Ohm	Phase(Z)/deg	time/s	<Ewe>/V	<I>/mA	Cs/µF	Cp/µF	cycle number	I Range	|Ewe|/V	|I|/A	Ns	(Q-Qo)/mA.h	Re(Y)/Ohm-1	Im(Y)/Ohm-1	|Y|/Ohm-1	Phase(Y)/deg	Re(C)/nF	Im(C)/nF	|C|/nF	Phase(C)/deg	Re(M)	Im(M)	|M|	Phase(M)/deg	Re(Permittivity)	Im(Permittivity)	|Permittivity|	Phase(Permittivity)/deg	Re(Resistivity)/Ohm.cm	Im(Resistivity)/Ohm.cm	|Resistivity|/Ohm.cm	Phase(Resistivity)/deg	Re(Conductivity)/mS/cm	Im(Conductivity)/mS/cm	|Conductivity|/mS/cm	Phase(Conductivity)/deg	Tan(Delta)	Loss Angle(Delta)/deg	dq/mA.h	Pwe/W	Rwe/Ohm
100004	2.19939	0.217704	2.21014	-5.65294	2.03648	0.359403	0.0231878	7.31034	0.0709303	1	9	0.00383648	0.00173586	0	1.57024e-07	0.45026	0.0445684	0.45246	5.65294	70.9302	716.584	720.086	-84.3471	0.0000000E+000	0.0000000E+000	0.0000000E+000	84.3471	0.0000000E+000	0.0000000E+000	0.0000000E+000	-84.3471	0.0000000E+000	0.0000000E+000	0.0000000E+000	-5.65294	0.0000000E+000	0.0000000E+000	0.0000000E+000	5.65294	10.1027	84.3471	1.57024e-07	8.33378e-06	15499.6
46420.4	2.2759	0.564203	2.34479	-13.9231	3.33849	0.359283	-0.0180434	6.07682	0.351836	1	9	0.00522712	0.00222925	0	1.0452e-05	0.413948	0.102619	0.426478	13.9231	351.836	1419.24	1462.21	-76.0769	0.0000000E+000	0.0000000E+000	0.0000000E+000	76.0769	0.0000000E+000	0.0000000E+000	0.0000000E+000	-76.0769	0.0000000E+000	0.0000000E+000	0.0000000E+000	-13.9231	0.0000000E+000	0.0000000E+000	0.0000000E+000	13.9231	4.03383	76.0769	9.69468e-06	-6.48268e-06	19912.2
21544.7	2.55699	0.712759	2.65447	-15.5758	4.21349	0.359274	-0.0200174	10.3642	0.74725	1	9	0.00501678	0.00188993	0	4.96911e-06	0.362888	0.101155	0.376723	15.5758	747.25	2680.73	2782.93	-74.4242	0.0000000E+000	0.0000000E+000	0.0000000E+000	74.4242	0.0000000E+000	0.0000000E+000	0.0000000E+000	-74.4242	0.0000000E+000	0.0000000E+000	0.0000000E+000	-15.5758	0.0000000E+000	0.0000000E+000	0.0000000E+000	15.5758	3.58746	74.4242	-3.75985e-06	-7.19174e-06	17948.1
10002.2	2.91391	0.889761	3.04673	-16.98	4.94648	0.359272	-0.0196263	17.8834	1.52521	1	9	0.00499824	0.00164053	0	2.40234e-06	0.313913	0.095853	0.328221	16.98	1525.21	4994.96	5222.64	-73.02	0.0000000E+000	0.0000000E+000	0.0000000E+000	73.02	0.0000000E+000	0.0000000E+000	0.0000000E+000	-73.02	0.0000000E+000	0.0000000E+000	0.0000000E+000	-16.98	0.0000000E+000	0.0000000E+000	0.0000000E+000	16.98	3.27494	73.02	-1.40684e-06	-7.05119e-06	18305.6
4641.49	3.34301	1.13132	3.52925	-18.6964	5.79669	0.359315	0.00791701	30.3095	3.11445	1	9	0.0049799	0.00141104	0	8.49449e-07	0.268394	0.0908278	0.283346	18.6964	3114.45	9203.14	9715.84	-71.3036	0.0000000E+000	0.0000000E+000	0.0000000E+000	71.3036	0.0000000E+000	0.0000000E+000	0.0000000E+000	-71.3036	0.0000000E+000	0.0000000E+000	0.0000000E+000	-18.6964	0.0000000E+000	0.0000000E+000	0.0000000E+000	18.6964	2.95498	71.3036	3.38128e-07	2.8447e-06	45385.2
2155.69	3.89587	1.46516	4.16227	-20.6103	6.98468	0.359322	-0.010842	50.3906	6.24394	1	10	0.00499118	0.00119915	0	-1.95858e-06	0.224877	0.0845716	0.240254	20.6103	6243.94	16602.7	17738	-69.3897	0.0000000E+000	0.0000000E+000	0.0000000E+000	69.3897	0.0000000E+000	0.0000000E+000	0.0000000E+000	-69.3897	0.0000000E+000	0.0000000E+000	0.0000000E+000	-20.6103	0.0000000E+000	0.0000000E+000	0.0000000E+000	20.6103	2.65901	69.3897	-6.37547e-07	-3.89576e-06	33141.7
1000.32	4.5768	1.93028	4.9672	-22.8678	7.92071	0.359327	-0.0103521	82.4252	12.4474	1	10	0.00489494	0.000985451	0	-4.62577e-06	0.185498	0.0782343	0.201321	22.8678	12447.4	29513.4	32030.9	-67.1322	0.0000000E+000	0.0000000E+000	0.0000000E+000	67.1322	0.0000000E+000	0.0000000E+000	0.0000000E+000	-67.1322	0.0000000E+000	0.0000000E+000	0.0000000E+000	-22.8678	0.0000000E+000	0.0000000E+000	0.0000000E+000	22.8678	2.37105	67.1322	-2.027e-06	-3.7198e-06	34710.5
463.961	5.42093	2.67754	6.04613	-26.286	8.85522	0.359319	-0.0106073	128.116	25.1258	1	10	0.00484192	0.00080083	0	-7.70036e-06	0.148292	0.0732455	0.165395	26.286	25125.8	50869.6	56736.4	-63.714	0.0000000E+000	0.0000000E+000	0.0000000E+000	63.714	0.0000000E+000	0.0000000E+000	0.0000000E+000	-63.714	0.0000000E+000	0.0000000E+000	0.0000000E+000	-26.286	0.0000000E+000	0.0000000E+000	0.0000000E+000	26.286	2.02459	63.714	-9.75999e-07	-3.81141e-06	33874.6
215.345	6.61911	3.9899	7.72864	-31.0809	9.78945	0.359313	-0.0107209	185.236	49.3676	1	10	0.00480944	0.000622288	0	-1.08724e-05	0.110814	0.0667968	0.129389	31.0809	49367.6	81899.2	95627.6	-58.9191	0.0000000E+000	0.0000000E+000	0.0000000E+000	58.9191	0.0000000E+000	0.0000000E+000	0.0000000E+000	-58.9191	0.0000000E+000	0.0000000E+000	0.0000000E+000	-31.0809	0.0000000E+000	0.0000000E+000	0.0000000E+000	31.0809	1.65897	58.9191	-1.77827e-06	-3.85218e-06	33515.1
100.032	8.85186	5.97675	10.6807	-34.0271	10.7197	0.35932	-0.0102199	266.205	83.3582	1	10	0.00479529	0.000448969	0	-1.29815e-05	0.0775955	0.0523922	0.093627	34.0271	83358.2	123458	148964	-55.9729	0.0000000E+000	0.0000000E+000	0.0000000E+000	55.9729	0.0000000E+000	0.0000000E+000	0.0000000E+000	-55.9729	0.0000000E+000	0.0000000E+000	0.0000000E+000	-34.0271	0.0000000E+000	0.0000000E+000	0.0000000E+000	34.0271	1.48105	55.9729	-9.20314e-07	-3.67221e-06	35158.8
46.4415	12.7475	7.78298	14.9357	-31.4061	11.6535	0.359312	-0.0126152	440.319	119.567	1	10	0.00479829	0.000321264	0	-1.50932e-05	0.0571448	0.0348897	0.0669538	31.4061	119567	195835	229450	-58.5939	0.0000000E+000	0.0000000E+000	0.0000000E+000	58.5939	0.0000000E+000	0.0000000E+000	0.0000000E+000	-58.5939	0.0000000E+000	0.0000000E+000	0.0000000E+000	-31.4061	0.0000000E+000	0.0000000E+000	0.0000000E+000	31.4061	1.63787	58.5939	-1.36433e-06	-4.5328e-06	28482.4
[...]
1.00006	31.5141	4.48139	31.8312	-8.09333	20.9791	0.359358	-0.00363741	35512.4	703.881	1	12	0.0047932	0.000150582	0	-3.19357e-05	0.0311028	0.0044229	0.0314157	8.09333	703881	4.94985e+06	4.99965e+06	-81.9067	0.0000000E+000	0.0000000E+000	0.0000000E+000	81.9067	0.0000000E+000	0.0000000E+000	0.0000000E+000	-81.9067	0.0000000E+000	0.0000000E+000	0.0000000E+000	-8.09333	0.0000000E+000	0.0000000E+000	0.0000000E+000	8.09333	7.03223	81.9067	-8.97237e-06	-1.30713e-06	98795.1
0.464091	33.1864	3.66549	33.3883	-6.30286	28.6639	0.359364	-0.00377914	93558.9	1127.62	1	12	0.00479471	0.000143605	0	-4.5248e-05	0.0297696	0.0032881	0.0299507	6.30286	1.12762e+06	1.02092e+07	1.02713e+07	-83.6971	0.0000000E+000	0.0000000E+000	0.0000000E+000	83.6971	0.0000000E+000	0.0000000E+000	0.0000000E+000	-83.6971	0.0000000E+000	0.0000000E+000	0.0000000E+000	-6.30286	0.0000000E+000	0.0000000E+000	0.0000000E+000	6.30286	9.05375	83.6971	-5.0521e-06	-1.35809e-06	95091.6
0.215268	34.3855	3.65671	34.5794	-6.07028	45.1439	0.359365	-0.00327142	202186	2260.98	1	12	0.00479142	0.000138563	0	-3.454e-05	0.0287568	0.00305813	0.0289189	6.07028	2.26098e+06	2.12609e+07	2.13808e+07	-83.9297	0.0000000E+000	0.0000000E+000	0.0000000E+000	83.9297	0.0000000E+000	0.0000000E+000	0.0000000E+000	-83.9297	0.0000000E+000	0.0000000E+000	0.0000000E+000	-6.07028	0.0000000E+000	0.0000000E+000	0.0000000E+000	6.07028	9.4034	83.9297	9.13514e-06	-1.17564e-06	109850
0.0999041	35.9579	4.60655	36.2518	-7.30036	80.5505	0.359361	-0.00142056	345829	5584.1	1	12	0.00479309	0.000132217	0	-1.82146e-05	0.0273612	0.00350523	0.0275848	7.30036	5.5841e+06	4.35886e+07	4.39448e+07	-82.6996	0.0000000E+000	0.0000000E+000	0.0000000E+000	82.6996	0.0000000E+000	0.0000000E+000	0.0000000E+000	-82.6996	0.0000000E+000	0.0000000E+000	0.0000000E+000	-7.30036	0.0000000E+000	0.0000000E+000	0.0000000E+000	7.30036	7.80583	82.6996	3.94938e-06	-5.10492e-07	252972
0.0464052	38.1072	6.77808	38.7053	-10.0856	156.787	0.359355	-3.81118e-05	505996	15517.4	1	12	0.00479406	0.000123861	0	-9.76381e-05	0.025437	0.00452444	0.0258362	10.0856	1.55174e+07	8.72407e+07	8.861e+07	-79.9144	0.0000000E+000	0.0000000E+000	0.0000000E+000	79.9144	0.0000000E+000	0.0000000E+000	0.0000000E+000	-79.9144	0.0000000E+000	0.0000000E+000	0.0000000E+000	-10.0856	0.0000000E+000	0.0000000E+000	0.0000000E+000	10.0856	5.62213	79.9144	-6.20318e-05	-1.36957e-08	9.42895e+06
0.0215268	41.2907	10.0047	42.4855	-13.6202	321.017	0.35936	-0.000677555	738988	40979.2	1	12	0.00479385	0.000112835	0	-0.000338749	0.0228755	0.00554272	0.0235375	13.6202	4.09793e+07	1.69127e+08	1.74021e+08	-76.3798	0.0000000E+000	0.0000000E+000	0.0000000E+000	76.3798	0.0000000E+000	0.0000000E+000	0.0000000E+000	-76.3798	0.0000000E+000	0.0000000E+000	0.0000000E+000	-13.6202	0.0000000E+000	0.0000000E+000	0.0000000E+000	13.6202	4.12713	76.3798	-0.000130772	-2.43486e-07	530378
0.0100092	44.6047	16.2482	47.4719	-20.0152	674.235	0.359376	-0.000699625	978628	114644	1	12	0.00479376	0.000100981	0	-0.000334134	0.0197928	0.00720993	0.0210651	20.0152	1.14644e+08	3.14724e+08	3.34954e+08	-69.9848	0.0000000E+000	0.0000000E+000	0.0000000E+000	69.9848	0.0000000E+000	0.0000000E+000	0.0000000E+000	-69.9848	0.0000000E+000	0.0000000E+000	0.0000000E+000	-20.0152	0.0000000E+000	0.0000000E+000	0.0000000E+000	20.0152	2.74522	69.9848	8.51181e-05	-2.51429e-07	513670