Folder: EIS/txt (part 15)

File: 17386_C02.mpt
EC-Lab ASCII FILE
Nb header lines : 64

Potentio Electrochemical Impedance Spectroscopy

Run on channel : 2 (SN 66139)
User :
CE vs. WE compliance from -10 V to 10 V
Electrode connection : standard
Potential control : Ewe
Ewe ctrl range : min = -10.00 V, max = 10.00 V
Safety Limits :
	Do not start on E overload
Acquisition started on : 09/11/2025 15:38:18.426
Technique started on : 09/11/2025 15:38:20.492
Loaded Setting File :  C:\Users\Celltest\OneDrive - store-dot.com\Documents\EC-Lab\Data\Charmaine\R279\17382_C01.mpr
Saved on :
	File : 17386_C02.mpr
	Directory : C:\Users\Celltest\OneDrive - store-dot.com\Documents\EC-Lab\Data\Charmaine\R279\
	Host : 169.254.61.224
Device : VMP-3e (SN .003165)
Address : USB
EC-LAB for windows v11.62 (software)
Internet server v27.00 (firmware)
Command interpretor v12.03 (firmware)
Electrode material :
Initial state :
Electrolyte :
Comments :
Electrode surface area : 0.001 cm²
Characteristic mass : 0.001 g
Equivalent Weight : 0.000 g/eq.
Density : 0.000 g/cm3
Volume (V) : 0.001 cm³
Cycle Definition : Charge/Discharge alternance
Mode                Single sine
E (V)               0.0000
vs.                 Eoc
tE (h:m:s)          0:00:0.0000
record              0
dI                  0.000
unit dI             mA
dt (s)              0.000
fi                  100.000
unit fi             kHz
ff                  10.000
unit ff             mHz
Nd                  6
Points              per decade
spacing             Logarithmic
Va (mV)             5.0
pw                  0.10
Na                  2
corr                0
E range min (V)     -10.000
E range max (V)     10.000
I Range             Auto
Bandwidth           5
nc cycles           0
goto Ns'            0
nr cycles           0
inc. cycle          0

freq/Hz	Re(Z)/Ohm	-Im(Z)/Ohm	|Z|/Ohm	Phase(Z)/deg	time/s	<Ewe>/V	<I>/mA	Cs/µF	Cp/µF	cycle number	I Range	|Ewe|/V	|I|/A	Ns	(Q-Qo)/mA.h	Re(Y)/Ohm-1	Im(Y)/Ohm-1	|Y|/Ohm-1	Phase(Y)/deg	Re(C)/nF	Im(C)/nF	|C|/nF	Phase(C)/deg	Re(M)	Im(M)	|M|	Phase(M)/deg	Re(Permittivity)	Im(Permittivity)	|Permittivity|	Phase(Permittivity)/deg	Re(Resistivity)/Ohm.cm	Im(Resistivity)/Ohm.cm	|Resistivity|/Ohm.cm	Phase(Resistivity)/deg	Re(Conductivity)/mS/cm	Im(Conductivity)/mS/cm	|Conductivity|/mS/cm	Phase(Conductivity)/deg	Tan(Delta)	Loss Angle(Delta)/deg	dq/mA.h	Pwe/W	Rwe/Ohm
100004	1.97374	0.784546	2.12395	-21.6774	2.06649	0.188096	-0.0188814	2.02855	0.276779	1	9	0.00469084	0.00220855	0	-8.78215e-06	0.437523	0.173912	0.470821	21.6774	276.779	696.314	749.307	-68.3226	0.0000000E+000	0.0000000E+000	0.0000000E+000	68.3226	0.0000000E+000	0.0000000E+000	0.0000000E+000	-68.3226	0.0000000E+000	0.0000000E+000	0.0000000E+000	-21.6774	0.0000000E+000	0.0000000E+000	0.0000000E+000	21.6774	2.51578	68.3226	-8.78215e-06	-3.55152e-06	9961.99
46420.4	2.35929	0.94509	2.54154	-21.8302	3.2245	0.188088	-0.0227736	3.62776	0.501637	1	9	0.00511902	0.00201414	0	-1.06304e-05	0.365247	0.146311	0.393462	21.8302	501.637	1252.27	1349.01	-68.1698	0.0000000E+000	0.0000000E+000	0.0000000E+000	68.1698	0.0000000E+000	0.0000000E+000	0.0000000E+000	-68.1698	0.0000000E+000	0.0000000E+000	0.0000000E+000	-21.8302	0.0000000E+000	0.0000000E+000	0.0000000E+000	21.8302	2.49636	68.1698	-5.80194e-06	-4.28345e-06	8259.04
21544.7	2.80046	1.22021	3.05475	-23.5435	4.09848	0.188081	-0.022457	6.05406	0.965968	1	9	0.00512498	0.00167771	0	-1.26303e-05	0.300109	0.130762	0.327359	23.5435	965.968	2216.97	2418.27	-66.4565	0.0000000E+000	0.0000000E+000	0.0000000E+000	66.4565	0.0000000E+000	0.0000000E+000	0.0000000E+000	-66.4565	0.0000000E+000	0.0000000E+000	0.0000000E+000	-23.5435	0.0000000E+000	0.0000000E+000	0.0000000E+000	23.5435	2.29507	66.4565	-2.32943e-06	-4.22374e-06	8375.15
10002.2	3.3386	1.61191	3.70736	-25.7718	4.69149	0.188079	-0.0244124	9.87146	1.86611	1	9	0.00469504	0.00126641	0	-1.56063e-05	0.242904	0.117277	0.269734	25.7718	1866.11	3865.08	4291.99	-64.2282	0.0000000E+000	0.0000000E+000	0.0000000E+000	64.2282	0.0000000E+000	0.0000000E+000	0.0000000E+000	-64.2282	0.0000000E+000	0.0000000E+000	0.0000000E+000	-25.7718	0.0000000E+000	0.0000000E+000	0.0000000E+000	25.7718	2.0712	64.2282	-1.47002e-06	-4.59146e-06	7704.22
4641.49	4.10468	2.22167	4.66736	-28.4245	5.74871	0.188098	-0.00890116	15.4342	3.49704	1	10	0.00466825	0.00100019	0	-1.96233e-05	0.188425	0.101985	0.214254	28.4245	3497.04	6461.01	7346.7	-61.5755	0.0000000E+000	0.0000000E+000	0.0000000E+000	61.5755	0.0000000E+000	0.0000000E+000	0.0000000E+000	-61.5755	0.0000000E+000	0.0000000E+000	0.0000000E+000	-28.4245	0.0000000E+000	0.0000000E+000	0.0000000E+000	28.4245	1.84757	61.5755	-3.06177e-07	-1.67429e-06	21131.8
2155.69	5.14645	3.13356	6.02538	-31.3363	6.90471	0.188101	-0.00850256	23.5611	6.37241	1	10	0.00499422	0.000828864	0	-2.34102e-05	0.141755	0.0863118	0.165965	31.3363	6372.41	10465.8	12253.2	-58.6637	0.0000000E+000	0.0000000E+000	0.0000000E+000	58.6637	0.0000000E+000	0.0000000E+000	0.0000000E+000	-58.6637	0.0000000E+000	0.0000000E+000	0.0000000E+000	-31.3363	0.0000000E+000	0.0000000E+000	0.0000000E+000	31.3363	1.64236	58.6637	-2.19576e-06	-1.59934e-06	22122.8
1000.32	6.66183	4.50818	8.04386	-34.0869	7.84067	0.188096	-0.00880804	35.2923	11.0854	1	10	0.00487106	0.000605562	0	-2.53275e-05	0.102959	0.0696742	0.124318	34.0869	11085.4	16381.2	19779.6	-55.9131	0.0000000E+000	0.0000000E+000	0.0000000E+000	55.9131	0.0000000E+000	0.0000000E+000	0.0000000E+000	-55.9131	0.0000000E+000	0.0000000E+000	0.0000000E+000	-34.0869	0.0000000E+000	0.0000000E+000	0.0000000E+000	34.0869	1.47772	55.9131	-1.10132e-06	-1.65675e-06	21355
463.961	9.05002	6.44401	11.1098	-35.4525	8.77521	0.188111	-0.00814868	53.2332	17.9094	1	10	0.00481818	0.000433686	0	-2.7258e-05	0.0733222	0.0522086	0.0900105	35.4525	17909.4	25152.1	30876.8	-54.5475	0.0000000E+000	0.0000000E+000	0.0000000E+000	54.5475	0.0000000E+000	0.0000000E+000	0.0000000E+000	-54.5475	0.0000000E+000	0.0000000E+000	0.0000000E+000	-35.4525	0.0000000E+000	0.0000000E+000	0.0000000E+000	35.4525	1.40441	54.5475	-1.22983e-06	-1.53285e-06	23084.8
215.345	12.9034	8.68597	15.5545	-33.9467	9.70944	0.1881	-0.00921223	85.0879	26.5333	1	10	0.00479518	0.000308283	0	-2.95018e-05	0.0533323	0.0359009	0.06429	33.9467	26533.3	39416.3	47514.9	-56.0533	0.0000000E+000	0.0000000E+000	0.0000000E+000	56.0533	0.0000000E+000	0.0000000E+000	0.0000000E+000	-56.0533	0.0000000E+000	0.0000000E+000	0.0000000E+000	-33.9467	0.0000000E+000	0.0000000E+000	0.0000000E+000	33.9467	1.48554	56.0533	-9.72498e-07	-1.73282e-06	20418.5
100.032	18.5445	10.1026	21.1178	-28.5804	10.6407	0.188098	-0.00859944	157.488	36.0426	1	10	0.00478663	0.000226663	0	-3.16518e-05	0.0415832	0.0226535	0.0473534	28.5804	36042.6	66160.6	75341.2	-61.4196	0.0000000E+000	0.0000000E+000	0.0000000E+000	61.4196	0.0000000E+000	0.0000000E+000	0.0000000E+000	-61.4196	0.0000000E+000	0.0000000E+000	0.0000000E+000	-28.5804	0.0000000E+000	0.0000000E+000	0.0000000E+000	28.5804	1.83562	61.4196	-1.01677e-06	-1.61754e-06	21873.3
[...]
1.00006	33.8786	2.65878	33.9827	-4.48736	20.5962	0.188153	-0.0040815	59856.4	366.402	1	12	0.00479142	0.000140996	0	-4.18939e-05	0.0293365	0.00230232	0.0294267	4.48736	366402	4.66875e+06	4.68311e+06	-85.5126	0.0000000E+000	0.0000000E+000	0.0000000E+000	85.5126	0.0000000E+000	0.0000000E+000	0.0000000E+000	-85.5126	0.0000000E+000	0.0000000E+000	0.0000000E+000	-4.48736	0.0000000E+000	0.0000000E+000	0.0000000E+000	4.48736	12.7422	85.5126	-1.00838e-07	-7.67946e-07	46098.9
0.464091	35.251	3.13382	35.39	-5.08024	28.281	0.188152	-0.00307698	109432	858.082	1	12	0.00478954	0.000135336	0	-5.92576e-05	0.0281455	0.00250214	0.0282565	5.08024	858082	9.65222e+06	9.69028e+06	-84.9198	0.0000000E+000	0.0000000E+000	0.0000000E+000	84.9198	0.0000000E+000	0.0000000E+000	0.0000000E+000	-84.9198	0.0000000E+000	0.0000000E+000	0.0000000E+000	-5.08024	0.0000000E+000	0.0000000E+000	0.0000000E+000	5.08024	11.2486	84.9198	-1.23125e-05	-5.78939e-07	61148.1
0.215268	36.9598	3.44973	37.1204	-5.33238	44.7609	0.188151	-0.0031326	214317	1850.97	1	12	0.0047891	0.000129015	0	-9.46396e-05	0.0268227	0.00250356	0.0269393	5.33238	1.85097e+06	1.9831e+07	1.99172e+07	-84.6676	0.0000000E+000	0.0000000E+000	0.0000000E+000	84.6676	0.0000000E+000	0.0000000E+000	0.0000000E+000	-84.6676	0.0000000E+000	0.0000000E+000	0.0000000E+000	-5.33238	0.0000000E+000	0.0000000E+000	0.0000000E+000	5.33238	10.7138	84.6676	-1.7795e-05	-5.89402e-07	60062.1
0.0999041	38.3223	4.20899	38.5528	-6.26775	80.1676	0.188149	-0.00314305	378494	4511.32	1	12	0.00479071	0.000124264	0	-9.93369e-05	0.0257834	0.00283183	0.0259385	6.26775	4.51132e+06	4.1075e+07	4.1322e+07	-83.7322	0.0000000E+000	0.0000000E+000	0.0000000E+000	83.7322	0.0000000E+000	0.0000000E+000	0.0000000E+000	-83.7322	0.0000000E+000	0.0000000E+000	0.0000000E+000	-6.26775	0.0000000E+000	0.0000000E+000	0.0000000E+000	6.26775	9.10487	83.7322	5.57052e-06	-5.9136e-07	59861.9
0.0464052	39.6613	6.04199	40.1188	-8.66184	156.403	0.188143	-0.00120607	567640	12874.7	1	12	0.00478839	0.000119355	0	-2.93575e-05	0.0246417	0.00375391	0.024926	8.66184	1.28747e+07	8.4513e+07	8.5488e+07	-81.3382	0.0000000E+000	0.0000000E+000	0.0000000E+000	81.3382	0.0000000E+000	0.0000000E+000	0.0000000E+000	-81.3382	0.0000000E+000	0.0000000E+000	0.0000000E+000	-8.66184	0.0000000E+000	0.0000000E+000	0.0000000E+000	8.66184	6.56427	81.3382	4.63733e-05	-2.26914e-07	155997
0.0215268	41.8535	10.5861	43.1716	-14.1943	320.632	0.18814	0.000135722	698400	41993.5	1	12	0.00479029	0.000110959	0	-2.9654e-05	0.0224562	0.0056799	0.0231634	14.1943	4.19935e+07	1.66026e+08	1.71255e+08	-75.8057	0.0000000E+000	0.0000000E+000	0.0000000E+000	75.8057	0.0000000E+000	0.0000000E+000	0.0000000E+000	-75.8057	0.0000000E+000	0.0000000E+000	0.0000000E+000	-14.1943	0.0000000E+000	0.0000000E+000	0.0000000E+000	14.1943	3.95362	75.8057	-3.63354e-05	2.55347e-08	1.38621e+06
0.0100092	45.2923	18.0132	48.7429	-21.6883	673.85	0.18814	-0.000343098	882734	120557	1	12	0.00478879	9.82459e-05	0	-0.000503544	0.0190635	0.00758175	0.0205158	21.6883	1.20557e+08	3.03126e+08	3.2622e+08	-68.3117	0.0000000E+000	0.0000000E+000	0.0000000E+000	68.3117	0.0000000E+000	0.0000000E+000	0.0000000E+000	-68.3117	0.0000000E+000	0.0000000E+000	0.0000000E+000	-21.6883	0.0000000E+000	0.0000000E+000	0.0000000E+000	21.6883	2.51439	68.3117	-0.000305535	-6.45505e-08	548358

File: 17387_C05.mpt
EC-Lab ASCII FILE
Nb header lines : 64

Potentio Electrochemical Impedance Spectroscopy

Run on channel : 5 (SN 65912)
User :
CE vs. WE compliance from -10 V to 10 V
Electrode connection : standard
Potential control : Ewe
Ewe ctrl range : min = -10.00 V, max = 10.00 V
Safety Limits :
	Do not start on E overload
Acquisition started on : 09/10/2025 16:54:08.534
Technique started on : 09/10/2025 16:54:10.761
Loaded Setting File :  C:\Users\Celltest\OneDrive - store-dot.com\Documents\EC-Lab\Data\Charmaine\R279\17382_C01.mpr
Saved on :
	File : 17387_C05.mpr
	Directory : C:\Users\Celltest\OneDrive - store-dot.com\Documents\EC-Lab\Data\Charmaine\R279\
	Host : 169.254.61.224
Device : VMP-3e (SN .003165)
Address : USB
EC-LAB for windows v11.62 (software)
Internet server v27.00 (firmware)
Command interpretor v12.03 (firmware)
Electrode material :
Initial state :
Electrolyte :
Comments :
Electrode surface area : 0.001 cm²
Characteristic mass : 0.001 g
Equivalent Weight : 0.000 g/eq.
Density : 0.000 g/cm3
Volume (V) : 0.001 cm³
Cycle Definition : Charge/Discharge alternance
Mode                Single sine
E (V)               0.0000
vs.                 Eoc
tE (h:m:s)          0:00:0.0000
record              0
dI                  0.000
unit dI             mA
dt (s)              0.000
fi                  100.000
unit fi             kHz
ff                  10.000
unit ff             mHz
Nd                  6
Points              per decade
spacing             Logarithmic
Va (mV)             5.0
pw                  0.10
Na                  2
corr                0
E range min (V)     -10.000
E range max (V)     10.000
I Range             Auto
Bandwidth           5
nc cycles           0
goto Ns'            0
nr cycles           0
inc. cycle          0

freq/Hz	Re(Z)/Ohm	-Im(Z)/Ohm	|Z|/Ohm	Phase(Z)/deg	time/s	<Ewe>/V	<I>/mA	Cs/µF	Cp/µF	cycle number	I Range	|Ewe|/V	|I|/A	Ns	(Q-Qo)/mA.h	Re(Y)/Ohm-1	Im(Y)/Ohm-1	|Y|/Ohm-1	Phase(Y)/deg	Re(C)/nF	Im(C)/nF	|C|/nF	Phase(C)/deg	Re(M)	Im(M)	|M|	Phase(M)/deg	Re(Permittivity)	Im(Permittivity)	|Permittivity|	Phase(Permittivity)/deg	Re(Resistivity)/Ohm.cm	Im(Resistivity)/Ohm.cm	|Resistivity|/Ohm.cm	Phase(Resistivity)/deg	Re(Conductivity)/mS/cm	Im(Conductivity)/mS/cm	|Conductivity|/mS/cm	Phase(Conductivity)/deg	Tan(Delta)	Loss Angle(Delta)/deg	dq/mA.h	Pwe/W	Rwe/Ohm
100004	1.57844	0.393179	1.62667	-13.9874	2.22749	0.2611	-0.0240784	4.04775	0.236481	1	9	0.00490765	0.00301699	0	-1.26301e-05	0.596525	0.148591	0.614753	13.9874	236.481	949.364	978.373	-76.0126	0.0000000E+000	0.0000000E+000	0.0000000E+000	76.0126	0.0000000E+000	0.0000000E+000	0.0000000E+000	-76.0126	0.0000000E+000	0.0000000E+000	0.0000000E+000	-13.9874	0.0000000E+000	0.0000000E+000	0.0000000E+000	13.9874	4.01455	76.0126	-1.26301e-05	-6.28687e-06	10843.7
46420.4	1.77819	0.467414	1.83859	-14.7276	3.10248	0.261088	-0.0175615	7.33517	0.474069	1	9	0.00537332	0.00292252	0	-1.87741e-05	0.526025	0.138271	0.543894	14.7276	474.069	1803.51	1864.77	-75.2724	0.0000000E+000	0.0000000E+000	0.0000000E+000	75.2724	0.0000000E+000	0.0000000E+000	0.0000000E+000	-75.2724	0.0000000E+000	0.0000000E+000	0.0000000E+000	-14.7276	0.0000000E+000	0.0000000E+000	0.0000000E+000	14.7276	3.80431	75.2724	-1.70513e-06	-4.58509e-06	14867.1
21544.7	2.01536	0.540342	2.08654	-15.0087	3.97748	0.26108	-0.0201496	13.6713	0.916843	1	9	0.00537296	0.00257506	0	-2.85009e-05	0.462913	0.124112	0.479262	15.0087	916.843	3419.63	3540.41	-74.9913	0.0000000E+000	0.0000000E+000	0.0000000E+000	74.9913	0.0000000E+000	0.0000000E+000	0.0000000E+000	-74.9913	0.0000000E+000	0.0000000E+000	0.0000000E+000	-15.0087	0.0000000E+000	0.0000000E+000	0.0000000E+000	15.0087	3.72979	74.9913	-2.26736e-06	-5.26068e-06	12957.1
10002.2	2.28108	0.630632	2.36665	-15.4541	4.85248	0.261074	-0.022384	25.2318	1.79156	1	9	0.00534678	0.00225922	0	-3.27018e-05	0.407261	0.112592	0.422538	15.4541	1791.56	6480.32	6723.41	-74.5459	0.0000000E+000	0.0000000E+000	0.0000000E+000	74.5459	0.0000000E+000	0.0000000E+000	0.0000000E+000	-74.5459	0.0000000E+000	0.0000000E+000	0.0000000E+000	-15.4541	0.0000000E+000	0.0000000E+000	0.0000000E+000	15.4541	3.61714	74.5459	4.32999e-07	-5.84389e-06	11663.4
4641.49	2.57177	0.771528	2.68501	-16.6992	6.10171	0.261073	-0.0225889	44.4438	3.66964	1	9	0.0051477	0.0019172	0	-4.61579e-05	0.356731	0.107019	0.372438	16.6992	3669.64	12232.2	12770.8	-73.3008	0.0000000E+000	0.0000000E+000	0.0000000E+000	73.3008	0.0000000E+000	0.0000000E+000	0.0000000E+000	-73.3008	0.0000000E+000	0.0000000E+000	0.0000000E+000	-16.6992	0.0000000E+000	0.0000000E+000	0.0000000E+000	16.6992	3.33335	73.3008	-3.12336e-06	-5.89734e-06	11557.6
2155.69	2.89521	1.0066	3.0652	-19.1714	7.25871	0.261073	-0.0224027	73.3463	7.90989	1	9	0.00536926	0.00175168	0	-5.51888e-05	0.308149	0.107136	0.326243	19.1714	7909.89	22750.7	24086.5	-70.8286	0.0000000E+000	0.0000000E+000	0.0000000E+000	70.8286	0.0000000E+000	0.0000000E+000	0.0000000E+000	-70.8286	0.0000000E+000	0.0000000E+000	0.0000000E+000	-19.1714	0.0000000E+000	0.0000000E+000	0.0000000E+000	19.1714	2.87624	70.8286	-2.39092e-06	-5.84873e-06	11653.7
1000.32	3.29918	1.43247	3.59674	-23.4699	8.44869	0.261077	-0.0121926	111.07	17.6176	1	10	0.00540815	0.00150362	0	-6.27784e-05	0.255028	0.11073	0.278029	23.4699	17617.6	40575.9	44235.6	-66.5301	0.0000000E+000	0.0000000E+000	0.0000000E+000	66.5301	0.0000000E+000	0.0000000E+000	0.0000000E+000	-66.5301	0.0000000E+000	0.0000000E+000	0.0000000E+000	-23.4699	0.0000000E+000	0.0000000E+000	0.0000000E+000	23.4699	2.30315	66.5301	-5.2261e-06	-3.1832e-06	21412.8
463.961	3.93231	2.18507	4.49863	-29.0597	9.38322	0.261083	-0.0122372	156.99	37.0378	1	10	0.00527162	0.00117183	0	-6.64423e-05	0.194307	0.107971	0.22229	29.0597	37037.8	66654.2	76253.4	-60.9403	0.0000000E+000	0.0000000E+000	0.0000000E+000	60.9403	0.0000000E+000	0.0000000E+000	0.0000000E+000	-60.9403	0.0000000E+000	0.0000000E+000	0.0000000E+000	-29.0597	0.0000000E+000	0.0000000E+000	0.0000000E+000	29.0597	1.79962	60.9403	-1.05866e-06	-3.19493e-06	21335.1
215.345	5.10129	3.32079	6.08694	-33.063	10.3174	0.261075	-0.012079	222.559	66.2415	1	10	0.00517938	0.000850901	0	-7.01719e-05	0.137683	0.089628	0.164286	33.063	66241.5	101758	121419	-56.937	0.0000000E+000	0.0000000E+000	0.0000000E+000	56.937	0.0000000E+000	0.0000000E+000	0.0000000E+000	-56.937	0.0000000E+000	0.0000000E+000	0.0000000E+000	-33.063	0.0000000E+000	0.0000000E+000	0.0000000E+000	33.063	1.53617	56.937	-2.18138e-06	-3.15353e-06	21613.9
100.032	7.19893	4.59199	8.53879	-32.5326	11.2487	0.261083	-0.0119506	346.481	100.205	1	10	0.0051452	0.000602568	0	-7.27312e-05	0.0987359	0.0629808	0.117113	32.5326	100205	157093	186331	-57.4674	0.0000000E+000	0.0000000E+000	0.0000000E+000	57.4674	0.0000000E+000	0.0000000E+000	0.0000000E+000	-57.4674	0.0000000E+000	0.0000000E+000	0.0000000E+000	-32.5326	0.0000000E+000	0.0000000E+000	0.0000000E+000	32.5326	1.56771	57.4674	-1.2012e-06	-3.12009e-06	21846.9
[...]
1.00006	18.133	2.60137	18.3186	-8.16398	21.5202	0.261095	-0.0052764	61177.4	1233.7	1	12	0.00512884	0.000279979	0	-0.000103772	0.054036	0.00775203	0.0545892	8.16398	1.2337e+06	8.59955e+06	8.68759e+06	-81.836	0.0000000E+000	0.0000000E+000	0.0000000E+000	81.836	0.0000000E+000	0.0000000E+000	0.0000000E+000	-81.836	0.0000000E+000	0.0000000E+000	0.0000000E+000	-8.16398	0.0000000E+000	0.0000000E+000	0.0000000E+000	8.16398	6.97056	81.836	-1.13821e-05	-1.37764e-06	49483.7
0.464091	19.5299	3.16352	19.7845	-9.20105	29.2049	0.261099	-0.00525087	108404	2771.66	1	12	0.00512715	0.00025915	0	-9.41057e-05	0.0498944	0.00808206	0.0505447	9.20105	2.77166e+06	1.71107e+07	1.73338e+07	-80.799	0.0000000E+000	0.0000000E+000	0.0000000E+000	80.799	0.0000000E+000	0.0000000E+000	0.0000000E+000	-80.799	0.0000000E+000	0.0000000E+000	0.0000000E+000	-9.20105	0.0000000E+000	0.0000000E+000	0.0000000E+000	9.20105	6.17347	80.799	9.91054e-06	-1.371e-06	49724.8
0.215268	21.4629	3.51441	21.7488	-9.29928	45.6847	0.2611	-0.00320814	210372	5493.19	1	12	0.00512802	0.000235784	0	-7.57545e-05	0.0453753	0.00742991	0.0459796	9.29928	5.49319e+06	3.35476e+07	3.39943e+07	-80.7007	0.0000000E+000	0.0000000E+000	0.0000000E+000	80.7007	0.0000000E+000	0.0000000E+000	0.0000000E+000	-80.7007	0.0000000E+000	0.0000000E+000	0.0000000E+000	-9.29928	0.0000000E+000	0.0000000E+000	0.0000000E+000	9.29928	6.10712	80.7007	4.8133e-06	-8.37644e-07	81386.6
0.0999041	23.223	3.63547	23.5058	-8.89723	81.0902	0.261102	-0.000574089	438204	10482.1	1	12	0.00512759	0.000218141	0	-0.000145659	0.0420308	0.00657976	0.0425427	8.89723	1.04821e+07	6.69583e+07	6.77738e+07	-81.1028	0.0000000E+000	0.0000000E+000	0.0000000E+000	81.1028	0.0000000E+000	0.0000000E+000	0.0000000E+000	-81.1028	0.0000000E+000	0.0000000E+000	0.0000000E+000	-8.89723	0.0000000E+000	0.0000000E+000	0.0000000E+000	8.89723	6.38789	81.1028	-5.22288e-05	-1.49896e-07	454811
0.0464052	24.6507	4.23768	25.0123	-9.75433	157.327	0.261098	-0.0013982	809330	23231.4	1	12	0.00512701	0.00020498	0	-0.00035301	0.0394024	0.00677364	0.0399804	9.75433	2.32314e+07	1.35138e+08	1.3712e+08	-80.2457	0.0000000E+000	0.0000000E+000	0.0000000E+000	80.2457	0.0000000E+000	0.0000000E+000	0.0000000E+000	-80.2457	0.0000000E+000	0.0000000E+000	0.0000000E+000	-9.75433	0.0000000E+000	0.0000000E+000	0.0000000E+000	9.75433	5.81702	80.2457	-0.000122009	-3.65068e-07	186738
0.0215268	26.1319	6.62719	26.9591	-14.2305	321.557	0.261098	-0.00247768	1.11561e+06	67415.4	1	12	0.0051233	0.00019004	0	-0.00045207	0.035955	0.00911838	0.0370932	14.2305	6.74153e+07	2.65827e+08	2.74243e+08	-75.7695	0.0000000E+000	0.0000000E+000	0.0000000E+000	75.7695	0.0000000E+000	0.0000000E+000	0.0000000E+000	-75.7695	0.0000000E+000	0.0000000E+000	0.0000000E+000	-14.2305	0.0000000E+000	0.0000000E+000	0.0000000E+000	14.2305	3.94313	75.7695	7.45629e-06	-6.46917e-07	105380
0.0100092	28.1762	11.0852	30.2783	-21.4759	674.773	0.261101	-0.000592847	1.43443e+06	192266	1	12	0.00512556	0.000169282	0	0.000217222	0.0307339	0.0120915	0.0330269	21.4759	1.92266e+08	4.88697e+08	5.25158e+08	-68.5241	0.0000000E+000	0.0000000E+000	0.0000000E+000	68.5241	0.0000000E+000	0.0000000E+000	0.0000000E+000	-68.5241	0.0000000E+000	0.0000000E+000	0.0000000E+000	-21.4759	0.0000000E+000	0.0000000E+000	0.0000000E+000	21.4759	2.54178	68.5241	0.000445477	-1.54793e-07	440419