Folder: EIS/txt (part 66)

File: 17741_R277_UA674_SOC00_C05.mpt
EC-Lab ASCII FILE
Nb header lines : 63

Potentio Electrochemical Impedance Spectroscopy

Run on channel : 5 (SN 65912)
User :
CE vs. WE compliance from -10 V to 10 V
Electrode connection : standard
Potential control : Ewe
Ewe ctrl range : min = -10.00 V, max = 10.00 V
Safety Limits :
	Do not start on E overload
Acquisition started on : 09/22/2025 08:11:46.788
Loaded Setting File :  C:\Users\Celltest\OneDrive - store-dot.com\Documents\EC-Lab\Data\Gyutae\17740_R277_UA674_SOC00_C04.mpr
Saved on :
	File : 17741_R277_UA674_SOC00_C05.mpr
	Directory : C:\Users\Celltest\OneDrive - store-dot.com\Documents\EC-Lab\Data\Gyutae\
	Host : 169.254.61.224
Device : VMP-3e (SN .003165)
Address : USB
EC-LAB for windows v11.62 (software)
Internet server v27.00 (firmware)
Command interpretor v12.03 (firmware)
Electrode material :
Initial state :
Electrolyte :
Comments :
Electrode surface area : 0.001 cm²
Characteristic mass : 0.001 g
Equivalent Weight : 0.000 g/eq.
Density : 0.000 g/cm3
Volume (V) : 0.001 cm³
Cycle Definition : Charge/Discharge alternance
Mode                Single sine
E (V)               0.0000
vs.                 Eoc
tE (h:m:s)          0:00:0.0000
record              0
dI                  0.000
unit dI             mA
dt (s)              0.000
fi                  100.000
unit fi             kHz
ff                  10.000
unit ff             mHz
Nd                  6
Points              per decade
spacing             Logarithmic
Va (mV)             5.0
pw                  0.10
Na                  2
corr                0
E range min (V)     -10.000
E range max (V)     10.000
I Range             Auto
Bandwidth           5
nc cycles           0
goto Ns'            0
nr cycles           0
inc. cycle          0

freq/Hz	Re(Z)/Ohm	-Im(Z)/Ohm	|Z|/Ohm	Phase(Z)/deg	time/s	<Ewe>/V	<I>/mA	Cs/µF	Cp/µF	cycle number	I Range	|Ewe|/V	|I|/A	Ns	(Q-Qo)/mA.h	Re(Y)/Ohm-1	Im(Y)/Ohm-1	|Y|/Ohm-1	Phase(Y)/deg	Re(C)/nF	Im(C)/nF	|C|/nF	Phase(C)/deg	Re(M)	Im(M)	|M|	Phase(M)/deg	Re(Permittivity)	Im(Permittivity)	|Permittivity|	Phase(Permittivity)/deg	Re(Resistivity)/Ohm.cm	Im(Resistivity)/Ohm.cm	|Resistivity|/Ohm.cm	Phase(Resistivity)/deg	Re(Conductivity)/mS/cm	Im(Conductivity)/mS/cm	|Conductivity|/mS/cm	Phase(Conductivity)/deg	Tan(Delta)	Loss Angle(Delta)/deg	dq/mA.h	Pwe/W	Rwe/Ohm
100004	1.54662	0.314776	1.57832	-11.504	2.2275	0.28421	-0.0433314	5.05595	0.201101	1	9	0.00494663	0.00313411	0	-1.23094e-05	0.620856	0.12636	0.633584	11.504	201.1	988.086	1008.34	-78.496	0.0000000E+000	0.0000000E+000	0.0000000E+000	78.496	0.0000000E+000	0.0000000E+000	0.0000000E+000	-78.496	0.0000000E+000	0.0000000E+000	0.0000000E+000	-11.504	0.0000000E+000	0.0000000E+000	0.0000000E+000	11.504	4.91339	78.496	-1.23094e-05	-1.23152e-05	6558.99
46420.4	1.71407	0.398642	1.75981	-13.0926	3.38348	0.284199	-0.044039	8.6006	0.441327	1	9	0.00503231	0.00285957	0	-3.30814e-05	0.553471	0.128721	0.568242	13.0926	441.327	1897.61	1948.25	-76.9074	0.0000000E+000	0.0000000E+000	0.0000000E+000	76.9074	0.0000000E+000	0.0000000E+000	0.0000000E+000	-76.9074	0.0000000E+000	0.0000000E+000	0.0000000E+000	-13.0926	0.0000000E+000	0.0000000E+000	0.0000000E+000	13.0926	4.29977	76.9074	-1.27846e-05	-1.25158e-05	6453.35
21544.7	1.90671	0.512627	1.97442	-15.0484	4.2575	0.28421	-0.0411343	14.4105	0.97141	1	9	0.00529256	0.00268056	0	-4.14482e-05	0.489109	0.131499	0.506478	15.0484	971.41	3613.15	3741.46	-74.9516	0.0000000E+000	0.0000000E+000	0.0000000E+000	74.9516	0.0000000E+000	0.0000000E+000	0.0000000E+000	-74.9516	0.0000000E+000	0.0000000E+000	0.0000000E+000	-15.0484	0.0000000E+000	0.0000000E+000	0.0000000E+000	15.0484	3.71949	74.9516	-3.38002e-06	-1.16908e-05	6909.32
10002.2	2.15725	0.663205	2.2569	-17.089	4.99148	0.28421	-0.0454541	23.9925	2.0718	1	9	0.0054862	0.00243086	0	-4.59223e-05	0.423524	0.130204	0.443086	17.089	2071.8	6739.09	7050.36	-72.911	0.0000000E+000	0.0000000E+000	0.0000000E+000	72.911	0.0000000E+000	0.0000000E+000	0.0000000E+000	-72.911	0.0000000E+000	0.0000000E+000	0.0000000E+000	-17.089	0.0000000E+000	0.0000000E+000	0.0000000E+000	17.089	3.25277	72.911	-2.46516e-06	-1.29185e-05	6252.69
4641.49	2.48897	0.880311	2.64006	-19.4779	6.01768	0.284239	-0.0113425	38.9518	4.33083	1	9	0.00497517	0.00188449	0	-5.84234e-05	0.357101	0.126301	0.378779	19.4779	4330.83	12244.9	12988.2	-70.5221	0.0000000E+000	0.0000000E+000	0.0000000E+000	70.5221	0.0000000E+000	0.0000000E+000	0.0000000E+000	-70.5221	0.0000000E+000	0.0000000E+000	0.0000000E+000	-19.4779	0.0000000E+000	0.0000000E+000	0.0000000E+000	19.4779	2.82738	70.5221	1.69316e-07	-3.22396e-06	25059.7
2155.69	2.92382	1.16405	3.14702	-21.7088	6.95269	0.284238	-0.0104114	63.4252	8.67775	1	9	0.00486678	0.00154647	0	-6.21646e-05	0.295224	0.117537	0.317761	21.7088	8677.75	21796.4	23460.3	-68.2912	0.0000000E+000	0.0000000E+000	0.0000000E+000	68.2912	0.0000000E+000	0.0000000E+000	0.0000000E+000	-68.2912	0.0000000E+000	0.0000000E+000	0.0000000E+000	-21.7088	0.0000000E+000	0.0000000E+000	0.0000000E+000	21.7088	2.51176	68.2912	-7.91508e-07	-2.95933e-06	27300.5
1000.32	3.47394	1.53658	3.7986	-23.8606	8.14271	0.284228	-0.015525	103.544	16.943	1	10	0.00487873	0.00128435	0	-6.59514e-05	0.240755	0.10649	0.263255	23.8606	16943	38305.1	41884.9	-66.1394	0.0000000E+000	0.0000000E+000	0.0000000E+000	66.1394	0.0000000E+000	0.0000000E+000	0.0000000E+000	-66.1394	0.0000000E+000	0.0000000E+000	0.0000000E+000	-23.8606	0.0000000E+000	0.0000000E+000	0.0000000E+000	23.8606	2.26082	66.1394	-1.0023e-06	-4.41265e-06	18307.7
463.961	4.20789	2.08058	4.69416	-26.31	9.07721	0.284224	-0.0157391	164.875	32.3898	1	10	0.00481477	0.00102569	0	-6.95125e-05	0.190963	0.094421	0.213031	26.31	32389.8	65507	73077.1	-63.69	0.0000000E+000	0.0000000E+000	0.0000000E+000	63.69	0.0000000E+000	0.0000000E+000	0.0000000E+000	-63.69	0.0000000E+000	0.0000000E+000	0.0000000E+000	-26.31	0.0000000E+000	0.0000000E+000	0.0000000E+000	26.31	2.02246	63.69	-1.85288e-06	-4.47343e-06	18058.4
215.345	5.22958	2.91779	5.98849	-29.1589	10.0115	0.284223	-0.0156423	253.298	60.1321	1	10	0.00477944	0.000798105	0	-7.21862e-05	0.145825	0.0813618	0.166987	29.1589	60132.1	107775	123415	-60.8411	0.0000000E+000	0.0000000E+000	0.0000000E+000	60.8411	0.0000000E+000	0.0000000E+000	0.0000000E+000	-60.8411	0.0000000E+000	0.0000000E+000	0.0000000E+000	-29.1589	0.0000000E+000	0.0000000E+000	0.0000000E+000	29.1589	1.7923	60.8411	-1.33177e-06	-4.44591e-06	18170.1
100.032	6.85787	4.02587	7.95223	-30.4148	10.9427	0.284224	-0.0150745	395.204	101.289	1	10	0.00476335	0.000598995	0	-7.68592e-05	0.108445	0.0636621	0.125751	30.4148	101289	172541	200075	-59.5852	0.0000000E+000	0.0000000E+000	0.0000000E+000	59.5852	0.0000000E+000	0.0000000E+000	0.0000000E+000	-59.5852	0.0000000E+000	0.0000000E+000	0.0000000E+000	-30.4148	0.0000000E+000	0.0000000E+000	0.0000000E+000	30.4148	1.70345	59.5852	-2.46993e-06	-4.28454e-06	18854.6
46.4415	9.37433	5.05811	10.6519	-28.35	11.8765	0.284226	-0.0160798	677.524	152.774	1	10	0.00476196	0.000447053	0	-8.12195e-05	0.0826205	0.0445796	0.0938801	28.35	152774	283140	321727	-61.65	0.0000000E+000	0.0000000E+000	0.0000000E+000	61.65	0.0000000E+000	0.0000000E+000	0.0000000E+000	-61.65	0.0000000E+000	0.0000000E+000	0.0000000E+000	-28.35	0.0000000E+000	0.0000000E+000	0.0000000E+000	28.35	1.85333	61.65	-2.15045e-06	-4.57031e-06	17675.9
[...]
1.00006	20.1106	2.22342	20.2331	-6.30899	21.2152	0.284256	-0.00633884	71576.4	864.347	1	12	0.0047597	0.000235243	0	-9.80843e-05	0.0491246	0.0054312	0.0494239	6.30899	864348	7.81792e+06	7.86555e+06	-83.691	0.0000000E+000	0.0000000E+000	0.0000000E+000	83.691	0.0000000E+000	0.0000000E+000	0.0000000E+000	-83.691	0.0000000E+000	0.0000000E+000	0.0000000E+000	-6.30899	0.0000000E+000	0.0000000E+000	0.0000000E+000	6.30899	9.04488	83.691	3.28098e-06	-1.80186e-06	44843.6
0.464091	20.8714	1.82236	20.9509	-4.99005	28.8998	0.284253	-0.00455829	188184	1423.8	1	12	0.00475915	0.000227158	0	-0.000101602	0.0475498	0.00415176	0.0477308	4.99005	1.4238e+06	1.63067e+07	1.63688e+07	-85.0099	0.0000000E+000	0.0000000E+000	0.0000000E+000	85.0099	0.0000000E+000	0.0000000E+000	0.0000000E+000	-85.0099	0.0000000E+000	0.0000000E+000	0.0000000E+000	-4.99005	0.0000000E+000	0.0000000E+000	0.0000000E+000	4.99005	11.4529	85.0099	-6.29839e-06	-1.29571e-06	62359.6
0.215268	21.4106	1.85174	21.4906	-4.94303	45.3798	0.284261	-0.00261939	399266	2964.32	1	12	0.00475971	0.000221479	0	-0.000160442	0.046359	0.00400944	0.0465321	4.94303	2.96432e+06	3.42748e+07	3.44028e+07	-85.057	0.0000000E+000	0.0000000E+000	0.0000000E+000	85.057	0.0000000E+000	0.0000000E+000	0.0000000E+000	-85.057	0.0000000E+000	0.0000000E+000	0.0000000E+000	-4.94303	0.0000000E+000	0.0000000E+000	0.0000000E+000	4.94303	11.5625	85.057	-3.74216e-05	-7.44591e-07	108522
0.0999041	22.0736	2.50999	22.2158	-6.48724	80.7854	0.284258	-0.00384238	634695	8101.84	1	12	0.00475766	0.000214156	0	-0.000248945	0.0447248	0.00508565	0.045013	6.48724	8.10184e+06	7.125e+07	7.17091e+07	-83.5128	0.0000000E+000	0.0000000E+000	0.0000000E+000	83.5128	0.0000000E+000	0.0000000E+000	0.0000000E+000	-83.5128	0.0000000E+000	0.0000000E+000	0.0000000E+000	-6.48724	0.0000000E+000	0.0000000E+000	0.0000000E+000	6.48724	8.7943	83.5128	-4.0908e-05	-1.09223e-06	73979.7
0.0464052	22.9205	4.05945	23.2772	-10.0435	157.022	0.284258	-0.00314236	844862	25695.6	1	12	0.00475856	0.00020443	0	-0.000202314	0.0423021	0.00749212	0.0429604	10.0435	2.56956e+07	1.45083e+08	1.4734e+08	-79.9565	0.0000000E+000	0.0000000E+000	0.0000000E+000	79.9565	0.0000000E+000	0.0000000E+000	0.0000000E+000	-79.9565	0.0000000E+000	0.0000000E+000	0.0000000E+000	-10.0435	0.0000000E+000	0.0000000E+000	0.0000000E+000	10.0435	5.64621	79.9565	5.98126e-05	-8.93242e-07	90460.2
0.0215268	24.4722	6.74497	25.3847	-15.4092	321.251	0.284258	-0.000171327	1.09613e+06	77388.9	1	12	0.00476101	0.000187555	0	0.000114044	0.0379778	0.0104674	0.0393939	15.4092	7.73889e+07	2.80783e+08	2.91253e+08	-74.5908	0.0000000E+000	0.0000000E+000	0.0000000E+000	74.5908	0.0000000E+000	0.0000000E+000	0.0000000E+000	-74.5908	0.0000000E+000	0.0000000E+000	0.0000000E+000	-15.4092	0.0000000E+000	0.0000000E+000	0.0000000E+000	15.4092	3.62821	74.5908	0.000172175	-4.87011e-08	1.65916e+06
0.0100092	26.6031	12.0773	29.2162	-24.4171	674.467	0.28426	0.000428767	1.31659e+06	224980	1	12	0.00475994	0.000162921	0	-7.93797e-05	0.0311662	0.0141489	0.0342276	24.4171	2.2498e+08	4.95572e+08	5.44249e+08	-65.5829	0.0000000E+000	0.0000000E+000	0.0000000E+000	65.5829	0.0000000E+000	0.0000000E+000	0.0000000E+000	-65.5829	0.0000000E+000	0.0000000E+000	0.0000000E+000	-24.4171	0.0000000E+000	0.0000000E+000	0.0000000E+000	24.4171	2.20274	65.5829	-0.000248557	1.21882e-07	662971

File: 17920_R288_UA670_SOC00_C01.mpt
EC-Lab ASCII FILE
Nb header lines : 64

Potentio Electrochemical Impedance Spectroscopy

Run on channel : 1 (SN 66354)
User :
CE vs. WE compliance from -10 V to 10 V
Electrode connection : standard
Potential control : Ewe
Ewe ctrl range : min = -10.00 V, max = 10.00 V
Safety Limits :
	Do not start on E overload
Acquisition started on : 09/29/2025 15:12:49.008
Loaded Setting File :  C:\Users\Celltest\OneDrive - store-dot.com\Documents\EC-Lab\Data\@Biologic Test Protocols\anode half cell EIS SOC00.mps
Saved on :
	File : 17920_R288_UA670_SOC00_C01.mpr
	Directory : C:\Users\Celltest\OneDrive - store-dot.com\Documents\EC-Lab\Data\Charmaine\
	Host : 169.254.61.224
Device : VMP-3e (SN .003165)
Address : USB
EC-LAB for windows v11.62 (software)
Internet server v27.00 (firmware)
Command interpretor v12.03 (firmware)
Electrode material :
Initial state :
Electrolyte :
Comments :
Electrode surface area : 0.001 cm²
Characteristic mass : 0.001 g
Equivalent Weight : 0.000 g/eq.
Density : 0.000 g/cm3
Volume (V) : 0.001 cm³
Record Ece
Cycle Definition : Charge/Discharge alternance
Mode                Single sine
E (V)               0.0000
vs.                 Eoc
tE (h:m:s)          0:00:0.0000
record              0
dI                  0.000
unit dI             mA
dt (s)              0.000
fi                  100.000
unit fi             kHz
ff                  10.000
unit ff             mHz
Nd                  6
Points              per decade
spacing             Logarithmic
Va (mV)             5.0
pw                  0.10
Na                  2
corr                0
E range min (V)     -10.000
E range max (V)     10.000
I Range             Auto
Bandwidth           5
nc cycles           0
goto Ns'            0
nr cycles           0
inc. cycle          0

freq/Hz	Re(Z)/Ohm	-Im(Z)/Ohm	|Z|/Ohm	Phase(Z)/deg	time/s	<Ewe>/V	<I>/mA	Cs/µF	Cp/µF	cycle number	I Range	|Ewe|/V	|I|/A	Ns	(Q-Qo)/mA.h	<Ece>/V	|Ece|/V	Phase(Zce)/deg	|Zce|/Ohm	Re(Zce)/Ohm	-Im(Zce)/Ohm	Phase(Zwe-ce)/deg	|Zwe-ce|/Ohm	Re(Zwe-ce)/Ohm	-Im(Zwe-ce)/Ohm	Re(Y)/Ohm-1	Im(Y)/Ohm-1	|Y|/Ohm-1	Phase(Y)/deg	Re(C)/nF	Im(C)/nF	|C|/nF	Phase(C)/deg	Re(M)	Im(M)	|M|	Phase(M)/deg	Re(Permittivity)	Im(Permittivity)	|Permittivity|	Phase(Permittivity)/deg	Re(Resistivity)/Ohm.cm	Im(Resistivity)/Ohm.cm	|Resistivity|/Ohm.cm	Phase(Resistivity)/deg	Re(Conductivity)/mS/cm	Im(Conductivity)/mS/cm	|Conductivity|/mS/cm	Phase(Conductivity)/deg	Tan(Delta)	Loss Angle(Delta)/deg	dq/mA.h	Pwe/W	Pce/W	Pwe-ce/W	<Ewe-Ece>/V	Rwe/Ohm	Rce/Ohm	Rwe-ce/Ohm		Ewe-Ece/V
100004	0.833952	0.188716	0.855038	-12.7508	1.72552	0.262449	0.0987195	8.43326	0.410811	1	9	0.00493416	0.00577069	0	-4.69387e-06	4.04943e-05	5.07011e-05	93.3705	0.00878595	-0.000516554	-0.00877076	-12.1836	0.85264	0.833435	0.179945	1.1407	0.25813	1.16954	12.7508	410.811	1815.41	1861.31	-77.2492	0.0000000E+000	0.0000000E+000	0.0000000E+000	77.2492	0.0000000E+000	0.0000000E+000	0.0000000E+000	-77.2492	0.0000000E+000	0.0000000E+000	0.0000000E+000	-12.7508	0.0000000E+000	0.0000000E+000	0.0000000E+000	12.7508	4.41909	77.2492	-4.69387e-06	2.59088e-05	3.99757e-09	2.59048e-05	0.262408	2658.53	0.410195	2658.12
31621.1	0.989136	0.281389	1.02838	-15.88	2.99854	0.262439	0.107884	17.8869	1.33918	1	9	0.00509109	0.00495058	0	-3.07125e-05	-0.000150279	1.78018e-05	46.9326	0.0035959	0.00245549	-0.00262699	-15.702	1.03003	0.991592	0.278762	0.935291	0.266071	0.972401	15.88	1339.18	4707.49	4894.27	-74.12	0.0000000E+000	0.0000000E+000	0.0000000E+000	74.12	0.0000000E+000	0.0000000E+000	0.0000000E+000	-74.12	0.0000000E+000	0.0000000E+000	0.0000000E+000	-15.88	0.0000000E+000	0.0000000E+000	0.0000000E+000	15.88	3.51519	74.12	9.22472e-06	2.8313e-05	-1.62127e-08	2.83292e-05	0.262589	2432.6	1.39297	2434
10002.2	1.21314	0.419765	1.28371	-19.0863	4.14953	0.262435	0.0986077	37.9068	4.05315	1	9	0.00487516	0.0037977	0	-8.40612e-06	0.000250345	8.65032e-06	-87.6421	0.00227778	9.37098e-05	0.00227585	-19.1809	1.28455	1.21324	0.422041	0.736166	0.254724	0.77899	19.0863	4053.15	11713.8	12395.2	-70.9137	0.0000000E+000	0.0000000E+000	0.0000000E+000	70.9137	0.0000000E+000	0.0000000E+000	0.0000000E+000	-70.9137	0.0000000E+000	0.0000000E+000	0.0000000E+000	-19.0863	0.0000000E+000	0.0000000E+000	0.0000000E+000	19.0863	2.89006	70.9137	1.33567e-05	2.58781e-05	2.46859e-08	2.58535e-05	0.262185	2661.41	2.53879	2658.87
3163.08	1.53887	0.623068	1.66022	-22.0424	5.17168	0.262188	-0.0808465	80.756	11.374	1	9	0.00457046	0.00275292	0	8.64633e-06	0.000307577	5.6568e-06	-70.9812	0.00205484	0.000669627	0.00194266	-22.0958	1.66157	1.53954	0.62501	0.558304	0.22605	0.60233	22.0424	11374	28091.9	30307.1	-67.9576	0.0000000E+000	0.0000000E+000	0.0000000E+000	67.9576	0.0000000E+000	0.0000000E+000	0.0000000E+000	-67.9576	0.0000000E+000	0.0000000E+000	0.0000000E+000	-22.0424	0.0000000E+000	0.0000000E+000	0.0000000E+000	22.0424	2.46983	67.9576	-4.35729e-06	-2.1197e-05	-2.48665e-08	-2.11721e-05	0.261881	3243.04	3.80445	3239.24
1000.32	2.02073	0.979388	2.24556	-25.8581	6.73978	0.262255	0.0135188	162.452	30.9019	1	9	0.0049655	0.00221125	0	8.78e-06	7.86489e-05	6.79819e-06	-50.5218	0.00307437	0.00195464	0.00237301	-25.8908	2.24836	2.02269	0.981761	0.400735	0.194225	0.445322	25.8581	30901.9	63758.6	70852.6	-64.1419	0.0000000E+000	0.0000000E+000	0.0000000E+000	64.1419	0.0000000E+000	0.0000000E+000	0.0000000E+000	-64.1419	0.0000000E+000	0.0000000E+000	0.0000000E+000	-25.8581	0.0000000E+000	0.0000000E+000	0.0000000E+000	25.8581	2.06326	64.1419	-6.17923e-07	3.54537e-06	1.06323e-09	3.5443e-06	0.262177	19399.4	5.81776	19393.6
316.316	2.81287	1.72768	3.30107	-31.5584	8.33403	0.262334	-0.0258915	291.231	79.772	1	10	0.00497712	0.00150773	0	1.12525e-05	2.33964e-06	8.08431e-06	-38.5958	0.00536191	0.00419069	0.00334488	-31.5698	3.3064	2.81706	1.73102	0.25813	0.158545	0.302932	31.5584	79772	129879	152421	-58.4416	0.0000000E+000	0.0000000E+000	0.0000000E+000	58.4416	0.0000000E+000	0.0000000E+000	0.0000000E+000	-58.4416	0.0000000E+000	0.0000000E+000	0.0000000E+000	-31.5584	0.0000000E+000	0.0000000E+000	0.0000000E+000	31.5584	1.62812	58.4416	-2.50018e-06	-6.79223e-06	-6.05768e-11	-6.79217e-06	0.262332	10132.1	0.0903635	10132
100.032	4.54405	2.75757	5.31532	-31.2516	9.68082	0.262327	-0.0268456	576.972	155.292	1	10	0.00494296	0.000929947	0	1.23547e-07	0.000288499	8.97136e-06	-45.3812	0.00964718	0.00677605	0.00686682	-31.2769	5.32467	4.55083	2.76443	0.160837	0.0976041	0.188136	31.2516	155292	255898	299331	-58.7484	0.0000000E+000	0.0000000E+000	0.0000000E+000	58.7484	0.0000000E+000	0.0000000E+000	0.0000000E+000	-58.7484	0.0000000E+000	0.0000000E+000	0.0000000E+000	-31.2516	0.0000000E+000	0.0000000E+000	0.0000000E+000	31.2516	1.64785	58.7484	-1.90554e-06	-7.04232e-06	-7.74493e-09	-7.03458e-06	0.262039	9771.71	10.7466	9760.96
31.6296	7.22434	2.97059	7.81124	-22.3521	11.0096	0.262319	-0.0282097	1693.88	244.98	1	10	0.00493225	0.00063143	0	-8.44468e-06	-9.30469e-05	1.1967e-05	11.3184	0.0189522	0.0185836	-0.00371956	-22.2752	7.82702	7.24292	2.96687	0.118402	0.0486859	0.128021	22.3521	244980	595779	644180	-67.6479	0.0000000E+000	0.0000000E+000	0.0000000E+000	67.6479	0.0000000E+000	0.0000000E+000	0.0000000E+000	-67.6479	0.0000000E+000	0.0000000E+000	0.0000000E+000	-22.3521	0.0000000E+000	0.0000000E+000	0.0000000E+000	22.3521	2.43195	67.6479	-3.06005e-06	-7.39992e-06	2.62482e-09	-7.40254e-06	0.262412	9298.89	3.29841	9302.19
[...]
1.00006	11.2623	1.12081	11.318	-5.68325	18.7126	0.262365	-0.00734916	141991	1392.47	1	11	0.00493183	0.000435752	0	-3.23294e-05	0.000250345	4.8703e-06	-14.7413	0.0111768	0.0108089	0.00284398	-5.69215	11.329	11.2731	1.12365	0.0879208	0.00874971	0.0883551	5.68325	1.39247e+06	1.39921e+07	1.40613e+07	-84.3167	0.0000000E+000	0.0000000E+000	0.0000000E+000	84.3167	0.0000000E+000	0.0000000E+000	0.0000000E+000	-84.3167	0.0000000E+000	0.0000000E+000	0.0000000E+000	-5.68325	0.0000000E+000	0.0000000E+000	0.0000000E+000	5.68325	10.0484	84.3167	-1.51009e-05	-1.92816e-06	-1.83982e-09	-1.92632e-06	0.262115	35700	34.0644	35665.9
0.316193	11.8421	1.16167	11.8989	-5.6026	33.0531	0.262373	-0.008965	433298	4129.86	1	11	0.00493355	0.000414622	0	-0.000106665	0.000288499	2.66615e-06	-43.2976	0.0064303	0.00467998	0.00440982	-5.62152	11.904	11.8467	1.16608	0.0836399	0.00820479	0.0840414	5.6026	4.12986e+06	4.20999e+07	4.2302e+07	-84.3974	0.0000000E+000	0.0000000E+000	0.0000000E+000	84.3974	0.0000000E+000	0.0000000E+000	0.0000000E+000	-84.3974	0.0000000E+000	0.0000000E+000	0.0000000E+000	-5.6026	0.0000000E+000	0.0000000E+000	0.0000000E+000	5.6026	10.194	84.3974	-1.96962e-05	-2.35218e-06	-2.58639e-09	-2.34959e-06	0.262085	29266.4	32.1806	29234.2
0.0999041	12.5113	1.92139	12.658	-8.7308	78.2613	0.262364	-0.00626269	829128	19103.8	1	11	0.00493636	0.000389979	0	-1.72798e-06	0.000269422	1.61277e-06	9.03355	0.00413553	0.00408424	-0.000649331	-8.72509	12.662	12.5154	1.92074	0.0780859	0.0119918	0.0790013	8.7308	1.91038e+07	1.24397e+08	1.25855e+08	-81.2692	0.0000000E+000	0.0000000E+000	0.0000000E+000	81.2692	0.0000000E+000	0.0000000E+000	0.0000000E+000	-81.2692	0.0000000E+000	0.0000000E+000	0.0000000E+000	-8.7308	0.0000000E+000	0.0000000E+000	0.0000000E+000	8.7308	6.51161	81.2692	6.2477e-05	-1.6431e-06	-1.68731e-09	-1.64141e-06	0.262094	41893.1	43.0202	41850.1
0.0315922	13.8	3.91006	14.3432	-15.8194	221.144	0.262361	-0.00284828	1.28842e+06	95747.8	1	11	0.00493224	0.000343872	0	-0.000311258	0.000154958	2.28112e-06	10.3195	0.00663362	0.00652631	-0.00118832	-15.8077	14.3492	13.8065	3.90887	0.0670787	0.0190059	0.0697193	15.8194	9.57478e+07	3.37929e+08	3.51231e+08	-74.1806	0.0000000E+000	0.0000000E+000	0.0000000E+000	74.1806	0.0000000E+000	0.0000000E+000	0.0000000E+000	-74.1806	0.0000000E+000	0.0000000E+000	0.0000000E+000	-15.8194	0.0000000E+000	0.0000000E+000	0.0000000E+000	15.8194	3.52936	74.1806	-0.00028491	-7.47278e-07	-4.41364e-10	-7.46837e-07	0.262206	92112.3	54.4041	92057.9
0.0100092	16.336	8.34375	18.3435	-27.0561	740.686	0.262362	-0.00811695	1.90573e+06	394294	1	12	0.00493377	0.000268966	0	-0.00225999	-0.000245665	2.49574e-06	12.9724	0.00927903	0.00904221	-0.00208297	-27.0374	18.3506	16.345	8.34167	0.0485492	0.0247969	0.0545153	27.0561	3.94294e+08	7.71977e+08	8.66843e+08	-62.9439	0.0000000E+000	0.0000000E+000	0.0000000E+000	62.9439	0.0000000E+000	0.0000000E+000	0.0000000E+000	-62.9439	0.0000000E+000	0.0000000E+000	0.0000000E+000	-27.0561	0.0000000E+000	0.0000000E+000	0.0000000E+000	27.0561	1.95787	62.9439	-0.000563176	-2.12958e-06	1.99405e-09	-2.13157e-06	0.262607	32322.7	30.2657	32352.9