Folder: EIS/txt (part 135)

File: 18825_R307_UA701_4p38_SOC00_C04.mpt
EC-Lab ASCII FILE
Nb header lines : 65

Potentio Electrochemical Impedance Spectroscopy

Run on channel : 4 (SN 66756)
User :
CE vs. WE compliance from -10 V to 10 V
Electrode connection : standard
Potential control : Ewe
Ewe ctrl range : min = -10.00 V, max = 10.00 V
Safety Limits :
	Do not start on E overload
Acquisition started on : 11/03/2025 17:11:00.047
Technique started on : 11/03/2025 17:11:01.784
Loaded Setting File :  C:\Users\Celltest\OneDrive - store-dot.com\Documents\EC-Lab\Data\@Biologic Test Protocols\anode half cell EIS SOC00.mps
Saved on :
	File : 18825_R307_UA701_4p38_SOC00_C04.mpr
	Directory : C:\Users\Celltest\OneDrive - store-dot.com\Documents\EC-Lab\Data\Anna\
	Host : 169.254.61.224
Device : VMP-3e (SN .003165)
Address : USB
EC-LAB for windows v11.62 (software)
Internet server v27.00 (firmware)
Command interpretor v12.03 (firmware)
Electrode material :
Initial state :
Electrolyte :
Comments :
Electrode surface area : 0.001 cm²
Characteristic mass : 0.001 g
Equivalent Weight : 0.000 g/eq.
Density : 0.000 g/cm3
Volume (V) : 0.001 cm³
Record Ece
Cycle Definition : Charge/Discharge alternance
Mode                Single sine
E (V)               0.0000
vs.                 Eoc
tE (h:m:s)          0:00:0.0000
record              0
dI                  0.000
unit dI             mA
dt (s)              0.000
fi                  100.000
unit fi             kHz
ff                  10.000
unit ff             mHz
Nd                  6
Points              per decade
spacing             Logarithmic
Va (mV)             5.0
pw                  0.10
Na                  2
corr                0
E range min (V)     -10.000
E range max (V)     10.000
I Range             Auto
Bandwidth           5
nc cycles           0
goto Ns'            0
nr cycles           0
inc. cycle          0

freq/Hz	Re(Z)/Ohm	-Im(Z)/Ohm	|Z|/Ohm	Phase(Z)/deg	time/s	<Ewe>/V	<I>/mA	Cs/µF	Cp/µF	cycle number	I Range	|Ewe|/V	|I|/A	Ns	(Q-Qo)/mA.h	<Ece>/V	|Ece|/V	Phase(Zce)/deg	|Zce|/Ohm	Re(Zce)/Ohm	-Im(Zce)/Ohm	Phase(Zwe-ce)/deg	|Zwe-ce|/Ohm	Re(Zwe-ce)/Ohm	-Im(Zwe-ce)/Ohm	Re(Y)/Ohm-1	Im(Y)/Ohm-1	|Y|/Ohm-1	Phase(Y)/deg	Re(C)/nF	Im(C)/nF	|C|/nF	Phase(C)/deg	Re(M)	Im(M)	|M|	Phase(M)/deg	Re(Permittivity)	Im(Permittivity)	|Permittivity|	Phase(Permittivity)/deg	Re(Resistivity)/Ohm.cm	Im(Resistivity)/Ohm.cm	|Resistivity|/Ohm.cm	Phase(Resistivity)/deg	Re(Conductivity)/mS/cm	Im(Conductivity)/mS/cm	|Conductivity|/mS/cm	Phase(Conductivity)/deg	Tan(Delta)	Loss Angle(Delta)/deg	dq/mA.h	Pwe/W	Pce/W	Pwe-ce/W	<Ewe-Ece>/V	Rwe/Ohm	Rce/Ohm	Rwe-ce/Ohm		Ewe-Ece/V
100004	1.32337	0.451065	1.39813	-18.8214	1.73654	0.262659	-0.0164334	3.52829	0.367237	1	9	0.00492141	0.00351998	0	-5.15526e-06	-0.000340371	3.19592e-05	55.0711	0.00907936	0.00519847	-0.00744383	-18.4646	1.40068	1.32857	0.443621	0.676995	0.23075	0.715239	18.8214	367.237	1077.43	1138.3	-71.1786	0.0000000E+000	0.0000000E+000	0.0000000E+000	71.1786	0.0000000E+000	0.0000000E+000	0.0000000E+000	-71.1786	0.0000000E+000	0.0000000E+000	0.0000000E+000	-18.8214	0.0000000E+000	0.0000000E+000	0.0000000E+000	18.8214	2.93388	71.1786	-5.15526e-06	-4.31638e-06	5.59345e-09	-4.32197e-06	0.262999	15983.3	20.7122	16004
31621.1	1.71674	0.648115	1.835	-20.6829	2.88553	0.262664	-0.0239302	7.76587	0.968771	1	9	0.00542231	0.00295493	0	-2.94598e-05	-0.000302151	1.57954e-05	23.0706	0.00534543	0.00491791	-0.00209469	-20.5677	1.83887	1.72165	0.646021	0.509835	0.192477	0.544958	20.6829	968.771	2566.09	2742.87	-69.3171	0.0000000E+000	0.0000000E+000	0.0000000E+000	69.3171	0.0000000E+000	0.0000000E+000	0.0000000E+000	-69.3171	0.0000000E+000	0.0000000E+000	0.0000000E+000	-20.6829	0.0000000E+000	0.0000000E+000	0.0000000E+000	20.6829	2.64881	69.3171	-5.83711e-06	-6.28558e-06	7.23052e-09	-6.29281e-06	0.262966	10976.3	12.6264	10988.9
10002.2	2.22799	0.874927	2.39362	-21.4398	4.03654	0.262657	-0.0288161	18.1866	2.42987	1	9	0.00541586	0.00226262	0	-2.97275e-05	-0.000378591	5.13517e-06	-75.4818	0.00226957	0.000568954	0.00219709	-21.4838	2.39496	2.22856	0.877124	0.388867	0.152707	0.417776	21.4398	2429.87	6187.64	6647.64	-68.5602	0.0000000E+000	0.0000000E+000	0.0000000E+000	68.5602	0.0000000E+000	0.0000000E+000	0.0000000E+000	-68.5602	0.0000000E+000	0.0000000E+000	0.0000000E+000	-21.4398	0.0000000E+000	0.0000000E+000	0.0000000E+000	21.4398	2.54649	68.5602	-3.30489e-06	-7.56875e-06	1.09095e-08	-7.57966e-06	0.263035	9114.93	13.1382	9128.07
3163.08	2.9039	1.25587	3.16383	-23.3874	5.36367	0.26266	-0.0311286	40.065	6.31289	1	9	0.00515063	0.00162797	0	-2.76304e-05	-0.000111051	6.39622e-06	-56.1235	0.00392895	0.00219001	0.00326197	-23.4258	3.16714	2.90609	1.25913	0.290105	0.125464	0.316073	23.3874	6312.89	14597	15903.6	-66.6126	0.0000000E+000	0.0000000E+000	0.0000000E+000	66.6126	0.0000000E+000	0.0000000E+000	0.0000000E+000	-66.6126	0.0000000E+000	0.0000000E+000	0.0000000E+000	-23.3874	0.0000000E+000	0.0000000E+000	0.0000000E+000	23.3874	2.31226	66.6126	-1.281e-06	-8.17625e-06	3.45687e-09	-8.1797e-06	0.262771	8437.92	3.56751	8441.49
1000.32	3.86935	1.94688	4.33154	-26.7095	7.17685	0.262668	-0.0138673	81.7224	16.5096	1	10	0.0051366	0.00118586	0	-3.6781e-05	-9.19415e-05	1.30262e-05	-59.1388	0.0109846	0.00563468	0.00942935	-26.7872	4.34082	3.87499	1.95631	0.206231	0.103766	0.230865	26.7095	16509.6	32812.1	36731.5	-63.2905	0.0000000E+000	0.0000000E+000	0.0000000E+000	63.2905	0.0000000E+000	0.0000000E+000	0.0000000E+000	-63.2905	0.0000000E+000	0.0000000E+000	0.0000000E+000	-26.7095	0.0000000E+000	0.0000000E+000	0.0000000E+000	26.7095	1.98746	63.2905	-7.21657e-07	-3.6425e-06	1.27498e-09	-3.64378e-06	0.26276	18941.6	6.6301	18948.2
316.316	5.38813	3.24954	6.29217	-31.0939	8.52707	0.262665	-0.0135652	154.838	41.2971	1	10	0.00484965	0.000770743	0	-4.22016e-05	-5.37216e-05	1.44643e-05	68.0629	0.0187667	0.00701104	-0.0174079	-30.9251	6.28921	5.39514	3.23213	0.136093	0.0820769	0.158928	31.0939	41297.1	68475.6	79964.8	-58.9061	0.0000000E+000	0.0000000E+000	0.0000000E+000	58.9061	0.0000000E+000	0.0000000E+000	0.0000000E+000	-58.9061	0.0000000E+000	0.0000000E+000	0.0000000E+000	-31.0939	0.0000000E+000	0.0000000E+000	0.0000000E+000	31.0939	1.65812	58.9061	-2.01797e-06	-3.5631e-06	7.28743e-10	-3.56383e-06	0.262719	19363.2	3.96026	19367.2
100.032	8.66316	5.06757	10.0365	-30.3257	9.8748	0.262671	-0.0122335	313.965	80.0422	1	10	0.0047601	0.000474281	0	-4.6454e-05	-0.000283041	6.1107e-06	35.2321	0.0128842	0.0105241	-0.00743273	-30.2588	10.0418	8.67368	5.06013	0.0860033	0.0503081	0.0996367	30.3257	80042.2	136835	158526	-59.6742	0.0000000E+000	0.0000000E+000	0.0000000E+000	59.6742	0.0000000E+000	0.0000000E+000	0.0000000E+000	-59.6742	0.0000000E+000	0.0000000E+000	0.0000000E+000	-30.3257	0.0000000E+000	0.0000000E+000	0.0000000E+000	30.3257	1.70953	59.6742	-2.16944e-06	-3.21338e-06	3.46258e-09	-3.21684e-06	0.262954	21471.4	23.1366	21494.6
[...]
1.00006	21.4425	2.05028	21.5403	-5.4619	19.925	0.262669	-0.0073334	77620.8	703.241	1	12	0.00474293	0.000220189	0	-7.88152e-05	4.18282e-05	3.10728e-06	-26.2706	0.0141119	0.0126543	0.00624607	-5.47522	21.5535	21.4551	2.05653	0.0462139	0.00441888	0.0464247	5.4619	703241	7.3547e+06	7.38825e+06	-84.5381	0.0000000E+000	0.0000000E+000	0.0000000E+000	84.5381	0.0000000E+000	0.0000000E+000	0.0000000E+000	-84.5381	0.0000000E+000	0.0000000E+000	0.0000000E+000	-5.4619	0.0000000E+000	0.0000000E+000	0.0000000E+000	5.4619	10.4583	84.5381	-6.8748e-06	-1.92626e-06	-3.06743e-10	-1.92595e-06	0.262627	35818.2	5.7038	35812.5
0.316193	22.3624	1.94635	22.447	-4.97429	34.2679	0.262673	-0.0052156	258611	1944.34	1	12	0.00474019	0.000211173	0	-7.00354e-05	-0.000302151	1.44439e-06	-9.81122	0.00683986	0.00673982	0.00116553	-4.97576	22.4538	22.3692	1.94752	0.0443817	0.00386283	0.0445494	4.97429	1.94435e+06	2.23394e+07	2.24238e+07	-85.0257	0.0000000E+000	0.0000000E+000	0.0000000E+000	85.0257	0.0000000E+000	0.0000000E+000	0.0000000E+000	-85.0257	0.0000000E+000	0.0000000E+000	0.0000000E+000	-4.97429	0.0000000E+000	0.0000000E+000	0.0000000E+000	4.97429	11.4894	85.0257	2.83194e-06	-1.36999e-06	1.5759e-09	-1.37157e-06	0.262975	50362.9	57.9322	50420.8
0.0999041	23.422	3.28779	23.6517	-7.99051	79.4771	0.262668	-0.00239973	484543	9363.07	1	12	0.00474475	0.00020061	0	-0.000182839	-0.000302151	2.28925e-06	-15.0738	0.0114115	0.0110188	0.00296771	-7.99392	23.663	23.433	3.29076	0.0418698	0.00587735	0.0422803	7.99051	9.36307e+06	6.67019e+07	6.73558e+07	-82.0095	0.0000000E+000	0.0000000E+000	0.0000000E+000	82.0095	0.0000000E+000	0.0000000E+000	0.0000000E+000	-82.0095	0.0000000E+000	0.0000000E+000	0.0000000E+000	-7.99051	0.0000000E+000	0.0000000E+000	0.0000000E+000	7.99051	7.12393	82.0095	-6.90836e-05	-6.30331e-07	7.2508e-10	-6.31056e-07	0.26297	109457	125.911	109583
0.0315922	25.6971	6.87967	26.6021	-14.9878	222.359	0.262668	-0.00361357	732273	48975.3	1	12	0.00474143	0.000178235	0	-0.000417289	-0.000206601	2.96191e-06	9.35074	0.016618	0.0163972	-0.00270005	-14.9731	26.6172	25.7135	6.87697	0.0363122	0.00972158	0.0375911	14.9878	4.89753e+07	1.82934e+08	1.89376e+08	-75.0122	0.0000000E+000	0.0000000E+000	0.0000000E+000	75.0122	0.0000000E+000	0.0000000E+000	0.0000000E+000	-75.0122	0.0000000E+000	0.0000000E+000	0.0000000E+000	-14.9878	0.0000000E+000	0.0000000E+000	0.0000000E+000	14.9878	3.73522	75.0122	-3.94938e-05	-9.4917e-07	7.46568e-10	-9.49916e-07	0.262875	72689.4	57.1737	72746.6
0.0100092	30.0264	15.1009	33.6098	-26.6988	673.582	0.262667	-0.00165482	1.05298e+06	212565	1	12	0.00474235	0.0001411	0	0.000106323	3.60827e-06	2.51588e-06	7.58308	0.0178305	0.0176745	-0.00235297	-26.6817	33.6246	30.044	15.0986	0.0265809	0.0133681	0.0297532	26.6988	2.12565e+08	4.22661e+08	4.73103e+08	-63.3012	0.0000000E+000	0.0000000E+000	0.0000000E+000	63.3012	0.0000000E+000	0.0000000E+000	0.0000000E+000	-63.3012	0.0000000E+000	0.0000000E+000	0.0000000E+000	-26.6988	0.0000000E+000	0.0000000E+000	0.0000000E+000	26.6988	1.98838	63.3012	0.000207104	-4.34667e-07	-5.97104e-12	-4.34661e-07	0.262664	158729	2.18046	158727

File: 18826_R307_UA701_4p38_SOC00_C05.mpt
EC-Lab ASCII FILE
Nb header lines : 65

Potentio Electrochemical Impedance Spectroscopy

Run on channel : 5 (SN 65912)
User :
CE vs. WE compliance from -10 V to 10 V
Electrode connection : standard
Potential control : Ewe
Ewe ctrl range : min = -10.00 V, max = 10.00 V
Safety Limits :
	Do not start on E overload
Acquisition started on : 11/03/2025 17:11:05.636
Technique started on : 11/03/2025 17:11:07.690
Loaded Setting File :  C:\Users\Celltest\OneDrive - store-dot.com\Documents\EC-Lab\Data\@Biologic Test Protocols\anode half cell EIS SOC00.mps
Saved on :
	File : 18826_R307_UA701_4p38_SOC00_C05.mpr
	Directory : C:\Users\Celltest\OneDrive - store-dot.com\Documents\EC-Lab\Data\Anna\
	Host : 169.254.61.224
Device : VMP-3e (SN .003165)
Address : USB
EC-LAB for windows v11.62 (software)
Internet server v27.00 (firmware)
Command interpretor v12.03 (firmware)
Electrode material :
Initial state :
Electrolyte :
Comments :
Electrode surface area : 0.001 cm²
Characteristic mass : 0.001 g
Equivalent Weight : 0.000 g/eq.
Density : 0.000 g/cm3
Volume (V) : 0.001 cm³
Record Ece
Cycle Definition : Charge/Discharge alternance
Mode                Single sine
E (V)               0.0000
vs.                 Eoc
tE (h:m:s)          0:00:0.0000
record              0
dI                  0.000
unit dI             mA
dt (s)              0.000
fi                  100.000
unit fi             kHz
ff                  10.000
unit ff             mHz
Nd                  6
Points              per decade
spacing             Logarithmic
Va (mV)             5.0
pw                  0.10
Na                  2
corr                0
E range min (V)     -10.000
E range max (V)     10.000
I Range             Auto
Bandwidth           5
nc cycles           0
goto Ns'            0
nr cycles           0
inc. cycle          0

freq/Hz	Re(Z)/Ohm	-Im(Z)/Ohm	|Z|/Ohm	Phase(Z)/deg	time/s	<Ewe>/V	<I>/mA	Cs/µF	Cp/µF	cycle number	I Range	|Ewe|/V	|I|/A	Ns	(Q-Qo)/mA.h	<Ece>/V	|Ece|/V	Phase(Zce)/deg	|Zce|/Ohm	Re(Zce)/Ohm	-Im(Zce)/Ohm	Phase(Zwe-ce)/deg	|Zwe-ce|/Ohm	Re(Zwe-ce)/Ohm	-Im(Zwe-ce)/Ohm	Re(Y)/Ohm-1	Im(Y)/Ohm-1	|Y|/Ohm-1	Phase(Y)/deg	Re(C)/nF	Im(C)/nF	|C|/nF	Phase(C)/deg	Re(M)	Im(M)	|M|	Phase(M)/deg	Re(Permittivity)	Im(Permittivity)	|Permittivity|	Phase(Permittivity)/deg	Re(Resistivity)/Ohm.cm	Im(Resistivity)/Ohm.cm	|Resistivity|/Ohm.cm	Phase(Resistivity)/deg	Re(Conductivity)/mS/cm	Im(Conductivity)/mS/cm	|Conductivity|/mS/cm	Phase(Conductivity)/deg	Tan(Delta)	Loss Angle(Delta)/deg	dq/mA.h	Pwe/W	Pce/W	Pwe-ce/W	<Ewe-Ece>/V	Rwe/Ohm	Rce/Ohm	Rwe-ce/Ohm		Ewe-Ece/V
100004	1.31388	0.457225	1.39117	-19.1876	2.05352	0.255337	-0.0153271	3.48076	0.375989	1	9	0.00495831	0.00356414	0	-5.1161e-06	-6.05491e-05	4.22052e-05	79.3404	0.0118416	0.00219039	-0.0116373	-18.7047	1.38946	1.31608	0.445588	0.678888	0.236249	0.718821	19.1876	375.989	1080.44	1144	-70.8124	0.0000000E+000	0.0000000E+000	0.0000000E+000	70.8124	0.0000000E+000	0.0000000E+000	0.0000000E+000	-70.8124	0.0000000E+000	0.0000000E+000	0.0000000E+000	-19.1876	0.0000000E+000	0.0000000E+000	0.0000000E+000	19.1876	2.87361	70.8124	-5.1161e-06	-3.91357e-06	9.2804e-10	-3.9145e-06	0.255398	16659.2	3.95047	16663.2
31621.1	1.70707	0.590534	1.80633	-19.0822	3.45055	0.255314	-0.0132044	8.5231	0.910949	1	9	0.00548913	0.00303883	0	-6.99683e-06	-0.000194188	1.40216e-05	22.5601	0.00461413	0.00426105	-0.00177022	-18.9852	1.80978	1.71133	0.588764	0.523188	0.180989	0.553609	19.0822	910.949	2633.3	2786.41	-70.9178	0.0000000E+000	0.0000000E+000	0.0000000E+000	70.9178	0.0000000E+000	0.0000000E+000	0.0000000E+000	-70.9178	0.0000000E+000	0.0000000E+000	0.0000000E+000	-19.0822	0.0000000E+000	0.0000000E+000	0.0000000E+000	19.0822	2.89073	70.9178	-4.20444e-06	-3.37127e-06	2.56413e-09	-3.37383e-06	0.255508	19335.5	14.7063	19350.2
10002.2	2.14985	0.781573	2.28751	-19.9786	4.47554	0.255302	-0.0147313	20.3589	2.37666	1	9	0.00513947	0.00224675	0	1.21222e-06	-3.27544e-06	1.05539e-05	63.4629	0.0046974	0.00209869	-0.00420251	-19.8618	2.28805	2.15195	0.77737	0.410848	0.149363	0.437156	19.9786	2376.66	6537.4	6956.01	-70.0214	0.0000000E+000	0.0000000E+000	0.0000000E+000	70.0214	0.0000000E+000	0.0000000E+000	0.0000000E+000	-70.0214	0.0000000E+000	0.0000000E+000	0.0000000E+000	-19.9786	0.0000000E+000	0.0000000E+000	0.0000000E+000	19.9786	2.75067	70.0214	6.46879e-07	-3.76092e-06	4.82513e-11	-3.76097e-06	0.255305	17330.6	0.222346	17330.9
3163.08	2.75077	1.12625	2.9724	-22.2658	5.37268	0.255137	-0.0700324	44.676	6.41403	1	9	0.00490364	0.00164972	0	-1.0304e-05	-0.00023237	6.5256e-06	24.326	0.00395557	0.00360438	-0.00162941	-22.2104	2.97512	2.75437	1.12462	0.311343	0.127474	0.336429	22.2658	6414.03	15665.7	16927.9	-67.7342	0.0000000E+000	0.0000000E+000	0.0000000E+000	67.7342	0.0000000E+000	0.0000000E+000	0.0000000E+000	-67.7342	0.0000000E+000	0.0000000E+000	0.0000000E+000	-22.2658	0.0000000E+000	0.0000000E+000	0.0000000E+000	22.2658	2.44241	67.7342	-6.93796e-06	-1.78678e-05	1.62734e-08	-1.78841e-05	0.255369	3643.12	3.31804	3646.44
1000.32	3.56939	1.75936	3.97943	-26.2388	6.9718	0.255239	-0.0167984	90.433	17.6764	1	10	0.00487109	0.00122407	0	-1.23709e-05	9.21806e-05	5.76692e-06	6.81458	0.00471127	0.00467799	-0.000559024	-26.2018	3.98338	3.57406	1.7588	0.225399	0.1111	0.251292	26.2388	17676.4	35861.9	39981.6	-63.7612	0.0000000E+000	0.0000000E+000	0.0000000E+000	63.7612	0.0000000E+000	0.0000000E+000	0.0000000E+000	-63.7612	0.0000000E+000	0.0000000E+000	0.0000000E+000	-26.2388	0.0000000E+000	0.0000000E+000	0.0000000E+000	26.2388	2.0288	63.7612	-9.99987e-07	-4.28761e-06	-1.54849e-09	-4.28606e-06	0.255147	15194.2	5.48746	15188.7
316.316	4.95524	3.05939	5.8236	-31.6914	8.32105	0.255236	-0.015324	164.461	45.3891	1	10	0.0047804	0.000820868	0	-1.85165e-05	0.000168545	1.0736e-05	-4.70713	0.0130788	0.0130347	0.00107328	-31.6331	5.83525	4.96827	3.06047	0.146111	0.0902096	0.171715	31.6914	45389.1	73515.9	86398.8	-58.3086	0.0000000E+000	0.0000000E+000	0.0000000E+000	58.3086	0.0000000E+000	0.0000000E+000	0.0000000E+000	-58.3086	0.0000000E+000	0.0000000E+000	0.0000000E+000	-31.6914	0.0000000E+000	0.0000000E+000	0.0000000E+000	31.6914	1.61968	58.3086	-1.18873e-06	-3.91122e-06	-2.58279e-09	-3.90864e-06	0.255067	16656	10.9988	16645
100.032	8.03523	4.86966	9.39566	-31.2175	9.66882	0.255239	-0.0155883	326.725	87.7658	1	10	0.00474624	0.000505152	0	-2.39696e-05	0.000206728	9.11169e-06	38.5869	0.0180375	0.0140992	-0.01125	-31.1143	9.40191	8.04932	4.85841	0.0910214	0.0551625	0.106432	31.2175	87765.8	144819	169338	-58.7825	0.0000000E+000	0.0000000E+000	0.0000000E+000	58.7825	0.0000000E+000	0.0000000E+000	0.0000000E+000	-58.7825	0.0000000E+000	0.0000000E+000	0.0000000E+000	-31.2175	0.0000000E+000	0.0000000E+000	0.0000000E+000	31.2175	1.65006	58.7825	-1.74875e-06	-3.97875e-06	-3.22255e-09	-3.97553e-06	0.255032	16373.7	13.2617	16360.4
[...]
1.00006	20.3953	1.95704	20.489	-5.48107	19.735	0.255273	-0.00377701	81318.9	741.91	1	12	0.0047479	0.000231729	0	-5.18928e-05	-2.23667e-05	5.008e-06	-2.60201	0.0216115	0.0215892	0.000981118	-5.47803	20.5106	20.4169	1.95803	0.0485835	0.00466186	0.0488067	5.48107	741910	7.73181e+06	7.76732e+06	-84.5189	0.0000000E+000	0.0000000E+000	0.0000000E+000	84.5189	0.0000000E+000	0.0000000E+000	0.0000000E+000	-84.5189	0.0000000E+000	0.0000000E+000	0.0000000E+000	-5.48107	0.0000000E+000	0.0000000E+000	0.0000000E+000	5.48107	10.4215	84.5189	-8.66892e-06	-9.6417e-07	8.44792e-11	-9.64255e-07	0.255295	67586	5.92178	67591.9
0.316193	21.2416	1.84158	21.3212	-4.95499	34.0787	0.255265	-0.00399057	273323	2039.08	1	12	0.00474721	0.000222652	0	-3.51187e-05	-4.14579e-05	2.2498e-06	-56.2045	0.0101046	0.00562047	0.00839719	-4.97616	21.3276	21.2472	1.84998	0.0467263	0.00405103	0.0469016	4.95499	2.03908e+06	2.35196e+07	2.36078e+07	-85.045	0.0000000E+000	0.0000000E+000	0.0000000E+000	85.045	0.0000000E+000	0.0000000E+000	0.0000000E+000	-85.045	0.0000000E+000	0.0000000E+000	0.0000000E+000	-4.95499	0.0000000E+000	0.0000000E+000	0.0000000E+000	4.95499	11.5344	85.045	1.23185e-05	-1.01865e-06	1.65441e-10	-1.01882e-06	0.255307	63967.1	10.389	63977.4
0.0999041	22.2357	3.17162	22.4607	-8.11771	79.2866	0.255265	-0.000302884	502292	10015.5	1	12	0.0047451	0.000211262	0	-6.48287e-05	-4.14579e-05	1.38959e-06	5.40727	0.00657756	0.00654829	-0.000619834	-8.11379	22.4671	22.2422	3.171	0.0440761	0.00628686	0.0445222	8.11771	1.00155e+07	7.02166e+07	7.09273e+07	-81.8823	0.0000000E+000	0.0000000E+000	0.0000000E+000	81.8823	0.0000000E+000	0.0000000E+000	0.0000000E+000	-81.8823	0.0000000E+000	0.0000000E+000	0.0000000E+000	-8.11771	0.0000000E+000	0.0000000E+000	0.0000000E+000	8.11771	7.01083	81.8823	-3.85553e-05	-7.73157e-08	1.25569e-11	-7.73283e-08	0.255306	842780	136.877	842916
0.0315922	24.3648	6.59395	25.2413	-15.1434	222.171	0.255266	-0.00255574	764002	52138.8	1	12	0.00474678	0.000188056	0	-0.000402207	-6.05491e-05	1.56995e-06	-27.2872	0.00834833	0.00741933	0.0038273	-15.1474	25.2495	24.3723	6.59778	0.0382418	0.0103495	0.0396175	15.1434	5.21388e+07	1.92654e+08	1.99585e+08	-74.8566	0.0000000E+000	0.0000000E+000	0.0000000E+000	74.8566	0.0000000E+000	0.0000000E+000	0.0000000E+000	-74.8566	0.0000000E+000	0.0000000E+000	0.0000000E+000	-15.1434	0.0000000E+000	0.0000000E+000	0.0000000E+000	15.1434	3.69503	74.8566	-0.000127794	-6.52393e-07	1.54748e-10	-6.52548e-07	0.255327	99879.6	23.6914	99903.3
0.0100092	28.2851	14.8689	31.9551	-27.7301	673.394	0.255266	-0.00161964	1.06941e+06	231537	1	12	0.00474575	0.000148513	0	9.89277e-05	-0.000251461	1.6621e-06	32.9381	0.0111916	0.00939263	-0.00608523	-27.7126	31.9606	28.2945	14.8628	0.0276998	0.0145612	0.0312939	27.7301	2.31537e+08	4.40452e+08	4.97601e+08	-62.2699	0.0000000E+000	0.0000000E+000	0.0000000E+000	62.2699	0.0000000E+000	0.0000000E+000	0.0000000E+000	-62.2699	0.0000000E+000	0.0000000E+000	0.0000000E+000	-27.7301	0.0000000E+000	0.0000000E+000	0.0000000E+000	27.7301	1.90229	62.2699	0.00034561	-4.1344e-07	4.07278e-10	-4.13847e-07	0.255518	157606	155.257	157762