Folder: EIS/txt (part 9)

File: 17221_R278_UC78_50SOC_C01.mpt
EC-Lab ASCII FILE
Nb header lines : 64

Potentio Electrochemical Impedance Spectroscopy

Run on channel : 1 (SN 66354)
User :
CE vs. WE compliance from -10 V to 10 V
Electrode connection : standard
Potential control : Ewe
Ewe ctrl range : min = -10.00 V, max = 10.00 V
Safety Limits :
	Do not start on E overload
Acquisition started on : 09/02/2025 16:40:31.254
Loaded Setting File :  C:\Users\Celltest\OneDrive - store-dot.com\Documents\EC-Lab\Data\Michael\R278\UC74_NCMA_16706_EIS_50_SOC.mps
Saved on :
	File : UC78_17221_EIS_50SOC_C01.mpr
	Directory : C:\Users\Celltest\OneDrive - store-dot.com\Documents\EC-Lab\Data\Michael\R278\
	Host : 169.254.61.224
Device : VMP-3e (SN .003165)
Address : USB
EC-LAB for windows v11.62 (software)
Internet server v27.00 (firmware)
Command interpretor v12.03 (firmware)
Electrode material :
Initial state :
Electrolyte :
Comments :
Electrode surface area : 0.001 cm²
Characteristic mass : 0.001 g
Equivalent Weight : 0.000 g/eq.
Density : 0.000 g/cm3
Volume (V) : 0.001 cm³
Record Ece
Cycle Definition : Charge/Discharge alternance
Mode                Multi sine
E (V)               0.0000
vs.                 Eoc
tE (h:m:s)          0:00:0.0000
record              0
dI                  0.000
unit dI             mA
dt (s)              0.000
fi                  1.000
unit fi             MHz
ff                  0.100
unit ff             mHz
Nd                  10
Points              per decade
spacing             Logarithmic
Va (mV)             5.0
pw                  0.10
Na                  2
corr                0
E range min (V)     -10.000
E range max (V)     10.000
I Range             Auto
Bandwidth           5
nc cycles           0
goto Ns'            0
nr cycles           0
inc. cycle          0

freq/Hz	Re(Z)/Ohm	-Im(Z)/Ohm	|Z|/Ohm	Phase(Z)/deg	time/s	<Ewe>/V	<I>/mA	Cs/µF	Cp/µF	cycle number	I Range	|Ewe|/V	|I|/A	Ns	(Q-Qo)/mA.h	<Ece>/V	|Ece|/V	Phase(Zce)/deg	|Zce|/Ohm	Re(Zce)/Ohm	-Im(Zce)/Ohm	Phase(Zwe-ce)/deg	|Zwe-ce|/Ohm	Re(Zwe-ce)/Ohm	-Im(Zwe-ce)/Ohm	Re(Y)/Ohm-1	Im(Y)/Ohm-1	|Y|/Ohm-1	Phase(Y)/deg	Re(C)/nF	Im(C)/nF	|C|/nF	Phase(C)/deg	Re(M)	Im(M)	|M|	Phase(M)/deg	Re(Permittivity)	Im(Permittivity)	|Permittivity|	Phase(Permittivity)/deg	Re(Resistivity)/Ohm.cm	Im(Resistivity)/Ohm.cm	|Resistivity|/Ohm.cm	Phase(Resistivity)/deg	Re(Conductivity)/mS/cm	Im(Conductivity)/mS/cm	|Conductivity|/mS/cm	Phase(Conductivity)/deg	Tan(Delta)	Loss Angle(Delta)/deg	dq/mA.h	Pwe/W	Pce/W	Pwe-ce/W	<Ewe-Ece>/V	Rwe/Ohm	Rce/Ohm	Rwe-ce/Ohm		Ewe-Ece/V
1.00002e+06	1.01663	-0.27987	1.05445	15.3919	2.72652	3.7853	0.14376	-0.568663	-0.0400609	1	9	0.000215065	0.00020396	0	2.98436e-05	-0.0003018	0.000185626	-6.67759	0.910111	0.903937	0.10583	5.17798	1.92843	1.92056	-0.174041	0.914351	-0.251715	0.948366	-15.3919	-40.0609	145.521	150.934	-105.392	0.0000000E+000	0.0000000E+000	0.0000000E+000	105.392	0.0000000E+000	0.0000000E+000	0.0000000E+000	-105.392	0.0000000E+000	0.0000000E+000	0.0000000E+000	15.3919	0.0000000E+000	0.0000000E+000	0.0000000E+000	-15.3919	3.63249	74.6081	2.98436e-05	0.000544174	-4.33868e-08	0.000544218	3.7856	26330.7	2.09934	26332.8
251206	0.733527	0.254617	0.776461	-19.1426	5.02854	3.78502	0.106282	2.48829	0.267571	1	9	0.00201315	0.00259272	0	9.33517e-05	-0.000111027	6.13351e-05	112.738	0.0236566	-0.00914383	-0.021818	-17.8162	0.760872	0.724383	0.232799	1.21668	0.422327	1.28789	19.1426	267.571	770.844	815.962	-70.8574	0.0000000E+000	0.0000000E+000	0.0000000E+000	70.8574	0.0000000E+000	0.0000000E+000	0.0000000E+000	-70.8574	0.0000000E+000	0.0000000E+000	0.0000000E+000	-19.1426	0.0000000E+000	0.0000000E+000	0.0000000E+000	19.1426	2.8809	70.8574	1.09521e-05	0.000402279	-1.18002e-08	0.000402291	3.78513	35612.9	1.04465	35614
63093.8	1.14096	0.406935	1.21136	-19.6292	7.33056	3.78493	0.0928706	6.19881	0.699538	1	9	0.00533051	0.00440043	0	0.000142392	0.000175132	2.76005e-05	90.4789	0.00627224	-5.24215e-05	-0.00627202	-19.3501	1.20922	1.14091	0.400663	0.777544	0.277318	0.825518	19.6292	699.538	1961.36	2082.38	-70.3708	0.0000000E+000	0.0000000E+000	0.0000000E+000	70.3708	0.0000000E+000	0.0000000E+000	0.0000000E+000	-70.3708	0.0000000E+000	0.0000000E+000	0.0000000E+000	-19.6292	0.0000000E+000	0.0000000E+000	0.0000000E+000	19.6292	2.8038	70.3708	-5.37602e-06	0.000351508	1.62646e-08	0.000351492	3.78475	40754.9	1.88577	40753
15847.7	1.47715	0.459272	1.5469	-17.2713	9.50652	3.78494	0.0928333	21.8668	1.92751	1	9	0.0053951	0.00348768	0	0.000192693	-0.000187337	1.16635e-05	-93.8958	0.00334422	-0.000227212	0.00333649	-17.3918	1.54768	1.47693	0.462608	0.617304	0.19193	0.646453	17.2713	1927.51	6199.45	6492.19	-72.7287	0.0000000E+000	0.0000000E+000	0.0000000E+000	72.7287	0.0000000E+000	0.0000000E+000	0.0000000E+000	-72.7287	0.0000000E+000	0.0000000E+000	0.0000000E+000	-17.2713	0.0000000E+000	0.0000000E+000	0.0000000E+000	17.2713	3.21629	72.7287	4.18136e-06	0.000351368	-1.73911e-08	0.000351385	3.78512	40771.3	2.01799	40773.4
3983.6	1.87989	0.676281	1.99783	-19.786	11.1051	3.78477	0.00174639	59.0768	6.76946	1	9	0.00488257	0.00244394	0	0.000229586	0.000232364	4.26529e-06	-21.474	0.00174525	0.00162411	0.000638901	-19.7874	1.99958	1.88151	0.67692	0.470993	0.169438	0.500543	19.786	6769.46	18817.3	19998	-70.214	0.0000000E+000	0.0000000E+000	0.0000000E+000	70.214	0.0000000E+000	0.0000000E+000	0.0000000E+000	-70.214	0.0000000E+000	0.0000000E+000	0.0000000E+000	-19.786	0.0000000E+000	0.0000000E+000	0.0000000E+000	19.786	2.77974	70.214	2.60401e-06	6.60967e-06	4.05798e-10	6.60926e-06	3.78454	2.1672e+06	133.054	2.16707e+06
1000.32	2.60803	1.14634	2.84884	-23.7276	13.7338	3.78479	0.0485378	138.793	22.4729	1	9	0.00472972	0.00166022	0	0.000262418	0.000384983	1.62265e-05	-3.28089	0.00977367	0.00975765	0.000559357	-23.6591	2.858	2.61779	1.1469	0.321348	0.141246	0.35102	23.7276	22472.8	51127.7	55848.6	-66.2724	0.0000000E+000	0.0000000E+000	0.0000000E+000	66.2724	0.0000000E+000	0.0000000E+000	0.0000000E+000	-66.2724	0.0000000E+000	0.0000000E+000	0.0000000E+000	-23.7276	0.0000000E+000	0.0000000E+000	0.0000000E+000	23.7276	2.27509	66.2724	4.93887e-06	0.000183705	1.86862e-08	0.000183687	3.78441	77976.1	7.9316	77968.2
251.044	4.09092	1.43012	4.33369	-19.2689	16.679	3.78483	-0.0105626	443.299	48.2756	1	10	0.00470468	0.00108561	0	0.000264271	0.0001179	5.6114e-06	-20.3282	0.0051689	0.00484698	0.00179566	-19.2701	4.33886	4.09577	1.43192	0.217824	0.0761479	0.23075	19.2689	48275.6	138094	146289	-70.7311	0.0000000E+000	0.0000000E+000	0.0000000E+000	70.7311	0.0000000E+000	0.0000000E+000	0.0000000E+000	-70.7311	0.0000000E+000	0.0000000E+000	0.0000000E+000	-19.2689	0.0000000E+000	0.0000000E+000	0.0000000E+000	19.2689	2.86054	70.7311	-7.9991e-07	-3.99775e-05	-1.24533e-09	-3.99763e-05	3.78471	358324	11.1621	358313
63.0823	5.23378	0.796792	5.29408	-8.65626	19.3999	3.78484	-0.00748786	3166.41	71.726	1	10	0.0046941	0.00088667	0	0.000259789	0.000213287	1.00069e-05	5.57738	0.0112859	0.0112325	-0.00109688	-8.62629	5.30502	5.24501	0.795695	0.186739	0.0284291	0.18889	8.65626	71725.9	471136	476565	-81.3437	0.0000000E+000	0.0000000E+000	0.0000000E+000	81.3437	0.0000000E+000	0.0000000E+000	0.0000000E+000	-81.3437	0.0000000E+000	0.0000000E+000	0.0000000E+000	-8.65626	0.0000000E+000	0.0000000E+000	0.0000000E+000	8.65626	6.56856	81.3437	-1.23157e-06	-2.83403e-05	-1.59706e-09	-2.83387e-05	3.78462	505463	28.4844	505435
[...]
0.0602816	6.59433	1.05851	6.67875	-9.11925	240.231	3.78486	-0.00288868	2.49424e+06	62653	1	11	0.00502956	0.00075307	0	-0.00287741	-0.000111027	5.19431e-07	91.1699	0.000689752	-1.40822e-05	-0.000689608	-9.11343	6.67862	6.59432	1.05782	0.147836	0.0237305	0.149729	9.11925	6.26529e+07	3.90316e+08	3.95312e+08	-80.8808	0.0000000E+000	0.0000000E+000	0.0000000E+000	80.8808	0.0000000E+000	0.0000000E+000	0.0000000E+000	-80.8808	0.0000000E+000	0.0000000E+000	0.0000000E+000	-9.11925	0.0000000E+000	0.0000000E+000	0.0000000E+000	9.11925	6.2298	80.8808	0.000000000000000E+000	-1.09332e-05	3.20722e-10	-1.09335e-05	3.78497	1.31024e+06	38.4354	1.31028e+06
0.00796479	8.96247	1.81457	9.14432	-11.4455	20329.1	3.78484	0.00199074	1.10122e+07	433626	1	11	0.00502145	0.000549133	0	-0.031333	0.000175132	5.43012e-07	-14.9828	0.000988852	0.000955234	0.000255647	-11.4459	9.14531	8.96343	1.81482	0.107183	0.0217005	0.109358	11.4455	4.33626e+08	2.14176e+09	2.18522e+09	-78.5545	0.0000000E+000	0.0000000E+000	0.0000000E+000	78.5545	0.0000000E+000	0.0000000E+000	0.0000000E+000	-78.5545	0.0000000E+000	0.0000000E+000	0.0000000E+000	-11.4455	0.0000000E+000	0.0000000E+000	0.0000000E+000	11.4455	4.93919	78.5545	-0.0284556	7.53464e-06	3.48643e-10	7.53429e-06	3.78467	1.90122e+06	87.9734	1.90113e+06
0.0019912	10.1958	2.66282	10.5378	-14.6369	20329.1	3.78484	0.00199074	3.00168e+07	1.91668e+06	1	11	0.00503531	0.000477833	0	-0.031333	0.000175132	5.54849e-07	-33.2319	0.00116118	0.000971277	0.000636359	-14.6389	10.5389	10.1968	2.66346	0.0918168	0.0239796	0.0948965	14.6369	1.91667e+09	7.33885e+09	7.58501e+09	-75.3631	0.0000000E+000	0.0000000E+000	0.0000000E+000	75.3631	0.0000000E+000	0.0000000E+000	0.0000000E+000	-75.3631	0.0000000E+000	0.0000000E+000	0.0000000E+000	-14.6369	0.0000000E+000	0.0000000E+000	0.0000000E+000	14.6369	3.82895	75.3631	0.000000000000000E+000	7.53464e-06	3.48643e-10	7.53429e-06	3.78467	1.90122e+06	87.9734	1.90113e+06
0.000497799	10.3187	6.71099	12.3091	-33.0388	20329.1	3.78484	0.00199074	4.76408e+07	1.41612e+07	1	11	0.00503212	0.000408814	0	-0.031333	0.000175132	8.31613e-07	-10.3502	0.00203421	0.00200111	0.000365476	-33.0351	12.311	10.3207	6.71136	0.0681043	0.044293	0.0812408	33.0388	1.41612e+10	2.17741e+10	2.59741e+10	-56.9612	0.0000000E+000	0.0000000E+000	0.0000000E+000	56.9612	0.0000000E+000	0.0000000E+000	0.0000000E+000	-56.9612	0.0000000E+000	0.0000000E+000	0.0000000E+000	-33.0388	0.0000000E+000	0.0000000E+000	0.0000000E+000	33.0388	1.53759	56.9612	0.000000000000000E+000	7.53464e-06	3.48643e-10	7.53429e-06	3.78467	1.90122e+06	87.9734	1.90113e+06
9.95598e-05	12.2056	35.5608	37.5971	-71.0562	20329.1	3.78484	0.00199074	4.49536e+07	4.02159e+07	1	11	0.00503491	0.000133917	0	-0.031333	0.000175132	1.47287e-06	-89.0585	0.0109984	0.000180721	0.0109969	-71.0613	37.6076	12.2058	35.5718	0.00863473	0.0251572	0.0265978	71.0562	4.02159e+10	1.38034e+10	4.25188e+10	-18.9438	0.0000000E+000	0.0000000E+000	0.0000000E+000	18.9438	0.0000000E+000	0.0000000E+000	0.0000000E+000	-18.9438	0.0000000E+000	0.0000000E+000	0.0000000E+000	-71.0562	0.0000000E+000	0.0000000E+000	0.0000000E+000	71.0562	0.343232	18.9438	0.000000000000000E+000	7.53464e-06	3.48643e-10	7.53429e-06	3.78467	1.90122e+06	87.9734	1.90113e+06

File: 17222_R278_UC78_50SOC__C02.mpt
EC-Lab ASCII FILE
Nb header lines : 64

Potentio Electrochemical Impedance Spectroscopy

Run on channel : 2 (SN 66139)
User :
CE vs. WE compliance from -10 V to 10 V
Electrode connection : standard
Potential control : Ewe
Ewe ctrl range : min = -10.00 V, max = 10.00 V
Safety Limits :
	Do not start on E overload
Acquisition started on : 09/02/2025 16:41:01.458
Loaded Setting File :  C:\Users\Celltest\OneDrive - store-dot.com\Documents\EC-Lab\Data\Michael\R278\UC74_NCMA_16706_EIS_50_SOC.mps
Saved on :
	File : UC78_17222_EIS_50SOC_C02.mpr
	Directory : C:\Users\Celltest\OneDrive - store-dot.com\Documents\EC-Lab\Data\Michael\R278\
	Host : 169.254.61.224
Device : VMP-3e (SN .003165)
Address : USB
EC-LAB for windows v11.62 (software)
Internet server v27.00 (firmware)
Command interpretor v12.03 (firmware)
Electrode material :
Initial state :
Electrolyte :
Comments :
Electrode surface area : 0.001 cm²
Characteristic mass : 0.001 g
Equivalent Weight : 0.000 g/eq.
Density : 0.000 g/cm3
Volume (V) : 0.001 cm³
Record Ece
Cycle Definition : Charge/Discharge alternance
Mode                Multi sine
E (V)               0.0000
vs.                 Eoc
tE (h:m:s)          0:00:0.0000
record              0
dI                  0.000
unit dI             mA
dt (s)              0.000
fi                  1.000
unit fi             MHz
ff                  0.100
unit ff             mHz
Nd                  10
Points              per decade
spacing             Logarithmic
Va (mV)             5.0
pw                  0.10
Na                  2
corr                0
E range min (V)     -10.000
E range max (V)     10.000
I Range             Auto
Bandwidth           5
nc cycles           0
goto Ns'            0
nr cycles           0
inc. cycle          0

freq/Hz	Re(Z)/Ohm	-Im(Z)/Ohm	|Z|/Ohm	Phase(Z)/deg	time/s	<Ewe>/V	<I>/mA	Cs/µF	Cp/µF	cycle number	I Range	|Ewe|/V	|I|/A	Ns	(Q-Qo)/mA.h	<Ece>/V	|Ece|/V	Phase(Zce)/deg	|Zce|/Ohm	Re(Zce)/Ohm	-Im(Zce)/Ohm	Phase(Zwe-ce)/deg	|Zwe-ce|/Ohm	Re(Zwe-ce)/Ohm	-Im(Zwe-ce)/Ohm	Re(Y)/Ohm-1	Im(Y)/Ohm-1	|Y|/Ohm-1	Phase(Y)/deg	Re(C)/nF	Im(C)/nF	|C|/nF	Phase(C)/deg	Re(M)	Im(M)	|M|	Phase(M)/deg	Re(Permittivity)	Im(Permittivity)	|Permittivity|	Phase(Permittivity)/deg	Re(Resistivity)/Ohm.cm	Im(Resistivity)/Ohm.cm	|Resistivity|/Ohm.cm	Phase(Resistivity)/deg	Re(Conductivity)/mS/cm	Im(Conductivity)/mS/cm	|Conductivity|/mS/cm	Phase(Conductivity)/deg	Tan(Delta)	Loss Angle(Delta)/deg	dq/mA.h	Pwe/W	Pce/W	Pwe-ce/W	<Ewe-Ece>/V	Rwe/Ohm	Rce/Ohm	Rwe-ce/Ohm		Ewe-Ece/V
1.00002e+06	2.98768	2.11632	3.66129	-35.3117	1.77352	3.78376	-0.116215	0.0752024	0.0251261	1	10	0.000198757	5.4286e-05	0	-5.0461e-05	0.000140708	0.000182837	-68.6772	3.36803	1.22469	3.13748	-51.2782	6.73398	4.21237	5.2538	0.222878	0.157875	0.273128	35.3117	25.1261	35.4714	43.4688	-54.6883	0.0000000E+000	0.0000000E+000	0.0000000E+000	54.6883	0.0000000E+000	0.0000000E+000	0.0000000E+000	-54.6883	0.0000000E+000	0.0000000E+000	0.0000000E+000	-35.3117	0.0000000E+000	0.0000000E+000	0.0000000E+000	35.3117	1.41174	54.6882	-5.0461e-05	-0.000439731	-1.63524e-08	-0.000439715	3.78362	32558.2	1.21075	32557
251206	0.885781	0.190971	0.906134	-12.1665	4.60155	3.78379	-0.0691262	3.31759	0.147358	1	9	0.00179939	0.00198579	0	-0.000114831	0.000293435	3.60578e-05	81.9825	0.0181579	0.00253259	-0.0179804	-11.0199	0.905001	0.888314	0.172991	1.0788	0.232585	1.10359	12.1665	147.358	683.489	699.194	-77.8335	0.0000000E+000	0.0000000E+000	0.0000000E+000	77.8335	0.0000000E+000	0.0000000E+000	0.0000000E+000	-77.8335	0.0000000E+000	0.0000000E+000	0.0000000E+000	-12.1665	0.0000000E+000	0.0000000E+000	0.0000000E+000	12.1665	4.6383	77.8335	-7.64693e-06	-0.000261559	-2.0284e-08	-0.000261538	3.78349	54737.4	4.24492	54733.2
63093.8	1.20009	0.3439	1.24839	-15.9904	6.90357	3.78369	-0.0757559	7.33501	0.55663	1	9	0.00538549	0.00431396	0	-0.000151359	0.000331616	1.64374e-05	-10.8552	0.00381028	0.00374211	0.000717579	-15.9747	1.25218	1.20383	0.344618	0.77004	0.220665	0.801033	15.9904	556.63	1942.43	2020.62	-74.0096	0.0000000E+000	0.0000000E+000	0.0000000E+000	74.0096	0.0000000E+000	0.0000000E+000	0.0000000E+000	-74.0096	0.0000000E+000	0.0000000E+000	0.0000000E+000	-15.9904	0.0000000E+000	0.0000000E+000	0.0000000E+000	15.9904	3.48963	74.0096	-1.71315e-06	-0.000286637	-2.51219e-08	-0.000286612	3.78336	49945.8	4.37744	49941.5
15847.7	1.48291	0.403152	1.53674	-15.2091	9.20356	3.78368	-0.0842107	24.9107	1.71445	1	9	0.0053226	0.00346358	0	-0.000195255	-0.000241109	1.17179e-05	-80.3719	0.00338317	0.000565844	0.00333551	-15.3235	1.53816	1.48348	0.406487	0.627938	0.170714	0.65073	15.2091	1714.45	6306.25	6535.15	-74.7909	0.0000000E+000	0.0000000E+000	0.0000000E+000	74.7909	0.0000000E+000	0.0000000E+000	0.0000000E+000	-74.7909	0.0000000E+000	0.0000000E+000	0.0000000E+000	-15.2091	0.0000000E+000	0.0000000E+000	0.0000000E+000	15.2091	3.67829	74.7909	-8.12671e-06	-0.000318627	2.0304e-08	-0.000318647	3.78392	44931.1	2.86316	44934
3983.6	1.85799	0.611328	1.95597	-18.2126	11.5711	3.78369	-0.0503169	65.3537	6.384	1	9	0.00510325	0.00260906	0	-0.000228207	0.000140708	5.48416e-06	159.708	0.00210197	-0.00197152	-0.000728961	-18.2104	1.95387	1.85601	0.610599	0.485642	0.15979	0.511255	18.2126	6384	19402.6	20425.9	-71.7874	0.0000000E+000	0.0000000E+000	0.0000000E+000	71.7874	0.0000000E+000	0.0000000E+000	0.0000000E+000	-71.7874	0.0000000E+000	0.0000000E+000	0.0000000E+000	-18.2126	0.0000000E+000	0.0000000E+000	0.0000000E+000	18.2126	3.03926	71.7874	-3.97934e-07	-0.000190384	-7.07999e-09	-0.000190376	3.78355	75197.1	2.79643	75194.3
1000.32	2.47559	1.02203	2.67827	-22.433	14.5908	3.78367	-0.0799647	155.674	22.6694	1	9	0.00516789	0.00192957	0	-0.000298246	7.07199e-06	1.41335e-05	29.466	0.00732468	0.00637721	-0.00360307	-22.3099	2.68279	2.48197	1.01843	0.345121	0.142481	0.373376	22.433	22669.4	54910.2	59405.6	-67.567	0.0000000E+000	0.0000000E+000	0.0000000E+000	67.567	0.0000000E+000	0.0000000E+000	0.0000000E+000	-67.567	0.0000000E+000	0.0000000E+000	0.0000000E+000	-22.433	0.0000000E+000	0.0000000E+000	0.0000000E+000	22.433	2.42222	67.567	-1.06022e-05	-0.00030256	-5.6551e-10	-0.00030256	3.78367	47316.8	0.0884389	47316.7
251.044	3.81823	1.42357	4.07498	-20.4472	17.537	3.78368	-0.091696	445.338	54.3498	1	10	0.00496818	0.00121919	0	-0.000367307	7.07199e-06	1.05655e-05	66.6479	0.00866595	0.00343502	-0.00795608	-20.3256	4.07543	3.82167	1.41562	0.229938	0.0857292	0.2454	20.4472	54349.8	145774	155576	-69.5528	0.0000000E+000	0.0000000E+000	0.0000000E+000	69.5528	0.0000000E+000	0.0000000E+000	0.0000000E+000	-69.5528	0.0000000E+000	0.0000000E+000	0.0000000E+000	-20.4472	0.0000000E+000	0.0000000E+000	0.0000000E+000	20.4472	2.68215	69.5528	-1.04325e-05	-0.000346948	-6.48473e-10	-0.000346947	3.78367	41263.3	0.0771243	41263.2
63.0823	5.07718	0.845514	5.1471	-9.45483	20.259	3.78367	-0.0891479	2983.95	80.5209	1	10	0.00491135	0.000954198	0	-0.000433548	0.000388889	5.9173e-06	-25.8251	0.00620134	0.005582	0.00270146	-9.47427	5.15305	5.08276	0.848216	0.191645	0.0319151	0.194284	9.45483	80520.9	483515	490174	-80.5452	0.0000000E+000	0.0000000E+000	0.0000000E+000	80.5452	0.0000000E+000	0.0000000E+000	0.0000000E+000	-80.5452	0.0000000E+000	0.0000000E+000	0.0000000E+000	-9.45483	0.0000000E+000	0.0000000E+000	0.0000000E+000	9.45483	6.00484	80.5452	-1.17546e-05	-0.000337307	-3.46686e-08	-0.000337272	3.78328	42442.6	4.36229	42438.3
[...]
0.0602816	6.48083	1.05415	6.566	-9.2386	241.197	3.78367	-0.0630899	2.50458e+06	64555.7	1	11	0.00500084	0.000761626	0	-0.00791682	0.000255253	4.53265e-07	14.1853	0.000595128	0.000576981	-0.000145841	-9.23654	6.56654	6.4814	1.054	0.150324	0.0244511	0.1523	9.2386	6.45557e+07	3.96884e+08	4.021e+08	-80.7614	0.0000000E+000	0.0000000E+000	0.0000000E+000	80.7614	0.0000000E+000	0.0000000E+000	0.0000000E+000	-80.7614	0.0000000E+000	0.0000000E+000	0.0000000E+000	-9.2386	0.0000000E+000	0.0000000E+000	0.0000000E+000	9.2386	6.14794	80.7614	0.000000000000000E+000	-0.000238711	-1.61039e-08	-0.000238695	3.78341	59972.6	4.04586	59968.5
0.00796479	8.90642	1.7884	9.0842	-11.3539	20330.1	3.78363	0.00158945	1.11733e+07	433048	1	11	0.00499512	0.000549869	0	-0.0488887	0.000140708	3.03857e-07	19.3574	0.000552599	0.00052136	-0.000183164	-11.3521	9.08467	8.90694	1.78821	0.107927	0.0216716	0.110081	11.3539	4.33048e+08	2.15663e+09	2.19968e+09	-78.6461	0.0000000E+000	0.0000000E+000	0.0000000E+000	78.6461	0.0000000E+000	0.0000000E+000	0.0000000E+000	-78.6461	0.0000000E+000	0.0000000E+000	0.0000000E+000	-11.3539	0.0000000E+000	0.0000000E+000	0.0000000E+000	11.3539	4.98012	78.6461	-0.0409719	6.0139e-06	2.23649e-10	6.01367e-06	3.78348	2.38046e+06	88.5259	2.38037e+06
0.0019912	10.1871	2.6518	10.5266	-14.5909	20330.1	3.78363	0.00158945	3.01416e+07	1.91282e+06	1	11	0.00500821	0.000475769	0	-0.0488887	0.000140708	5.1272e-07	-108.552	0.00107767	-0.000342878	0.00102167	-14.5967	10.5265	10.1867	2.65282	0.0919341	0.0239314	0.0949978	14.5909	1.91282e+09	7.34823e+09	7.59311e+09	-75.4091	0.0000000E+000	0.0000000E+000	0.0000000E+000	75.4091	0.0000000E+000	0.0000000E+000	0.0000000E+000	-75.4091	0.0000000E+000	0.0000000E+000	0.0000000E+000	-14.5909	0.0000000E+000	0.0000000E+000	0.0000000E+000	14.5909	3.84157	75.4091	0.000000000000000E+000	6.0139e-06	2.23649e-10	6.01367e-06	3.78348	2.38046e+06	88.5259	2.38037e+06
0.000497799	10.5172	6.65332	12.445	-32.3179	20330.1	3.78363	0.00158945	4.80538e+07	1.37345e+07	1	11	0.00500134	0.000401875	0	-0.0488887	0.000140708	3.13456e-06	-3.57337	0.00779983	0.00778467	0.000486137	-32.3007	12.4519	10.525	6.65381	0.0679062	0.0429583	0.0803534	32.3179	1.37345e+10	2.17108e+10	2.56904e+10	-57.6821	0.0000000E+000	0.0000000E+000	0.0000000E+000	57.6821	0.0000000E+000	0.0000000E+000	0.0000000E+000	-57.6821	0.0000000E+000	0.0000000E+000	0.0000000E+000	-32.3179	0.0000000E+000	0.0000000E+000	0.0000000E+000	32.3179	1.58075	57.6821	0.000000000000000E+000	6.0139e-06	2.23649e-10	6.01367e-06	3.78348	2.38046e+06	88.5259	2.38037e+06
9.95598e-05	12.1329	35.5063	37.522	-71.1342	20330.1	3.78363	0.00158945	4.50226e+07	4.03152e+07	1	11	0.00501073	0.000133541	0	-0.0488887	0.000140708	2.08824e-06	45.8827	0.0156375	0.0108857	-0.0112264	-71.1129	37.5149	12.1437	35.4951	0.00861769	0.0252193	0.026651	71.1342	4.03152e+10	1.37761e+10	4.26039e+10	-18.8658	0.0000000E+000	0.0000000E+000	0.0000000E+000	18.8658	0.0000000E+000	0.0000000E+000	0.0000000E+000	-18.8658	0.0000000E+000	0.0000000E+000	0.0000000E+000	-71.1342	0.0000000E+000	0.0000000E+000	0.0000000E+000	71.1342	0.34171	18.8658	0.000000000000000E+000	6.0139e-06	2.23649e-10	6.01367e-06	3.78348	2.38046e+06	88.5259	2.38037e+06