Folder: EIS/txt (part 70)

File: 18216_R279_UA653_SOC00_C03.mpt
EC-Lab ASCII FILE
Nb header lines : 65

Potentio Electrochemical Impedance Spectroscopy

Run on channel : 3 (SN 65921)
User :
CE vs. WE compliance from -10 V to 10 V
Electrode connection : standard
Potential control : Ewe
Ewe ctrl range : min = -10.00 V, max = 10.00 V
Safety Limits :
	Do not start on E overload
Acquisition started on : 10/08/2025 08:30:38.433
Technique started on : 10/08/2025 08:30:40.160
Loaded Setting File :  C:\Users\Celltest\OneDrive - store-dot.com\Documents\EC-Lab\Data\@Biologic Test Protocols\anode half cell EIS SOC00.mps
Saved on :
	File : 18216_R279_UA653_SOC00_C03.mpr
	Directory : C:\Users\Celltest\OneDrive - store-dot.com\Documents\EC-Lab\Data\Charmaine\
	Host : 169.254.61.224
Device : VMP-3e (SN .003165)
Address : USB
EC-LAB for windows v11.62 (software)
Internet server v27.00 (firmware)
Command interpretor v12.03 (firmware)
Electrode material :
Initial state :
Electrolyte :
Comments :
Electrode surface area : 0.001 cm²
Characteristic mass : 0.001 g
Equivalent Weight : 0.000 g/eq.
Density : 0.000 g/cm3
Volume (V) : 0.001 cm³
Record Ece
Cycle Definition : Charge/Discharge alternance
Mode                Single sine
E (V)               0.0000
vs.                 Eoc
tE (h:m:s)          0:00:0.0000
record              0
dI                  0.000
unit dI             mA
dt (s)              0.000
fi                  100.000
unit fi             kHz
ff                  10.000
unit ff             mHz
Nd                  6
Points              per decade
spacing             Logarithmic
Va (mV)             5.0
pw                  0.10
Na                  2
corr                0
E range min (V)     -10.000
E range max (V)     10.000
I Range             Auto
Bandwidth           5
nc cycles           0
goto Ns'            0
nr cycles           0
inc. cycle          0

freq/Hz	Re(Z)/Ohm	-Im(Z)/Ohm	|Z|/Ohm	Phase(Z)/deg	time/s	<Ewe>/V	<I>/mA	Cs/µF	Cp/µF	cycle number	I Range	|Ewe|/V	|I|/A	Ns	(Q-Qo)/mA.h	<Ece>/V	|Ece|/V	Phase(Zce)/deg	|Zce|/Ohm	Re(Zce)/Ohm	-Im(Zce)/Ohm	Phase(Zwe-ce)/deg	|Zwe-ce|/Ohm	Re(Zwe-ce)/Ohm	-Im(Zwe-ce)/Ohm	Re(Y)/Ohm-1	Im(Y)/Ohm-1	|Y|/Ohm-1	Phase(Y)/deg	Re(C)/nF	Im(C)/nF	|C|/nF	Phase(C)/deg	Re(M)	Im(M)	|M|	Phase(M)/deg	Re(Permittivity)	Im(Permittivity)	|Permittivity|	Phase(Permittivity)/deg	Re(Resistivity)/Ohm.cm	Im(Resistivity)/Ohm.cm	|Resistivity|/Ohm.cm	Phase(Resistivity)/deg	Re(Conductivity)/mS/cm	Im(Conductivity)/mS/cm	|Conductivity|/mS/cm	Phase(Conductivity)/deg	Tan(Delta)	Loss Angle(Delta)/deg	dq/mA.h	Pwe/W	Pce/W	Pwe-ce/W	<Ewe-Ece>/V	Rwe/Ohm	Rce/Ohm	Rwe-ce/Ohm		Ewe-Ece/V
100004	1.37263	0.349927	1.41653	-14.3019	1.72653	0.271873	0.0181556	4.54806	0.277543	1	9	0.00461536	0.00325822	0	-1.8924e-06	-0.000214174	4.15618e-05	96.42	0.012756	-0.00142632	-0.012676	-13.8178	1.41207	1.3712	0.337251	0.684072	0.174392	0.705951	14.3019	277.543	1088.69	1123.51	-75.6981	0.0000000E+000	0.0000000E+000	0.0000000E+000	75.6981	0.0000000E+000	0.0000000E+000	0.0000000E+000	-75.6981	0.0000000E+000	0.0000000E+000	0.0000000E+000	-14.3019	0.0000000E+000	0.0000000E+000	0.0000000E+000	14.3019	3.92261	75.6981	-1.8924e-06	4.93601e-06	-3.88845e-09	4.9399e-06	0.272087	14974.6	11.7966	14986.4
31621.1	1.65018	0.468057	1.71527	-15.8355	3.24954	0.271874	0.0134939	10.7533	0.800709	1	9	0.00499632	0.00291284	0	-3.81293e-06	-8.05151e-05	1.37061e-05	31.7688	0.00470541	0.00400045	-0.00247736	-15.7196	1.71845	1.65418	0.46558	0.560872	0.159086	0.582997	15.8355	800.709	2822.97	2934.33	-74.1645	0.0000000E+000	0.0000000E+000	0.0000000E+000	74.1645	0.0000000E+000	0.0000000E+000	0.0000000E+000	-74.1645	0.0000000E+000	0.0000000E+000	0.0000000E+000	-15.8355	0.0000000E+000	0.0000000E+000	0.0000000E+000	15.8355	3.52559	74.1645	6.76778e-06	3.66864e-06	-1.08646e-09	3.66973e-06	0.271955	20148	5.96678	20153.9
10002.2	2.01655	0.660534	2.12197	-18.1366	4.27654	0.271871	0.0211763	24.0895	2.33421	1	9	0.00456732	0.0021524	0	-7.33547e-06	0.00012952	8.52456e-06	45.2026	0.0039605	0.00279057	-0.00281038	-18.0411	2.12375	2.01934	0.657724	0.447846	0.146695	0.47126	18.1366	2334.21	7126.11	7498.66	-71.8634	0.0000000E+000	0.0000000E+000	0.0000000E+000	71.8634	0.0000000E+000	0.0000000E+000	0.0000000E+000	-71.8634	0.0000000E+000	0.0000000E+000	0.0000000E+000	-18.1366	0.0000000E+000	0.0000000E+000	0.0000000E+000	18.1366	3.0529	71.8634	6.39228e-07	5.75724e-06	2.74275e-09	5.7545e-06	0.271742	12838.5	6.11624	12832.3
3163.08	2.53448	0.991692	2.72159	-21.3694	5.30067	0.271664	-0.0509495	50.738	6.7366	1	9	0.00468872	0.00172278	0	-5.6777e-06	0.000301366	5.21124e-06	-63.1925	0.00302489	0.00136421	0.0026998	-21.4118	2.72385	2.53585	0.994392	0.342171	0.133885	0.367432	21.3694	6736.6	17216.8	18487.9	-68.6306	0.0000000E+000	0.0000000E+000	0.0000000E+000	68.6306	0.0000000E+000	0.0000000E+000	0.0000000E+000	-68.6306	0.0000000E+000	0.0000000E+000	0.0000000E+000	-21.3694	0.0000000E+000	0.0000000E+000	0.0000000E+000	21.3694	2.55572	68.6306	-5.86662e-06	-1.38411e-05	-1.53544e-08	-1.38258e-05	0.271363	5332.03	5.915	5326.11
1000.32	3.25257	1.55544	3.60536	-25.5581	6.89884	0.271823	-0.0238282	102.289	19.0388	1	10	0.00470453	0.00130487	0	1.55446e-05	7.22374e-05	3.04049e-06	-13.0592	0.00233011	0.00226984	0.000526507	-25.5501	3.60763	3.25484	1.55597	0.250225	0.119662	0.277365	25.5581	19038.8	39811.7	44129.9	-64.4419	0.0000000E+000	0.0000000E+000	0.0000000E+000	64.4419	0.0000000E+000	0.0000000E+000	0.0000000E+000	-64.4419	0.0000000E+000	0.0000000E+000	0.0000000E+000	-25.5581	0.0000000E+000	0.0000000E+000	0.0000000E+000	25.5581	2.09109	64.4419	2.65505e-06	-6.47704e-06	-1.72129e-09	-6.47532e-06	0.271751	11407.6	3.0316	11404.6
316.316	4.46377	2.68519	5.20918	-31.0291	8.249	0.271833	-0.0231197	187.38	49.7893	1	10	0.00461799	0.000886511	0	6.05706e-06	5.31434e-05	2.12133e-05	-123.542	0.023929	-0.0132218	0.0199445	-31.2921	5.20818	4.45055	2.70513	0.164499	0.0989548	0.191969	31.0291	49789.3	82768.1	96589.5	-58.9709	0.0000000E+000	0.0000000E+000	0.0000000E+000	58.9709	0.0000000E+000	0.0000000E+000	0.0000000E+000	-58.9709	0.0000000E+000	0.0000000E+000	0.0000000E+000	-31.0291	0.0000000E+000	0.0000000E+000	0.0000000E+000	31.0291	1.66237	58.9709	-3.44282e-06	-6.2847e-06	-1.22866e-09	-6.28347e-06	0.27178	11757.7	2.29862	11755.4
100.032	6.96668	4.55255	8.32228	-33.1636	9.59578	0.271829	-0.0231048	349.483	104.581	1	10	0.00459716	0.000552391	0	-2.41541e-06	-0.000175985	8.22966e-06	50.9077	0.0148983	0.00939441	-0.011563	-33.0616	8.32383	6.97608	4.54099	0.100587	0.065731	0.120159	33.1636	104581	160038	191178	-56.8364	0.0000000E+000	0.0000000E+000	0.0000000E+000	56.8364	0.0000000E+000	0.0000000E+000	0.0000000E+000	-56.8364	0.0000000E+000	0.0000000E+000	0.0000000E+000	-33.1636	0.0000000E+000	0.0000000E+000	0.0000000E+000	33.1636	1.53028	56.8364	-2.4053e-06	-6.28054e-06	4.06611e-09	-6.28461e-06	0.272005	11765	7.61684	11772.6
[...]
1.00006	18.2724	1.38069	18.3245	-4.32115	19.663	0.271865	-0.0115869	115265	654.373	1	12	0.00459029	0.000250501	0	-3.41433e-05	7.22374e-05	2.34096e-06	-127.871	0.00934514	-0.0057368	0.00737705	-4.34551	18.3193	18.2667	1.38807	0.0544167	0.00411181	0.0545718	4.32115	654374	8.66013e+06	8.68482e+06	-85.6788	0.0000000E+000	0.0000000E+000	0.0000000E+000	85.6788	0.0000000E+000	0.0000000E+000	0.0000000E+000	-85.6788	0.0000000E+000	0.0000000E+000	0.0000000E+000	-4.32115	0.0000000E+000	0.0000000E+000	0.0000000E+000	4.32115	13.2342	85.6788	-1.44592e-06	-3.15006e-06	-8.37006e-10	-3.14922e-06	0.271792	23463.1	6.23442	23456.9
0.316193	19.0879	1.38846	19.1383	-4.16037	34.0052	0.271872	-0.00729814	362523	1908.06	1	12	0.0045944	0.000240063	0	-8.43477e-05	1.49552e-05	2.39473e-06	-5.91152	0.00997542	0.00992238	0.00102739	-4.16128	19.1483	19.0978	1.38948	0.0521135	0.00379074	0.0522512	4.16037	1.90806e+06	2.62312e+07	2.63005e+07	-85.8396	0.0000000E+000	0.0000000E+000	0.0000000E+000	85.8396	0.0000000E+000	0.0000000E+000	0.0000000E+000	-85.8396	0.0000000E+000	0.0000000E+000	0.0000000E+000	-4.16037	0.0000000E+000	0.0000000E+000	0.0000000E+000	4.16037	13.7476	85.8396	-3.19862e-05	-1.98416e-06	-1.09146e-10	-1.98405e-06	0.271857	37252.3	2.04919	37250.2
0.0999041	20.0121	2.05228	20.1171	-5.85533	79.213	0.271868	-0.00649025	776247	8078.75	1	12	0.00459113	0.000228221	0	-0.000240553	0.000148614	3.25598e-06	-3.62282	0.0142668	0.0142383	0.000901493	-5.85374	20.1313	20.0264	2.05318	0.0494497	0.00507116	0.049709	5.85533	8.07875e+06	7.87772e+07	7.91903e+07	-84.1447	0.0000000E+000	0.0000000E+000	0.0000000E+000	84.1447	0.0000000E+000	0.0000000E+000	0.0000000E+000	-84.1447	0.0000000E+000	0.0000000E+000	0.0000000E+000	-5.85533	0.0000000E+000	0.0000000E+000	0.0000000E+000	5.85533	9.75115	84.1447	-4.775e-05	-1.76449e-06	-9.6454e-10	-1.76353e-06	0.271719	41888.7	22.898	41865.8
0.0315922	21.2924	4.23862	21.7102	-11.2586	222.097	0.27187	-0.00217114	1.18854e+06	45304.2	1	12	0.00459421	0.000211616	0	-6.28299e-05	-8.05151e-05	2.08572e-06	24.1694	0.00985616	0.00899215	-0.00403547	-11.2435	21.7182	21.3014	4.23459	0.045175	0.00899288	0.0460614	11.2586	4.53043e+07	2.27582e+08	2.32048e+08	-78.7414	0.0000000E+000	0.0000000E+000	0.0000000E+000	78.7414	0.0000000E+000	0.0000000E+000	0.0000000E+000	-78.7414	0.0000000E+000	0.0000000E+000	0.0000000E+000	-11.2586	0.0000000E+000	0.0000000E+000	0.0000000E+000	11.2586	5.02342	78.7414	0.000135975	-5.90266e-07	1.74809e-10	-5.90441e-07	0.27195	125220	37.0843	125257
0.0100092	24.0215	10.1012	26.0589	-22.807	673.316	0.271867	-0.000193189	1.57417e+06	236528	1	12	0.00459196	0.000176215	0	-0.000331362	0.000167708	3.54584e-06	1.3774	0.0201223	0.0201164	-0.000483697	-22.7889	26.0772	24.0416	10.1007	0.0353744	0.0148751	0.0383747	22.807	2.36528e+08	5.62485e+08	6.10192e+08	-67.193	0.0000000E+000	0.0000000E+000	0.0000000E+000	67.193	0.0000000E+000	0.0000000E+000	0.0000000E+000	-67.193	0.0000000E+000	0.0000000E+000	0.0000000E+000	-22.807	0.0000000E+000	0.0000000E+000	0.0000000E+000	22.807	2.37809	67.193	-0.000377307	-5.25217e-08	-3.23993e-11	-5.24893e-08	0.271699	1.40726e+06	868.102	1.40639e+06

File: 18217_R279_UA653_SOC00_C04.mpt
EC-Lab ASCII FILE
Nb header lines : 65

Potentio Electrochemical Impedance Spectroscopy

Run on channel : 4 (SN 66756)
User :
CE vs. WE compliance from -10 V to 10 V
Electrode connection : standard
Potential control : Ewe
Ewe ctrl range : min = -10.00 V, max = 10.00 V
Safety Limits :
	Do not start on E overload
Acquisition started on : 10/08/2025 08:30:46.835
Technique started on : 10/08/2025 08:30:48.888
Loaded Setting File :  C:\Users\Celltest\OneDrive - store-dot.com\Documents\EC-Lab\Data\@Biologic Test Protocols\anode half cell EIS SOC00.mps
Saved on :
	File : 18217_R279_UA653_SOC00_C04.mpr
	Directory : C:\Users\Celltest\OneDrive - store-dot.com\Documents\EC-Lab\Data\Charmaine\
	Host : 169.254.61.224
Device : VMP-3e (SN .003165)
Address : USB
EC-LAB for windows v11.62 (software)
Internet server v27.00 (firmware)
Command interpretor v12.03 (firmware)
Electrode material :
Initial state :
Electrolyte :
Comments :
Electrode surface area : 0.001 cm²
Characteristic mass : 0.001 g
Equivalent Weight : 0.000 g/eq.
Density : 0.000 g/cm3
Volume (V) : 0.001 cm³
Record Ece
Cycle Definition : Charge/Discharge alternance
Mode                Single sine
E (V)               0.0000
vs.                 Eoc
tE (h:m:s)          0:00:0.0000
record              0
dI                  0.000
unit dI             mA
dt (s)              0.000
fi                  100.000
unit fi             kHz
ff                  10.000
unit ff             mHz
Nd                  6
Points              per decade
spacing             Logarithmic
Va (mV)             5.0
pw                  0.10
Na                  2
corr                0
E range min (V)     -10.000
E range max (V)     10.000
I Range             Auto
Bandwidth           5
nc cycles           0
goto Ns'            0
nr cycles           0
inc. cycle          0

freq/Hz	Re(Z)/Ohm	-Im(Z)/Ohm	|Z|/Ohm	Phase(Z)/deg	time/s	<Ewe>/V	<I>/mA	Cs/µF	Cp/µF	cycle number	I Range	|Ewe|/V	|I|/A	Ns	(Q-Qo)/mA.h	<Ece>/V	|Ece|/V	Phase(Zce)/deg	|Zce|/Ohm	Re(Zce)/Ohm	-Im(Zce)/Ohm	Phase(Zwe-ce)/deg	|Zwe-ce|/Ohm	Re(Zwe-ce)/Ohm	-Im(Zwe-ce)/Ohm	Re(Y)/Ohm-1	Im(Y)/Ohm-1	|Y|/Ohm-1	Phase(Y)/deg	Re(C)/nF	Im(C)/nF	|C|/nF	Phase(C)/deg	Re(M)	Im(M)	|M|	Phase(M)/deg	Re(Permittivity)	Im(Permittivity)	|Permittivity|	Phase(Permittivity)/deg	Re(Resistivity)/Ohm.cm	Im(Resistivity)/Ohm.cm	|Resistivity|/Ohm.cm	Phase(Resistivity)/deg	Re(Conductivity)/mS/cm	Im(Conductivity)/mS/cm	|Conductivity|/mS/cm	Phase(Conductivity)/deg	Tan(Delta)	Loss Angle(Delta)/deg	dq/mA.h	Pwe/W	Pce/W	Pwe-ce/W	<Ewe-Ece>/V	Rwe/Ohm	Rce/Ohm	Rwe-ce/Ohm		Ewe-Ece/V
100004	1.32781	0.273491	1.35569	-11.6385	2.05255	0.276201	-0.0328442	5.81918	0.236825	1	9	0.00496634	0.00366334	0	-8.65465e-06	-0.000244821	3.4005e-05	89.9015	0.00928252	1.59651e-05	-0.00928251	-11.2536	1.35386	1.32783	0.264208	0.722468	0.148807	0.737634	11.6385	236.825	1149.8	1173.94	-78.3615	0.0000000E+000	0.0000000E+000	0.0000000E+000	78.3615	0.0000000E+000	0.0000000E+000	0.0000000E+000	-78.3615	0.0000000E+000	0.0000000E+000	0.0000000E+000	-11.6385	0.0000000E+000	0.0000000E+000	0.0000000E+000	11.6385	4.85506	78.3615	-8.65465e-06	-9.0716e-06	8.04096e-09	-9.07964e-06	0.276446	8409.43	7.45401	8416.89
31621.1	1.53829	0.358934	1.57961	-13.134	3.57554	0.276205	-0.0282939	14.0226	0.72403	1	9	0.00505661	0.00320118	0	-4.13911e-05	9.9158e-05	1.64716e-05	20.2718	0.00514548	0.00482677	-0.00178277	-13.0315	1.58391	1.54312	0.357151	0.616507	0.143851	0.633068	13.134	724.031	3102.99	3186.34	-76.866	0.0000000E+000	0.0000000E+000	0.0000000E+000	76.866	0.0000000E+000	0.0000000E+000	0.0000000E+000	-76.866	0.0000000E+000	0.0000000E+000	0.0000000E+000	-13.134	0.0000000E+000	0.0000000E+000	0.0000000E+000	13.134	4.28572	76.866	6.56476e-06	-7.81493e-06	-2.80557e-09	-7.81212e-06	0.276106	9761.99	3.50457	9758.48
10002.2	1.81332	0.501915	1.88151	-15.4717	4.60053	0.276196	-0.0365367	31.7025	2.25602	1	9	0.00501339	0.00266456	0	-5.69505e-05	0.000213818	1.14098e-05	-52.0862	0.00428203	0.0026312	0.00337825	-15.5493	1.88494	1.81596	0.505293	0.512229	0.141781	0.531489	15.4717	2256.02	8150.57	8457.03	-74.5283	0.0000000E+000	0.0000000E+000	0.0000000E+000	74.5283	0.0000000E+000	0.0000000E+000	0.0000000E+000	-74.5283	0.0000000E+000	0.0000000E+000	0.0000000E+000	-15.4717	0.0000000E+000	0.0000000E+000	0.0000000E+000	15.4717	3.61281	74.5283	-1.98273e-06	-1.00913e-05	-7.81219e-09	-1.00835e-05	0.275982	7559.42	5.85214	7553.57
3163.08	2.17287	0.77453	2.30678	-19.6189	5.50064	0.276027	-0.102105	64.9639	7.32378	1	9	0.00458779	0.00198883	0	-6.98778e-05	-0.000206601	6.25841e-06	-13.71	0.00314679	0.00305713	0.000745812	-19.6109	2.30991	2.17592	0.775275	0.408338	0.145554	0.433505	19.6189	7323.78	20546.1	21812.4	-70.3811	0.0000000E+000	0.0000000E+000	0.0000000E+000	70.3811	0.0000000E+000	0.0000000E+000	0.0000000E+000	-70.3811	0.0000000E+000	0.0000000E+000	0.0000000E+000	-19.6189	0.0000000E+000	0.0000000E+000	0.0000000E+000	19.6189	2.8054	70.3811	-8.10597e-06	-2.81838e-05	2.10951e-08	-2.82049e-05	0.276234	2703.36	2.02341	2705.38
1000.32	2.69217	1.34852	3.01103	-26.6065	6.85382	0.276141	-0.0118459	117.984	23.6651	1	9	0.00451181	0.00149843	0	-7.40795e-05	-0.000187491	1.07407e-05	-14.9026	0.00716796	0.00692686	0.00184343	-26.5789	3.01805	2.6991	1.35036	0.296943	0.14874	0.332112	26.6065	23665.1	47244.8	52840.4	-63.3935	0.0000000E+000	0.0000000E+000	0.0000000E+000	63.3935	0.0000000E+000	0.0000000E+000	0.0000000E+000	-63.3935	0.0000000E+000	0.0000000E+000	0.0000000E+000	-26.6065	0.0000000E+000	0.0000000E+000	0.0000000E+000	26.6065	1.99639	63.3935	-2.52198e-06	-3.27113e-06	2.221e-09	-3.27336e-06	0.276329	23311.2	15.8276	23327
316.316	3.76118	2.628	4.58834	-34.9427	8.44901	0.276138	-0.0285754	191.458	62.8079	1	10	0.00456174	0.000994203	0	-8.49487e-05	-3.46116e-05	3.48023e-05	-3.38555	0.0350052	0.0349442	0.00206722	-34.7154	4.6182	3.79612	2.63007	0.178654	0.124829	0.217944	34.9427	62807.9	89890.1	109659	-55.0573	0.0000000E+000	0.0000000E+000	0.0000000E+000	55.0573	0.0000000E+000	0.0000000E+000	0.0000000E+000	-55.0573	0.0000000E+000	0.0000000E+000	0.0000000E+000	-34.9427	0.0000000E+000	0.0000000E+000	0.0000000E+000	34.9427	1.43119	55.0573	-2.63784e-06	-7.89075e-06	9.89041e-10	-7.89174e-06	0.276173	9663.5	1.21124	9664.71
100.032	6.26435	4.88421	7.9434	-37.9429	10.0088	0.276145	-0.0284635	325.752	123.158	1	10	0.00487074	0.00061318	0	-9.53658e-05	-0.000130161	1.42924e-05	-3.68696	0.0233086	0.0232604	0.00149887	-37.8485	7.96268	6.28761	4.88571	0.0992804	0.0774072	0.125891	37.9429	123158	157959	200297	-52.0571	0.0000000E+000	0.0000000E+000	0.0000000E+000	52.0571	0.0000000E+000	0.0000000E+000	0.0000000E+000	-52.0571	0.0000000E+000	0.0000000E+000	0.0000000E+000	-37.9429	0.0000000E+000	0.0000000E+000	0.0000000E+000	37.9429	1.28257	52.0571	-2.8422e-06	-7.86006e-06	3.70485e-09	-7.86376e-06	0.276275	9701.73	4.57292	9706.3
[...]
1.00006	19.2429	1.54485	19.3048	-4.58994	20.0766	0.276186	-0.00793335	103017	659.701	1	12	0.00486613	0.000252069	0	-0.000135386	-0.0005888	1.69749e-06	-5.51459	0.00673423	0.00670306	0.000647154	-4.59026	19.3115	19.2496	1.54549	0.0516345	0.00414529	0.0518006	4.58994	659701	8.21736e+06	8.2438e+06	-85.4101	0.0000000E+000	0.0000000E+000	0.0000000E+000	85.4101	0.0000000E+000	0.0000000E+000	0.0000000E+000	-85.4101	0.0000000E+000	0.0000000E+000	0.0000000E+000	-4.58994	0.0000000E+000	0.0000000E+000	0.0000000E+000	4.58994	12.4562	85.4101	-7.17332e-06	-2.19108e-06	4.67116e-09	-2.19575e-06	0.276775	34813.2	74.2183	34887.5
0.316193	20.1427	1.47854	20.1969	-4.19817	34.4179	0.276182	-0.00604046	340435	1824.45	1	12	0.00486447	0.000240852	0	-0.000124935	-0.000111051	2.58412e-06	-82.1982	0.0107291	0.00145644	0.0106297	-4.22794	20.1991	20.1442	1.48917	0.0493797	0.00362463	0.0495125	4.19817	1.82445e+06	2.48551e+07	2.4922e+07	-85.8018	0.0000000E+000	0.0000000E+000	0.0000000E+000	85.8018	0.0000000E+000	0.0000000E+000	0.0000000E+000	-85.8018	0.0000000E+000	0.0000000E+000	0.0000000E+000	-4.19817	0.0000000E+000	0.0000000E+000	0.0000000E+000	4.19817	13.6234	85.8018	2.60672e-06	-1.66827e-06	6.70801e-10	-1.66894e-06	0.276293	45722.1	18.3846	45740.5
0.0999041	21.0675	2.01715	21.1639	-5.46922	79.6268	0.276185	-0.00199495	789766	7174.39	1	12	0.00486806	0.000230017	0	-0.000252627	2.27182e-05	2.55936e-06	3.16452	0.0111268	0.0111099	-0.000614237	-5.4647	21.1749	21.0786	2.01654	0.0470352	0.00450348	0.0472503	5.46922	7.17439e+06	7.49307e+07	7.52734e+07	-84.5308	0.0000000E+000	0.0000000E+000	0.0000000E+000	84.5308	0.0000000E+000	0.0000000E+000	0.0000000E+000	-84.5308	0.0000000E+000	0.0000000E+000	0.0000000E+000	-5.46922	0.0000000E+000	0.0000000E+000	0.0000000E+000	5.46922	10.4442	84.5308	-7.53771e-05	-5.50977e-07	-4.53218e-11	-5.50931e-07	0.276162	138442	11.3878	138430
0.0315922	22.4188	4.16121	22.8017	-10.5151	222.51	0.27619	-0.00339982	1.21066e+06	40320.4	1	12	0.00486456	0.000213342	0	-0.000494953	0.000328477	1.70359e-06	10.862	0.00798527	0.0078422	-0.00150478	-10.5078	22.8092	22.4267	4.15971	0.0431198	0.00800358	0.0438563	10.5151	4.03204e+07	2.17229e+08	2.20939e+08	-79.4849	0.0000000E+000	0.0000000E+000	0.0000000E+000	79.4849	0.0000000E+000	0.0000000E+000	0.0000000E+000	-79.4849	0.0000000E+000	0.0000000E+000	0.0000000E+000	-10.5151	0.0000000E+000	0.0000000E+000	0.0000000E+000	10.5151	5.38757	79.4849	-3.51871e-05	-9.38995e-07	-1.11676e-09	-9.37878e-07	0.275861	81236.7	96.6162	81140
0.0100092	25.1069	9.58173	26.8731	-20.8887	673.732	0.276185	-0.00033872	1.6595e+06	210974	1	12	0.0048652	0.000181043	0	0.000333984	-0.000149271	3.18484e-06	-13.3656	0.0175916	0.0171151	0.00406654	-20.8838	26.8906	25.124	9.58579	0.0347661	0.013268	0.0372119	20.8887	2.10974e+08	5.52813e+08	5.91703e+08	-69.1113	0.0000000E+000	0.0000000E+000	0.0000000E+000	69.1113	0.0000000E+000	0.0000000E+000	0.0000000E+000	-69.1113	0.0000000E+000	0.0000000E+000	0.0000000E+000	-20.8887	0.0000000E+000	0.0000000E+000	0.0000000E+000	20.8887	2.62029	69.1113	0.000386106	-9.35494e-08	5.05612e-11	-9.35999e-08	0.276334	815377	440.692	815818