Folder: EIS/txt (part 93)

File: 18482_R301_UA694_SOC00_C05.mpt
EC-Lab ASCII FILE
Nb header lines : 65

Potentio Electrochemical Impedance Spectroscopy

Run on channel : 5 (SN 65912)
User :
CE vs. WE compliance from -10 V to 10 V
Electrode connection : standard
Potential control : Ewe
Ewe ctrl range : min = -10.00 V, max = 10.00 V
Safety Limits :
	Do not start on E overload
Acquisition started on : 10/21/2025 09:26:41.171
Technique started on : 10/21/2025 09:26:43.225
Loaded Setting File :  C:\Users\Celltest\OneDrive - store-dot.com\Documents\EC-Lab\Data\@Biologic Test Protocols\anode half cell EIS SOC00.mps
Saved on :
	File : 18482_R301_UA694_SOC00_C05.mpr
	Directory : C:\Users\Celltest\OneDrive - store-dot.com\Documents\EC-Lab\Data\Gyutae\
	Host : 169.254.61.224
Device : VMP-3e (SN .003165)
Address : USB
EC-LAB for windows v11.62 (software)
Internet server v27.00 (firmware)
Command interpretor v12.03 (firmware)
Electrode material :
Initial state :
Electrolyte :
Comments :
Electrode surface area : 0.001 cm²
Characteristic mass : 0.001 g
Equivalent Weight : 0.000 g/eq.
Density : 0.000 g/cm3
Volume (V) : 0.001 cm³
Record Ece
Cycle Definition : Charge/Discharge alternance
Mode                Single sine
E (V)               0.0000
vs.                 Eoc
tE (h:m:s)          0:00:0.0000
record              0
dI                  0.000
unit dI             mA
dt (s)              0.000
fi                  100.000
unit fi             kHz
ff                  10.000
unit ff             mHz
Nd                  6
Points              per decade
spacing             Logarithmic
Va (mV)             5.0
pw                  0.10
Na                  2
corr                0
E range min (V)     -10.000
E range max (V)     10.000
I Range             Auto
Bandwidth           5
nc cycles           0
goto Ns'            0
nr cycles           0
inc. cycle          0

freq/Hz	Re(Z)/Ohm	-Im(Z)/Ohm	|Z|/Ohm	Phase(Z)/deg	time/s	<Ewe>/V	<I>/mA	Cs/µF	Cp/µF	cycle number	I Range	|Ewe|/V	|I|/A	Ns	(Q-Qo)/mA.h	<Ece>/V	|Ece|/V	Phase(Zce)/deg	|Zce|/Ohm	Re(Zce)/Ohm	-Im(Zce)/Ohm	Phase(Zwe-ce)/deg	|Zwe-ce|/Ohm	Re(Zwe-ce)/Ohm	-Im(Zwe-ce)/Ohm	Re(Y)/Ohm-1	Im(Y)/Ohm-1	|Y|/Ohm-1	Phase(Y)/deg	Re(C)/nF	Im(C)/nF	|C|/nF	Phase(C)/deg	Re(M)	Im(M)	|M|	Phase(M)/deg	Re(Permittivity)	Im(Permittivity)	|Permittivity|	Phase(Permittivity)/deg	Re(Resistivity)/Ohm.cm	Im(Resistivity)/Ohm.cm	|Resistivity|/Ohm.cm	Phase(Resistivity)/deg	Re(Conductivity)/mS/cm	Im(Conductivity)/mS/cm	|Conductivity|/mS/cm	Phase(Conductivity)/deg	Tan(Delta)	Loss Angle(Delta)/deg	dq/mA.h	Pwe/W	Pce/W	Pwe-ce/W	<Ewe-Ece>/V	Rwe/Ohm	Rce/Ohm	Rwe-ce/Ohm		Ewe-Ece/V
100004	1.06992	0.408444	1.14523	-20.8945	2.05352	0.257516	-0.00102696	3.89647	0.495624	1	9	0.0048812	0.00426221	0	-8.54516e-07	9.21806e-05	4.63189e-05	68.3294	0.0108673	0.00401299	-0.0100992	-20.351	1.14543	1.07393	0.398345	0.815767	0.311421	0.873189	20.8945	495.624	1298.28	1389.67	-69.1055	0.0000000E+000	0.0000000E+000	0.0000000E+000	69.1055	0.0000000E+000	0.0000000E+000	0.0000000E+000	-69.1055	0.0000000E+000	0.0000000E+000	0.0000000E+000	-20.8945	0.0000000E+000	0.0000000E+000	0.0000000E+000	20.8945	2.61949	69.1055	-8.54516e-07	-2.64459e-07	-9.46659e-11	-2.64364e-07	0.257424	250755	89.7606	250666
31621.1	1.42482	0.591214	1.54261	-22.5355	3.33054	0.257481	-0.00620332	8.5133	1.25048	1	9	0.00539993	0.00350052	0	-2.28855e-06	0.000187637	1.72185e-05	38.5822	0.00491883	0.00384512	-0.00306756	-22.3758	1.54499	1.42866	0.588147	0.598754	0.248447	0.648253	22.5355	1250.48	3013.64	3262.77	-67.4645	0.0000000E+000	0.0000000E+000	0.0000000E+000	67.4645	0.0000000E+000	0.0000000E+000	0.0000000E+000	-67.4645	0.0000000E+000	0.0000000E+000	0.0000000E+000	-22.5355	0.0000000E+000	0.0000000E+000	0.0000000E+000	22.5355	2.40998	67.4645	-4.30362e-07	-1.59724e-06	-1.16397e-09	-1.59607e-06	0.257294	41507	30.2478	41476.8
10002.2	1.88777	0.823392	2.05953	-23.5655	4.47955	0.257475	-0.00787912	19.3249	3.08883	1	9	0.00543094	0.00263698	0	2.51017e-06	5.39982e-05	1.26794e-05	-2.18241	0.00480829	0.0048048	0.000183104	-23.5168	2.06401	1.89258	0.823576	0.445055	0.19412	0.485548	23.5655	3088.84	7081.7	7726.02	-66.4345	0.0000000E+000	0.0000000E+000	0.0000000E+000	66.4345	0.0000000E+000	0.0000000E+000	0.0000000E+000	-66.4345	0.0000000E+000	0.0000000E+000	0.0000000E+000	-23.5655	0.0000000E+000	0.0000000E+000	0.0000000E+000	23.5655	2.29268	66.4345	-5.76794e-06	-2.02868e-06	-4.25458e-10	-2.02825e-06	0.257421	32678.2	6.85333	32671.3
3163.08	2.52179	1.19878	2.79222	-25.4249	5.63067	0.257437	-0.0358462	41.9731	7.73658	1	9	0.00543572	0.00194674	0	3.50527e-06	0.000187637	6.8265e-06	-3.31205	0.00350663	0.00350078	0.000202592	-25.3978	2.79547	2.52529	1.19898	0.323452	0.153759	0.358138	25.4249	7736.58	16274.9	18020.2	-64.5751	0.0000000E+000	0.0000000E+000	0.0000000E+000	64.5751	0.0000000E+000	0.0000000E+000	0.0000000E+000	-64.5751	0.0000000E+000	0.0000000E+000	0.0000000E+000	-25.4249	0.0000000E+000	0.0000000E+000	0.0000000E+000	25.4249	2.10364	64.5751	-5.3547e-06	-9.22814e-06	-6.72607e-09	-9.22141e-06	0.257249	7181.69	5.23449	7176.46
1000.32	3.33385	1.91268	3.84355	-29.8436	7.23085	0.257468	-0.0122335	83.1837	20.5996	1	10	0.00530914	0.00138131	0	-2.71458e-06	-0.000194188	1.27548e-05	32.1947	0.00923387	0.00781409	-0.00491978	-29.7221	3.84789	3.34166	1.90776	0.225673	0.129472	0.260176	29.8436	20599.6	35905.5	41395	-60.1564	0.0000000E+000	0.0000000E+000	0.0000000E+000	60.1564	0.0000000E+000	0.0000000E+000	0.0000000E+000	-60.1564	0.0000000E+000	0.0000000E+000	0.0000000E+000	-29.8436	0.0000000E+000	0.0000000E+000	0.0000000E+000	29.8436	1.74302	60.1564	-1.22812e-06	-3.14974e-06	2.3756e-09	-3.15212e-06	0.257662	21046.1	15.8734	21062
316.316	4.76636	3.65383	6.00572	-37.4733	8.58002	0.257442	-0.0124011	137.705	50.9703	1	10	0.00507102	0.000844366	0	-6.5265e-06	-0.000308735	7.57766e-06	-34.6278	0.00897438	0.00738466	0.00509963	-37.4691	6.01468	4.77375	3.65893	0.132147	0.101302	0.166508	37.4733	50970.3	66489.9	83778.8	-52.5267	0.0000000E+000	0.0000000E+000	0.0000000E+000	52.5267	0.0000000E+000	0.0000000E+000	0.0000000E+000	-52.5267	0.0000000E+000	0.0000000E+000	0.0000000E+000	-37.4733	0.0000000E+000	0.0000000E+000	0.0000000E+000	37.4733	1.30448	52.5267	-1.32074e-06	-3.19256e-06	3.82865e-09	-3.19639e-06	0.257751	20759.6	24.8958	20784.5
100.032	8.8068	6.3031	10.83	-35.5916	9.92686	0.257457	-0.0120101	252.422	85.5025	1	10	0.00501389	0.000462964	0	-1.18404e-05	0.000206728	8.71133e-06	73.9175	0.0188164	0.00521256	-0.01808	-35.4977	10.8237	8.81201	6.28502	0.0750865	0.05374	0.0923362	35.5916	85502.5	119466	146911	-54.4084	0.0000000E+000	0.0000000E+000	0.0000000E+000	54.4084	0.0000000E+000	0.0000000E+000	0.0000000E+000	-54.4084	0.0000000E+000	0.0000000E+000	0.0000000E+000	-35.5916	0.0000000E+000	0.0000000E+000	0.0000000E+000	35.5916	1.39722	54.4084	-1.08415e-06	-3.09209e-06	-2.48283e-09	-3.08961e-06	0.25725	21436.6	17.2128	21419.4
[...]
1.00006	21.9367	1.83843	22.0136	-4.79055	19.9756	0.257456	-0.00635434	86565.4	603.751	1	12	0.00499534	0.00022692	0	-2.42737e-05	-0.000175096	4.91026e-06	5.02081	0.0216387	0.0215556	-0.00189377	-4.78096	22.0349	21.9583	1.83654	0.0452677	0.00379372	0.0454264	4.79055	603751	7.20412e+06	7.22938e+06	-85.2095	0.0000000E+000	0.0000000E+000	0.0000000E+000	85.2095	0.0000000E+000	0.0000000E+000	0.0000000E+000	-85.2095	0.0000000E+000	0.0000000E+000	0.0000000E+000	-4.79055	0.0000000E+000	0.0000000E+000	0.0000000E+000	4.79055	11.9323	85.2095	2.14956e-06	-1.63596e-06	1.11262e-09	-1.63707e-06	0.257631	40516.5	27.5554	40544.1
0.316193	22.8035	1.80187	22.8746	-4.51797	34.32	0.257468	-0.00266385	279347	1733.34	1	12	0.00499906	0.000218542	0	-5.13041e-05	0.000206728	1.99552e-06	-3.31342	0.00913107	0.00911581	0.000527756	-4.51749	22.8837	22.8126	1.8024	0.0435808	0.00344363	0.0437166	4.51797	1.73334e+06	2.19363e+07	2.20046e+07	-85.482	0.0000000E+000	0.0000000E+000	0.0000000E+000	85.482	0.0000000E+000	0.0000000E+000	0.0000000E+000	-85.482	0.0000000E+000	0.0000000E+000	0.0000000E+000	-4.51797	0.0000000E+000	0.0000000E+000	0.0000000E+000	4.51797	12.6555	85.482	-2.0841e-05	-6.85857e-07	-5.50693e-10	-6.85306e-07	0.257261	96652.4	77.6048	96574.8
0.0999041	23.8185	2.96138	24.0019	-7.0873	79.5279	0.25746	-0.0037972	537950	8189.21	1	12	0.00499334	0.00020804	0	-0.000165466	0.000111272	2.69443e-06	0.354446	0.0129515	0.0129512	-8.01207e-05	-7.0833	24.0147	23.8314	2.9613	0.0413451	0.0051405	0.0416635	7.0873	8.18921e+06	6.5866e+07	6.63731e+07	-82.9127	0.0000000E+000	0.0000000E+000	0.0000000E+000	82.9127	0.0000000E+000	0.0000000E+000	0.0000000E+000	-82.9127	0.0000000E+000	0.0000000E+000	0.0000000E+000	-7.0873	0.0000000E+000	0.0000000E+000	0.0000000E+000	7.0873	8.04302	82.9127	-3.3801e-05	-9.77626e-07	-4.22521e-10	-9.77204e-07	0.257349	67802.6	29.3037	67773.3
0.0315922	25.568	6.18304	26.305	-13.5947	222.412	0.25746	-0.00104959	814776	45016	1	12	0.00499679	0.000189956	0	5.01105e-05	0.000264002	1.37917e-06	-42.794	0.00726046	0.00532773	0.0049325	-13.6024	26.3113	25.5733	6.18797	0.0369506	0.00893566	0.0380156	13.5947	4.5016e+07	1.86149e+08	1.91515e+08	-76.4053	0.0000000E+000	0.0000000E+000	0.0000000E+000	76.4053	0.0000000E+000	0.0000000E+000	0.0000000E+000	-76.4053	0.0000000E+000	0.0000000E+000	0.0000000E+000	-13.5947	0.0000000E+000	0.0000000E+000	0.0000000E+000	13.5947	4.13518	76.4053	0.000144598	-2.70227e-07	-2.77093e-10	-2.6995e-07	0.257196	245296	251.529	245045
0.0100092	29.4347	14.0023	32.5955	-25.4408	673.635	0.257463	0.000523843	1.13559e+06	209560	1	12	0.0049937	0.000153202	0	-6.14233e-05	3.4907e-05	3.61074e-06	-27.0779	0.0235685	0.0209851	0.0107284	-25.442	32.619	29.4557	14.0131	0.0277041	0.0131791	0.0306791	25.4408	2.09559e+08	4.40521e+08	4.87826e+08	-64.5592	0.0000000E+000	0.0000000E+000	0.0000000E+000	64.5592	0.0000000E+000	0.0000000E+000	0.0000000E+000	-64.5592	0.0000000E+000	0.0000000E+000	0.0000000E+000	-25.4408	0.0000000E+000	0.0000000E+000	0.0000000E+000	25.4408	2.10213	64.5592	-0.000277319	1.3487e-07	1.82858e-11	1.34852e-07	0.257429	491489	66.6363	491423

File: 18484_R301_UA694_SOC00_C06.mpt
EC-Lab ASCII FILE
Nb header lines : 65

Potentio Electrochemical Impedance Spectroscopy

Run on channel : 6 (SN 65795)
User :
CE vs. WE compliance from -10 V to 10 V
Electrode connection : standard
Potential control : Ewe
Ewe ctrl range : min = -10.00 V, max = 10.00 V
Safety Limits :
	Do not start on E overload
Acquisition started on : 10/21/2025 09:26:46.959
Technique started on : 10/21/2025 09:26:48.738
Loaded Setting File :  C:\Users\Celltest\OneDrive - store-dot.com\Documents\EC-Lab\Data\@Biologic Test Protocols\anode half cell EIS SOC00.mps
Saved on :
	File : 18484_R301_UA694_SOC00_C06.mpr
	Directory : C:\Users\Celltest\OneDrive - store-dot.com\Documents\EC-Lab\Data\Gyutae\
	Host : 169.254.61.224
Device : VMP-3e (SN .003165)
Address : USB
EC-LAB for windows v11.62 (software)
Internet server v27.00 (firmware)
Command interpretor v12.03 (firmware)
Electrode material :
Initial state :
Electrolyte :
Comments :
Electrode surface area : 0.001 cm²
Characteristic mass : 0.001 g
Equivalent Weight : 0.000 g/eq.
Density : 0.000 g/cm3
Volume (V) : 0.001 cm³
Record Ece
Cycle Definition : Charge/Discharge alternance
Mode                Single sine
E (V)               0.0000
vs.                 Eoc
tE (h:m:s)          0:00:0.0000
record              0
dI                  0.000
unit dI             mA
dt (s)              0.000
fi                  100.000
unit fi             kHz
ff                  10.000
unit ff             mHz
Nd                  6
Points              per decade
spacing             Logarithmic
Va (mV)             5.0
pw                  0.10
Na                  2
corr                0
E range min (V)     -10.000
E range max (V)     10.000
I Range             Auto
Bandwidth           5
nc cycles           0
goto Ns'            0
nr cycles           0
inc. cycle          0

freq/Hz	Re(Z)/Ohm	-Im(Z)/Ohm	|Z|/Ohm	Phase(Z)/deg	time/s	<Ewe>/V	<I>/mA	Cs/µF	Cp/µF	cycle number	I Range	|Ewe|/V	|I|/A	Ns	(Q-Qo)/mA.h	<Ece>/V	|Ece|/V	Phase(Zce)/deg	|Zce|/Ohm	Re(Zce)/Ohm	-Im(Zce)/Ohm	Phase(Zwe-ce)/deg	|Zwe-ce|/Ohm	Re(Zwe-ce)/Ohm	-Im(Zwe-ce)/Ohm	Re(Y)/Ohm-1	Im(Y)/Ohm-1	|Y|/Ohm-1	Phase(Y)/deg	Re(C)/nF	Im(C)/nF	|C|/nF	Phase(C)/deg	Re(M)	Im(M)	|M|	Phase(M)/deg	Re(Permittivity)	Im(Permittivity)	|Permittivity|	Phase(Permittivity)/deg	Re(Resistivity)/Ohm.cm	Im(Resistivity)/Ohm.cm	|Resistivity|/Ohm.cm	Phase(Resistivity)/deg	Re(Conductivity)/mS/cm	Im(Conductivity)/mS/cm	|Conductivity|/mS/cm	Phase(Conductivity)/deg	Tan(Delta)	Loss Angle(Delta)/deg	dq/mA.h	Pwe/W	Pce/W	Pwe-ce/W	<Ewe-Ece>/V	Rwe/Ohm	Rce/Ohm	Rwe-ce/Ohm		Ewe-Ece/V
100004	1.22123	0.414749	1.28974	-18.7583	1.77854	0.26043	0.0581776	3.83723	0.396814	1	9	0.00452995	0.00351231	0	7.60818e-06	-5.65069e-05	4.51333e-05	64.9777	0.0128501	0.00543521	-0.011644	-18.1915	1.2912	1.22667	0.403105	0.734168	0.249335	0.775352	18.7583	396.814	1168.42	1233.96	-71.2417	0.0000000E+000	0.0000000E+000	0.0000000E+000	71.2417	0.0000000E+000	0.0000000E+000	0.0000000E+000	-71.2417	0.0000000E+000	0.0000000E+000	0.0000000E+000	-18.7583	0.0000000E+000	0.0000000E+000	0.0000000E+000	18.7583	2.9445	71.2417	7.60818e-06	1.51512e-05	-3.28744e-09	1.51545e-05	0.260486	4476.46	0.971283	4477.43
31621.1	1.60138	0.68683	1.74246	-23.2144	3.17553	0.26034	0.0491259	7.32813	1.13859	1	9	0.00507402	0.00291199	0	4.18722e-05	0.000325454	1.50003e-05	34.491	0.00515122	0.00424572	-0.00291702	-23.0715	1.74521	1.60563	0.683913	0.527437	0.226217	0.573902	23.2144	1138.59	2654.69	2888.56	-66.7856	0.0000000E+000	0.0000000E+000	0.0000000E+000	66.7856	0.0000000E+000	0.0000000E+000	0.0000000E+000	-66.7856	0.0000000E+000	0.0000000E+000	0.0000000E+000	-23.2144	0.0000000E+000	0.0000000E+000	0.0000000E+000	23.2144	2.33155	66.7856	-2.92684e-07	1.27894e-05	1.59882e-08	1.27734e-05	0.260014	5299.44	6.6249	5292.82
10002.2	2.16258	0.983073	2.37554	-24.4458	4.44856	0.260326	0.0497218	16.1859	2.77196	1	9	0.00542832	0.00228509	0	6.2357e-05	0.000229964	6.60755e-06	81.4151	0.00289159	0.000431643	-0.00285919	-24.3787	2.37475	2.16301	0.980214	0.38322	0.174206	0.420958	24.4458	2771.96	6097.78	6698.26	-65.5542	0.0000000E+000	0.0000000E+000	0.0000000E+000	65.5542	0.0000000E+000	0.0000000E+000	0.0000000E+000	-65.5542	0.0000000E+000	0.0000000E+000	0.0000000E+000	-24.4458	0.0000000E+000	0.0000000E+000	0.0000000E+000	24.4458	2.19981	65.5542	7.58125e-06	1.29439e-05	1.14342e-08	1.29325e-05	0.260096	5235.65	4.625	5231.02
3163.08	2.9069	1.42299	3.2365	-26.0828	5.89768	0.260314	0.0311714	35.3596	6.83534	1	9	0.00529539	0.00163615	0	8.35759e-05	1.98852e-05	2.74911e-06	26.9545	0.00168024	0.00149771	-0.000761621	-26.059	3.23752	2.9084	1.42223	0.277509	0.135847	0.308975	26.0828	6835.34	13963.3	15546.5	-63.9172	0.0000000E+000	0.0000000E+000	0.0000000E+000	63.9172	0.0000000E+000	0.0000000E+000	0.0000000E+000	-63.9172	0.0000000E+000	0.0000000E+000	0.0000000E+000	-26.0828	0.0000000E+000	0.0000000E+000	0.0000000E+000	26.0828	2.04281	63.9172	9.03782e-06	8.11433e-06	6.19849e-10	8.11371e-06	0.260294	8351.06	0.637932	8350.42
1000.32	3.91598	2.22437	4.50364	-29.5976	7.92481	0.260315	-0.00090249	71.5275	17.4486	1	10	0.00515713	0.0011451	0	8.38541e-05	0.000153571	4.16905e-06	-68.3907	0.00364077	0.00134081	0.00338489	-29.6266	4.50648	3.91733	2.22776	0.193069	0.109668	0.222043	29.5976	17448.6	30718.1	35327.9	-60.4024	0.0000000E+000	0.0000000E+000	0.0000000E+000	60.4024	0.0000000E+000	0.0000000E+000	0.0000000E+000	-60.4024	0.0000000E+000	0.0000000E+000	0.0000000E+000	-29.5976	0.0000000E+000	0.0000000E+000	0.0000000E+000	29.5976	1.76049	60.4024	-4.45544e-07	-2.34931e-07	-1.38597e-10	-2.34793e-07	0.260161	288440	170.164	288270
316.316	5.43392	4.20035	6.86807	-37.7036	9.27305	0.260309	-0.00121553	119.788	44.8038	1	10	0.00478573	0.000696808	0	8.28756e-05	0.000249062	1.07819e-05	-4.10198	0.0154733	0.0154337	0.00110683	-37.6323	6.88096	5.44935	4.20145	0.115198	0.0890463	0.145601	37.7036	44803.8	57961.9	73259.6	-52.2964	0.0000000E+000	0.0000000E+000	0.0000000E+000	52.2964	0.0000000E+000	0.0000000E+000	0.0000000E+000	-52.2964	0.0000000E+000	0.0000000E+000	0.0000000E+000	-37.7036	0.0000000E+000	0.0000000E+000	0.0000000E+000	37.7036	1.29368	52.2964	3.75542e-08	-3.16415e-07	-3.02743e-10	-3.16112e-07	0.26006	214152	204.899	213948
100.032	9.76977	7.99719	12.6255	-39.3026	10.6198	0.26032	-0.00082425	198.95	79.8217	1	10	0.00460944	0.00036509	0	8.33688e-05	0.000134473	1.16103e-05	-107.915	0.0318012	-0.00978208	0.0302593	-39.4368	12.6371	9.75999	8.02745	0.0612896	0.0501695	0.0792047	39.3026	79821.7	97514.1	126018	-50.6974	0.0000000E+000	0.0000000E+000	0.0000000E+000	50.6974	0.0000000E+000	0.0000000E+000	0.0000000E+000	-50.6974	0.0000000E+000	0.0000000E+000	0.0000000E+000	-39.3026	0.0000000E+000	0.0000000E+000	0.0000000E+000	39.3026	1.22165	50.6974	-6.01986e-07	-2.14569e-07	-1.1084e-10	-2.14458e-07	0.260185	315826	163.146	315663
[...]
1.00006	30.3568	2.93337	30.4981	-5.51935	20.6707	0.260309	-0.00398331	54253.2	501.894	1	12	0.00456734	0.000149758	0	7.88647e-05	-0.000113801	1.79757e-06	-1.7287	0.0120031	0.0119977	0.000362098	-5.51786	30.5101	30.3687	2.93373	0.0326369	0.0031537	0.0327889	5.51935	501894	5.19399e+06	5.21818e+06	-84.4807	0.0000000E+000	0.0000000E+000	0.0000000E+000	84.4807	0.0000000E+000	0.0000000E+000	0.0000000E+000	-84.4807	0.0000000E+000	0.0000000E+000	0.0000000E+000	-5.51935	0.0000000E+000	0.0000000E+000	0.0000000E+000	5.51935	10.3488	84.4807	1.56991e-06	-1.03689e-06	4.53304e-10	-1.03735e-06	0.260423	65350.1	28.5695	65378.7
0.316193	31.7779	2.5305	31.8785	-4.5529	35.014	0.260315	-0.00222201	198912	1253.37	1	12	0.00456523	0.000143207	0	5.5753e-05	-5.65069e-05	3.26568e-06	61.6377	0.0228039	0.0108329	-0.0200665	-4.51541	31.8877	31.7888	2.51043	0.0312701	0.00249006	0.0313691	4.5529	1.25337e+06	1.57397e+07	1.57895e+07	-85.4471	0.0000000E+000	0.0000000E+000	0.0000000E+000	85.4471	0.0000000E+000	0.0000000E+000	0.0000000E+000	-85.4471	0.0000000E+000	0.0000000E+000	0.0000000E+000	-4.5529	0.0000000E+000	0.0000000E+000	0.0000000E+000	4.5529	12.558	85.4471	-1.58374e-05	-5.78421e-07	1.25559e-10	-5.78547e-07	0.260371	117153	25.4306	117178
0.0999041	33.1269	3.67495	33.3301	-6.33026	80.2219	0.260309	-0.00281866	433496	5270.06	1	12	0.00456742	0.000137036	0	-1.12218e-05	0.000440042	1.90868e-06	39.9744	0.0139283	0.0106737	-0.00894816	-6.31296	33.3397	33.1375	3.666	0.02982	0.0033081	0.0300029	6.33026	5.27006e+06	4.75056e+07	4.7797e+07	-83.6697	0.0000000E+000	0.0000000E+000	0.0000000E+000	83.6697	0.0000000E+000	0.0000000E+000	0.0000000E+000	-83.6697	0.0000000E+000	0.0000000E+000	0.0000000E+000	-6.33026	0.0000000E+000	0.0000000E+000	0.0000000E+000	6.33026	9.01423	83.6697	-1.59822e-05	-7.33724e-07	-1.24033e-09	-7.32483e-07	0.259869	92352.3	156.118	92196.1
0.0315922	35.3306	7.24351	36.0655	-11.5863	223.106	0.260296	-0.000820864	695491	28054.6	1	12	0.00456543	0.000126587	0	0.000131316	-3.74089e-05	1.88637e-06	-81.786	0.0149018	0.00212903	0.0147489	-11.6085	36.0706	35.3328	7.25826	0.0271623	0.00556883	0.0277273	11.5863	2.80546e+07	1.36838e+08	1.39684e+08	-78.4137	0.0000000E+000	0.0000000E+000	0.0000000E+000	78.4137	0.0000000E+000	0.0000000E+000	0.0000000E+000	-78.4137	0.0000000E+000	0.0000000E+000	0.0000000E+000	-11.5863	0.0000000E+000	0.0000000E+000	0.0000000E+000	11.5863	4.87756	78.4137	8.56273e-05	-2.13668e-07	3.07076e-11	-2.13699e-07	0.260334	317101	45.5726	317146
0.0100092	39.9056	16.2	43.0685	-22.095	674.328	0.260294	0.000308997	981541	138872	1	12	0.00456308	0.000105949	0	-5.96038e-05	0.000229964	2.12244e-06	3.52487	0.0200326	0.0199947	-0.00123164	-22.0835	43.0866	39.9256	16.1987	0.0215137	0.00873361	0.0232188	22.095	1.38872e+08	3.42087e+08	3.692e+08	-67.905	0.0000000E+000	0.0000000E+000	0.0000000E+000	67.905	0.0000000E+000	0.0000000E+000	0.0000000E+000	-67.905	0.0000000E+000	0.0000000E+000	0.0000000E+000	-22.095	0.0000000E+000	0.0000000E+000	0.0000000E+000	22.095	2.46332	67.905	-0.000229488	8.04299e-08	7.1058e-11	8.03589e-08	0.260064	842384	744.227	841639