Folder: EIS/txt (part 36)

File: 17490_R279_UA654_SOC00_C08.mpt
EC-Lab ASCII FILE
Nb header lines : 63

Potentio Electrochemical Impedance Spectroscopy

Run on channel : 8 (SN 65398)
User :
CE vs. WE compliance from -10 V to 10 V
Electrode connection : standard
Potential control : Ewe
Ewe ctrl range : min = -10.00 V, max = 10.00 V
Safety Limits :
	Do not start on E overload
Acquisition started on : 09/15/2025 10:08:35.287
Loaded Setting File :  C:\Users\Celltest\OneDrive - store-dot.com\Documents\EC-Lab\Data\Charmaine\R279\17382.mps
Saved on :
	File : 17490_C08.mpr
	Directory : C:\Users\Celltest\OneDrive - store-dot.com\Documents\EC-Lab\Data\Charmaine\R279\
	Host : 169.254.61.224
Device : VMP-3e (SN .003165)
Address : USB
EC-LAB for windows v11.62 (software)
Internet server v27.00 (firmware)
Command interpretor v12.03 (firmware)
Electrode material :
Initial state :
Electrolyte :
Comments :
Electrode surface area : 0.001 cm²
Characteristic mass : 0.001 g
Equivalent Weight : 0.000 g/eq.
Density : 0.000 g/cm3
Volume (V) : 0.001 cm³
Cycle Definition : Charge/Discharge alternance
Mode                Single sine
E (V)               0.0000
vs.                 Eoc
tE (h:m:s)          0:00:0.0000
record              0
dI                  0.000
unit dI             mA
dt (s)              0.000
fi                  100.000
unit fi             kHz
ff                  10.000
unit ff             mHz
Nd                  6
Points              per decade
spacing             Logarithmic
Va (mV)             5.0
pw                  0.10
Na                  2
corr                0
E range min (V)     -10.000
E range max (V)     10.000
I Range             Auto
Bandwidth           5
nc cycles           0
goto Ns'            0
nr cycles           0
inc. cycle          0

freq/Hz	Re(Z)/Ohm	-Im(Z)/Ohm	|Z|/Ohm	Phase(Z)/deg	time/s	<Ewe>/V	<I>/mA	Cs/µF	Cp/µF	cycle number	I Range	|Ewe|/V	|I|/A	Ns	(Q-Qo)/mA.h	Re(Y)/Ohm-1	Im(Y)/Ohm-1	|Y|/Ohm-1	Phase(Y)/deg	Re(C)/nF	Im(C)/nF	|C|/nF	Phase(C)/deg	Re(M)	Im(M)	|M|	Phase(M)/deg	Re(Permittivity)	Im(Permittivity)	|Permittivity|	Phase(Permittivity)/deg	Re(Resistivity)/Ohm.cm	Im(Resistivity)/Ohm.cm	|Resistivity|/Ohm.cm	Phase(Resistivity)/deg	Re(Conductivity)/mS/cm	Im(Conductivity)/mS/cm	|Conductivity|/mS/cm	Phase(Conductivity)/deg	Tan(Delta)	Loss Angle(Delta)/deg	dq/mA.h	Pwe/W	Rwe/Ohm
100004	1.15319	0.231826	1.17626	-11.3667	1.86549	0.261806	0.0155902	6.86501	0.266661	1	9	0.00456157	0.00387802	0	-1.76102e-06	0.833476	0.167554	0.850151	11.3667	266.661	1326.47	1353.01	-78.6333	0.0000000E+000	0.0000000E+000	0.0000000E+000	78.6333	0.0000000E+000	0.0000000E+000	0.0000000E+000	-78.6333	0.0000000E+000	0.0000000E+000	0.0000000E+000	-11.3667	0.0000000E+000	0.0000000E+000	0.0000000E+000	11.3667	4.97437	78.6333	-1.76102e-06	4.08159e-06	16793
46420.4	1.276	0.301975	1.31125	-13.3145	2.88048	0.261819	0.0184175	11.3538	0.602161	1	9	0.00507257	0.0038685	0	-7.66467e-07	0.742133	0.175631	0.762632	13.3145	602.161	2544.45	2614.73	-76.6855	0.0000000E+000	0.0000000E+000	0.0000000E+000	76.6855	0.0000000E+000	0.0000000E+000	0.0000000E+000	-76.6855	0.0000000E+000	0.0000000E+000	0.0000000E+000	-13.3145	0.0000000E+000	0.0000000E+000	0.0000000E+000	13.3145	4.22553	76.6855	-1.11858e-06	4.82205e-06	14215.7
21544.7	1.42624	0.393294	1.47947	-15.4165	3.75448	0.261822	0.0157576	18.7829	1.32734	1	9	0.00540977	0.00365655	0	2.25233e-06	0.651597	0.179682	0.675917	15.4165	1327.34	4813.48	4993.13	-74.5835	0.0000000E+000	0.0000000E+000	0.0000000E+000	74.5835	0.0000000E+000	0.0000000E+000	0.0000000E+000	-74.5835	0.0000000E+000	0.0000000E+000	0.0000000E+000	-15.4165	0.0000000E+000	0.0000000E+000	0.0000000E+000	15.4165	3.6264	74.5835	3.46522e-07	4.12568e-06	16615.6
10002.2	1.61761	0.507464	1.69534	-17.4172	4.62849	0.261807	0.0138044	31.3558	2.8094	1	9	0.00508269	0.00299803	0	5.84858e-06	0.562807	0.176559	0.589851	17.4172	2809.4	8955.35	9385.68	-72.5827	0.0000000E+000	0.0000000E+000	0.0000000E+000	72.5827	0.0000000E+000	0.0000000E+000	0.0000000E+000	-72.5827	0.0000000E+000	0.0000000E+000	0.0000000E+000	-17.4172	0.0000000E+000	0.0000000E+000	0.0000000E+000	17.4172	3.18764	72.5827	-1.72261e-07	3.61409e-06	18965.4
4641.49	1.86055	0.671587	1.97805	-19.8476	5.47771	0.261795	0.0280529	51.0576	5.88559	1	9	0.00529441	0.00267658	0	8.5431e-06	0.475518	0.171643	0.505548	19.8476	5885.59	16305.3	17335.1	-70.1524	0.0000000E+000	0.0000000E+000	0.0000000E+000	70.1524	0.0000000E+000	0.0000000E+000	0.0000000E+000	-70.1524	0.0000000E+000	0.0000000E+000	0.0000000E+000	-19.8476	0.0000000E+000	0.0000000E+000	0.0000000E+000	19.8476	2.77038	70.1524	4.02784e-06	7.34412e-06	9332.2
2155.69	2.15193	0.90759	2.33549	-22.8679	6.41171	0.261787	0.0280529	81.3475	12.2847	1	9	0.00516897	0.00221322	0	1.50089e-05	0.394522	0.166392	0.428175	22.8679	12284.7	29127.6	31612.2	-67.1321	0.0000000E+000	0.0000000E+000	0.0000000E+000	67.1321	0.0000000E+000	0.0000000E+000	0.0000000E+000	-67.1321	0.0000000E+000	0.0000000E+000	0.0000000E+000	-22.8679	0.0000000E+000	0.0000000E+000	0.0000000E+000	22.8679	2.37104	67.1321	1.72716e-06	7.34388e-06	9331.91
1000.32	2.52028	1.31303	2.84181	-27.5189	7.3477	0.261795	0.0303408	121.173	25.8682	1	9	0.00508368	0.00178889	0	2.2769e-05	0.312075	0.162587	0.351888	27.5189	25868.2	49652.4	55986.9	-62.4811	0.0000000E+000	0.0000000E+000	0.0000000E+000	62.4811	0.0000000E+000	0.0000000E+000	0.0000000E+000	-62.4811	0.0000000E+000	0.0000000E+000	0.0000000E+000	-27.5189	0.0000000E+000	0.0000000E+000	0.0000000E+000	27.5189	1.91944	62.4811	3.3741e-06	7.94306e-06	8628.47
463.961	3.05018	2.05502	3.67787	-33.9697	8.53619	0.261811	-0.0114926	166.925	52.1151	1	10	0.00509244	0.00138462	0	2.15507e-05	0.225493	0.151923	0.271897	33.9697	52115.1	77352.1	93270.2	-56.0303	0.0000000E+000	0.0000000E+000	0.0000000E+000	56.0303	0.0000000E+000	0.0000000E+000	0.0000000E+000	-56.0303	0.0000000E+000	0.0000000E+000	0.0000000E+000	-33.9697	0.0000000E+000	0.0000000E+000	0.0000000E+000	33.9697	1.48426	56.0303	-2.05094e-06	-3.00888e-06	22780.9
215.345	4.0246	3.31537	5.21431	-39.4809	9.47044	0.261811	-0.0117641	222.923	90.1205	1	10	0.00503557	0.000965721	0	1.8615e-05	0.148023	0.121938	0.19178	39.4809	90120.5	109399	141739	-50.5191	0.0000000E+000	0.0000000E+000	0.0000000E+000	50.5191	0.0000000E+000	0.0000000E+000	0.0000000E+000	-50.5191	0.0000000E+000	0.0000000E+000	0.0000000E+000	-39.4809	0.0000000E+000	0.0000000E+000	0.0000000E+000	39.4809	1.21392	50.5191	-1.04067e-06	-3.07998e-06	22255
100.032	5.97549	5.04102	7.81782	-40.1515	10.4017	0.261817	-0.0113921	315.619	131.228	1	10	0.00501114	0.00064099	0	1.61517e-05	0.0977692	0.0824796	0.127913	40.1515	131228	155555	203515	-49.8485	0.0000000E+000	0.0000000E+000	0.0000000E+000	49.8485	0.0000000E+000	0.0000000E+000	0.0000000E+000	-49.8485	0.0000000E+000	0.0000000E+000	0.0000000E+000	-40.1515	0.0000000E+000	0.0000000E+000	0.0000000E+000	40.1515	1.18537	49.8485	-1.1584e-06	-2.98266e-06	22982.3
46.4415	9.40339	6.54792	11.4586	-34.8509	11.3356	0.261812	-0.0134046	523.372	170.905	1	10	0.00500098	0.00043644	0	1.39359e-05	0.0716181	0.0498703	0.0872709	34.8509	170905	245435	299077	-55.1491	0.0000000E+000	0.0000000E+000	0.0000000E+000	55.1491	0.0000000E+000	0.0000000E+000	0.0000000E+000	-55.1491	0.0000000E+000	0.0000000E+000	0.0000000E+000	-34.8509	0.0000000E+000	0.0000000E+000	0.0000000E+000	34.8509	1.43609	55.1491	-1.1678e-06	-3.5095e-06	19531.5
[...]
1.00006	20.6314	2.16341	20.7445	-5.98615	20.6762	0.261852	-0.00154506	73562.1	800.062	1	12	0.00500012	0.000241033	0	6.47865e-06	0.0479426	0.00502726	0.0482055	5.98615	800062	7.62982e+06	7.67165e+06	-84.0138	0.0000000E+000	0.0000000E+000	0.0000000E+000	84.0138	0.0000000E+000	0.0000000E+000	0.0000000E+000	-84.0138	0.0000000E+000	0.0000000E+000	0.0000000E+000	-5.98615	0.0000000E+000	0.0000000E+000	0.0000000E+000	5.98615	9.53653	84.0138	-3.73908e-06	-4.04578e-07	169476
0.464091	21.5386	2.11915	21.6426	-5.61915	28.361	0.261849	-0.000612978	161829	1551.53	1	12	0.00499905	0.000230982	0	-2.00224e-05	0.0459832	0.0045242	0.0462052	5.61915	1.55153e+06	1.57694e+07	1.58456e+07	-84.3809	0.0000000E+000	0.0000000E+000	0.0000000E+000	84.3809	0.0000000E+000	0.0000000E+000	0.0000000E+000	-84.3809	0.0000000E+000	0.0000000E+000	0.0000000E+000	-5.61915	0.0000000E+000	0.0000000E+000	0.0000000E+000	5.61915	10.1638	84.3809	-1.49702e-05	-1.60508e-07	427175
0.215268	22.4829	2.26639	22.5968	-5.75626	44.841	0.261847	-0.00116043	326217	3281.56	1	12	0.00499654	0.000221117	0	-2.05013e-05	0.0440308	0.00443853	0.044254	5.75626	3.28156e+06	3.25535e+07	3.27185e+07	-84.2437	0.0000000E+000	0.0000000E+000	0.0000000E+000	84.2437	0.0000000E+000	0.0000000E+000	0.0000000E+000	-84.2437	0.0000000E+000	0.0000000E+000	0.0000000E+000	-5.75626	0.0000000E+000	0.0000000E+000	0.0000000E+000	5.75626	9.92013	84.2437	7.79432e-06	-3.03854e-07	225647
0.0999041	23.2972	2.55808	23.4372	-6.26608	80.2466	0.261852	-0.000670348	622764	7418.88	1	12	0.00500397	0.000213506	0	6.85045e-05	0.0424123	0.00465695	0.0426672	6.26608	7.41888e+06	6.75661e+07	6.79722e+07	-83.7339	0.0000000E+000	0.0000000E+000	0.0000000E+000	83.7339	0.0000000E+000	0.0000000E+000	0.0000000E+000	-83.7339	0.0000000E+000	0.0000000E+000	0.0000000E+000	-6.26608	0.0000000E+000	0.0000000E+000	0.0000000E+000	6.26608	9.10731	83.7339	5.55746e-05	-1.75532e-07	390622
0.0464052	24.191	3.51881	24.4456	-8.27618	156.483	0.26184	-0.000145243	974669	20195.2	1	12	0.00499819	0.000204462	0	0.000150189	0.0404812	0.00588838	0.0409072	8.27618	2.01952e+07	1.38837e+08	1.40299e+08	-81.7238	0.0000000E+000	0.0000000E+000	0.0000000E+000	81.7238	0.0000000E+000	0.0000000E+000	0.0000000E+000	-81.7238	0.0000000E+000	0.0000000E+000	0.0000000E+000	-8.27618	0.0000000E+000	0.0000000E+000	0.0000000E+000	8.27618	6.87476	81.7238	2.2182e-05	-3.80303e-08	1.80278e+06
0.0215268	25.0866	5.6832	25.7223	-12.7645	320.713	0.261841	-0.00209036	1.30091e+06	63506	1	12	0.00500091	0.00019442	0	-0.000225959	0.037916	0.00858962	0.0388768	12.7645	6.3506e+07	2.80326e+08	2.8743e+08	-77.2355	0.0000000E+000	0.0000000E+000	0.0000000E+000	77.2355	0.0000000E+000	0.0000000E+000	0.0000000E+000	-77.2355	0.0000000E+000	0.0000000E+000	0.0000000E+000	-12.7645	0.0000000E+000	0.0000000E+000	0.0000000E+000	12.7645	4.41417	77.2355	-0.000283836	-5.47343e-07	125261
0.0100092	27.0198	9.68815	28.7042	-19.7257	673.931	0.261837	-0.00502805	1.64128e+06	186970	1	12	0.00500126	0.000174235	0	-0.00128503	0.0327938	0.0117585	0.0348381	19.7257	1.8697e+08	5.21451e+08	5.53958e+08	-70.2743	0.0000000E+000	0.0000000E+000	0.0000000E+000	70.2743	0.0000000E+000	0.0000000E+000	0.0000000E+000	-70.2743	0.0000000E+000	0.0000000E+000	0.0000000E+000	-19.7257	0.0000000E+000	0.0000000E+000	0.0000000E+000	19.7257	2.78896	70.2743	-0.000566838	-1.31653e-06	52075.3

File: 17491_R279_UA654_SOC00_C02.mpt
EC-Lab ASCII FILE
Nb header lines : 63

Potentio Electrochemical Impedance Spectroscopy

Run on channel : 2 (SN 66139)
User :
CE vs. WE compliance from -10 V to 10 V
Electrode connection : standard
Potential control : Ewe
Ewe ctrl range : min = -10.00 V, max = 10.00 V
Safety Limits :
	Do not start on E overload
Acquisition started on : 09/15/2025 10:08:12.107
Loaded Setting File :  C:\Users\Celltest\OneDrive - store-dot.com\Documents\EC-Lab\Data\Charmaine\R279\17382_C01.mpr
Saved on :
	File : 17491_C02.mpr
	Directory : C:\Users\Celltest\OneDrive - store-dot.com\Documents\EC-Lab\Data\Charmaine\R279\
	Host : 169.254.61.224
Device : VMP-3e (SN .003165)
Address : USB
EC-LAB for windows v11.62 (software)
Internet server v27.00 (firmware)
Command interpretor v12.03 (firmware)
Electrode material :
Initial state :
Electrolyte :
Comments :
Electrode surface area : 0.001 cm²
Characteristic mass : 0.001 g
Equivalent Weight : 0.000 g/eq.
Density : 0.000 g/cm3
Volume (V) : 0.001 cm³
Cycle Definition : Charge/Discharge alternance
Mode                Single sine
E (V)               0.0000
vs.                 Eoc
tE (h:m:s)          0:00:0.0000
record              0
dI                  0.000
unit dI             mA
dt (s)              0.000
fi                  100.000
unit fi             kHz
ff                  10.000
unit ff             mHz
Nd                  6
Points              per decade
spacing             Logarithmic
Va (mV)             5.0
pw                  0.10
Na                  2
corr                0
E range min (V)     -10.000
E range max (V)     10.000
I Range             Auto
Bandwidth           5
nc cycles           0
goto Ns'            0
nr cycles           0
inc. cycle          0

freq/Hz	Re(Z)/Ohm	-Im(Z)/Ohm	|Z|/Ohm	Phase(Z)/deg	time/s	<Ewe>/V	<I>/mA	Cs/µF	Cp/µF	cycle number	I Range	|Ewe|/V	|I|/A	Ns	(Q-Qo)/mA.h	Re(Y)/Ohm-1	Im(Y)/Ohm-1	|Y|/Ohm-1	Phase(Y)/deg	Re(C)/nF	Im(C)/nF	|C|/nF	Phase(C)/deg	Re(M)	Im(M)	|M|	Phase(M)/deg	Re(Permittivity)	Im(Permittivity)	|Permittivity|	Phase(Permittivity)/deg	Re(Resistivity)/Ohm.cm	Im(Resistivity)/Ohm.cm	|Resistivity|/Ohm.cm	Phase(Resistivity)/deg	Re(Conductivity)/mS/cm	Im(Conductivity)/mS/cm	|Conductivity|/mS/cm	Phase(Conductivity)/deg	Tan(Delta)	Loss Angle(Delta)/deg	dq/mA.h	Pwe/W	Rwe/Ohm
100004	1.01079	0.232471	1.03718	-12.9521	1.86449	0.264822	0.00292616	6.84598	0.343924	1	9	0.00481351	0.00464095	0	-7.82278e-06	0.93962	0.216102	0.964151	12.9521	343.924	1495.4	1534.44	-77.0479	0.0000000E+000	0.0000000E+000	0.0000000E+000	77.0479	0.0000000E+000	0.0000000E+000	0.0000000E+000	-77.0479	0.0000000E+000	0.0000000E+000	0.0000000E+000	-12.9521	0.0000000E+000	0.0000000E+000	0.0000000E+000	12.9521	4.34805	77.0479	-7.82278e-06	7.74911e-07	90501.5
46420.4	1.13043	0.292017	1.16754	-14.4842	3.02048	0.264805	0.00527263	11.7409	0.734472	1	9	0.00505281	0.00432773	0	-1.54364e-05	0.829278	0.214222	0.8565	14.4842	734.472	2843.23	2936.56	-75.5158	0.0000000E+000	0.0000000E+000	0.0000000E+000	75.5158	0.0000000E+000	0.0000000E+000	0.0000000E+000	-75.5158	0.0000000E+000	0.0000000E+000	0.0000000E+000	-14.4842	0.0000000E+000	0.0000000E+000	0.0000000E+000	14.4842	3.87112	75.5158	-8.81853e-06	1.39622e-06	50222.6
21544.7	1.28158	0.37702	1.33589	-16.393	4.0365	0.264802	-0.00215795	19.5937	1.56065	1	9	0.00543202	0.00406622	0	-1.85421e-05	0.718135	0.211264	0.748566	16.393	1560.65	5305.01	5529.81	-73.607	0.0000000E+000	0.0000000E+000	0.0000000E+000	73.607	0.0000000E+000	0.0000000E+000	0.0000000E+000	-73.607	0.0000000E+000	0.0000000E+000	0.0000000E+000	-16.393	0.0000000E+000	0.0000000E+000	0.0000000E+000	16.393	3.39924	73.607	3.24525e-06	-5.71429e-07	122710
10002.2	1.46292	0.481361	1.54008	-18.2134	4.76949	0.264799	0.000542364	33.0561	3.22932	1	9	0.00499874	0.00324578	0	-2.02771e-05	0.616787	0.202949	0.649319	18.2134	3229.32	9814.29	10331.9	-71.7866	0.0000000E+000	0.0000000E+000	0.0000000E+000	71.7866	0.0000000E+000	0.0000000E+000	0.0000000E+000	-71.7866	0.0000000E+000	0.0000000E+000	0.0000000E+000	-18.2134	0.0000000E+000	0.0000000E+000	0.0000000E+000	18.2134	3.03912	71.7866	1.03126e-06	1.43617e-07	488230
4641.49	1.69104	0.628677	1.80412	-20.3936	5.8427	0.264763	0.0149938	54.5426	6.62309	1	9	0.00487562	0.00270249	0	-2.76187e-05	0.519545	0.193151	0.554287	20.3936	6623.09	17815	19006.3	-69.6064	0.0000000E+000	0.0000000E+000	0.0000000E+000	69.6064	0.0000000E+000	0.0000000E+000	0.0000000E+000	-69.6064	0.0000000E+000	0.0000000E+000	0.0000000E+000	-20.3936	0.0000000E+000	0.0000000E+000	0.0000000E+000	20.3936	2.68983	69.6064	2.6278e-06	3.96979e-06	17658.2
2155.69	1.96289	0.852267	2.13993	-23.47	6.7767	0.264758	0.0159994	86.628	13.7408	1	9	0.00474219	0.00221605	0	-2.54797e-05	0.428645	0.186113	0.467305	23.47	13740.8	31646.9	34501.2	-66.53	0.0000000E+000	0.0000000E+000	0.0000000E+000	66.53	0.0000000E+000	0.0000000E+000	0.0000000E+000	-66.53	0.0000000E+000	0.0000000E+000	0.0000000E+000	-23.47	0.0000000E+000	0.0000000E+000	0.0000000E+000	23.47	2.30314	66.53	1.1367e-06	4.23596e-06	16548
1000.32	2.30117	1.24546	2.6166	-28.4235	7.7127	0.264763	0.0129266	127.747	28.9426	1	9	0.00469649	0.00179489	0	-2.2185e-05	0.336106	0.18191	0.382176	28.4235	28942.6	53475.8	60805.7	-61.5765	0.0000000E+000	0.0000000E+000	0.0000000E+000	61.5765	0.0000000E+000	0.0000000E+000	0.0000000E+000	-61.5765	0.0000000E+000	0.0000000E+000	0.0000000E+000	-28.4235	0.0000000E+000	0.0000000E+000	0.0000000E+000	28.4235	1.84765	61.5765	-1.5119e-07	3.42248e-06	20482
463.961	2.80407	1.95591	3.41883	-34.8967	8.90122	0.264772	-0.0289987	175.384	57.4027	1	10	0.00474552	0.00138805	0	-2.32056e-05	0.239902	0.167338	0.292498	34.8967	57402.7	82295	100337	-55.1033	0.0000000E+000	0.0000000E+000	0.0000000E+000	55.1033	0.0000000E+000	0.0000000E+000	0.0000000E+000	-55.1033	0.0000000E+000	0.0000000E+000	0.0000000E+000	-34.8967	0.0000000E+000	0.0000000E+000	0.0000000E+000	34.8967	1.43364	55.1033	-1.96319e-06	-7.67806e-06	9130.49
215.345	3.76882	3.14051	4.9058	-39.8041	9.83543	0.264775	-0.0281326	235.334	96.4424	1	10	0.00469678	0.000957394	0	-3.08702e-05	0.156598	0.130491	0.203841	39.8041	96442.4	115737	150653	-50.1959	0.0000000E+000	0.0000000E+000	0.0000000E+000	50.1959	0.0000000E+000	0.0000000E+000	0.0000000E+000	-50.1959	0.0000000E+000	0.0000000E+000	0.0000000E+000	-39.8041	0.0000000E+000	0.0000000E+000	0.0000000E+000	39.8041	1.20006	50.1959	-3.36631e-06	-7.44881e-06	9411.68
100.032	5.67128	4.69369	7.36167	-39.612	10.7667	0.264777	-0.0284176	338.974	137.798	1	10	0.00468066	0.000635815	0	-3.72932e-05	0.104647	0.0866087	0.135839	39.612	137798	166498	216125	-50.388	0.0000000E+000	0.0000000E+000	0.0000000E+000	50.388	0.0000000E+000	0.0000000E+000	0.0000000E+000	-50.388	0.0000000E+000	0.0000000E+000	0.0000000E+000	-39.612	0.0000000E+000	0.0000000E+000	0.0000000E+000	39.612	1.20828	50.388	-3.18218e-06	-7.52434e-06	9317.38
46.4415	8.87505	5.8919	10.6527	-33.5791	11.7006	0.264761	-0.0305577	581.645	177.928	1	10	0.00466729	0.00043813	0	-4.36371e-05	0.0782074	0.0519197	0.0938725	33.5791	177928	268016	321701	-56.4209	0.0000000E+000	0.0000000E+000	0.0000000E+000	56.4209	0.0000000E+000	0.0000000E+000	0.0000000E+000	-56.4209	0.0000000E+000	0.0000000E+000	0.0000000E+000	-33.5791	0.0000000E+000	0.0000000E+000	0.0000000E+000	33.5791	1.50631	56.4209	-3.29865e-06	-8.0905e-06	8664.29
[...]
1.00006	18.3378	1.81128	18.4271	-5.64097	21.0403	0.264808	-0.0125807	87863.1	848.917	1	12	0.00467025	0.000253445	0	-8.21374e-05	0.0540052	0.00533424	0.054268	5.64097	848917	8.59464e+06	8.63646e+06	-84.359	0.0000000E+000	0.0000000E+000	0.0000000E+000	84.359	0.0000000E+000	0.0000000E+000	0.0000000E+000	-84.359	0.0000000E+000	0.0000000E+000	0.0000000E+000	-5.64097	0.0000000E+000	0.0000000E+000	0.0000000E+000	5.64097	10.1242	84.359	-1.50431e-05	-3.33148e-06	21048.7
0.464091	19.1563	1.7875	19.2395	-5.33091	28.726	0.264809	-0.0112844	191854	1656.06	1	12	0.00467108	0.000242786	0	-0.000131967	0.0517516	0.00482901	0.0519764	5.33091	1.65606e+06	1.77477e+07	1.78248e+07	-84.6691	0.0000000E+000	0.0000000E+000	0.0000000E+000	84.6691	0.0000000E+000	0.0000000E+000	0.0000000E+000	-84.6691	0.0000000E+000	0.0000000E+000	0.0000000E+000	-5.33091	0.0000000E+000	0.0000000E+000	0.0000000E+000	5.33091	10.7168	84.6691	-2.77982e-05	-2.9882e-06	23466.9
0.215268	20.0008	1.9336	20.0941	-5.52197	45.206	0.264806	-0.0106848	382362	3540.56	1	12	0.00467038	0.000232426	0	-0.000170269	0.049535	0.00478885	0.0497659	5.52197	3.54056e+06	3.66229e+07	3.67937e+07	-84.478	0.0000000E+000	0.0000000E+000	0.0000000E+000	84.478	0.0000000E+000	0.0000000E+000	0.0000000E+000	-84.478	0.0000000E+000	0.0000000E+000	0.0000000E+000	-5.52197	0.0000000E+000	0.0000000E+000	0.0000000E+000	5.52197	10.3438	84.478	-1.34075e-05	-2.82941e-06	24783.4
0.0999041	20.7716	2.23316	20.8913	-6.13632	80.6127	0.26481	-0.00719627	713373	8151.28	1	12	0.00467263	0.000223664	0	-0.000152513	0.0475925	0.00511669	0.0478668	6.13632	8.15129e+06	7.58186e+07	7.62555e+07	-83.8637	0.0000000E+000	0.0000000E+000	0.0000000E+000	83.8637	0.0000000E+000	0.0000000E+000	0.0000000E+000	-83.8637	0.0000000E+000	0.0000000E+000	0.0000000E+000	-6.13632	0.0000000E+000	0.0000000E+000	0.0000000E+000	6.13632	9.30143	83.8637	1.52187e-05	-1.90564e-06	36798.2
0.0464052	21.6565	3.18658	21.8897	-8.37055	156.848	0.264801	-0.00219113	1.07629e+06	22808.7	1	12	0.00467251	0.000213457	0	-0.000174734	0.045197	0.00665038	0.0456836	8.37055	2.28086e+07	1.55011e+08	1.5668e+08	-81.6294	0.0000000E+000	0.0000000E+000	0.0000000E+000	81.6294	0.0000000E+000	0.0000000E+000	0.0000000E+000	-81.6294	0.0000000E+000	0.0000000E+000	0.0000000E+000	-8.37055	0.0000000E+000	0.0000000E+000	0.0000000E+000	8.37055	6.79615	81.6294	-3.16723e-05	-5.80213e-07	120852
0.0215268	22.6613	5.21751	23.2542	-12.9657	321.078	0.264801	-0.00119548	1.41703e+06	71334.8	1	12	0.00467191	0.000200906	0	-0.000602686	0.0419066	0.00964852	0.043003	12.9657	7.13348e+07	3.0983e+08	3.17936e+08	-77.0343	0.0000000E+000	0.0000000E+000	0.0000000E+000	77.0343	0.0000000E+000	0.0000000E+000	0.0000000E+000	-77.0343	0.0000000E+000	0.0000000E+000	0.0000000E+000	-12.9657	0.0000000E+000	0.0000000E+000	0.0000000E+000	12.9657	4.34332	77.0343	-0.000289723	-3.16565e-07	221502
0.0100092	24.6819	9.0575	26.2913	-20.1516	674.296	0.264798	-0.00244795	1.75555e+06	208356	1	12	0.0046701	0.000177629	0	-0.00136261	0.035707	0.0131034	0.0380354	20.1516	2.08356e+08	5.67774e+08	6.04798e+08	-69.8484	0.0000000E+000	0.0000000E+000	0.0000000E+000	69.8484	0.0000000E+000	0.0000000E+000	0.0000000E+000	-69.8484	0.0000000E+000	0.0000000E+000	0.0000000E+000	-20.1516	0.0000000E+000	0.0000000E+000	0.0000000E+000	20.1516	2.72502	69.8484	-0.000349373	-6.48214e-07	108171