Folder: EIS/txt (part 52)

File: 17691_R287_UA658_SOC00_C06.mpt
EC-Lab ASCII FILE
Nb header lines : 63

Potentio Electrochemical Impedance Spectroscopy

Run on channel : 6 (SN 65795)
User :
CE vs. WE compliance from -10 V to 10 V
Electrode connection : standard
Potential control : Ewe
Ewe ctrl range : min = -10.00 V, max = 10.00 V
Safety Limits :
	Do not start on E overload
Acquisition started on : 09/22/2025 08:45:21.043
Loaded Setting File :  C:\Users\Celltest\OneDrive - store-dot.com\Documents\EC-Lab\Data\Charmaine\17689_R288_UA670_SOC00_C04.mpr
Saved on :
	File : 17691_R287_UA658_SOC00_C06.mpr
	Directory : C:\Users\Celltest\OneDrive - store-dot.com\Documents\EC-Lab\Data\Charmaine\
	Host : 169.254.61.224
Device : VMP-3e (SN .003165)
Address : USB
EC-LAB for windows v11.62 (software)
Internet server v27.00 (firmware)
Command interpretor v12.03 (firmware)
Electrode material :
Initial state :
Electrolyte :
Comments :
Electrode surface area : 0.001 cm²
Characteristic mass : 0.001 g
Equivalent Weight : 0.000 g/eq.
Density : 0.000 g/cm3
Volume (V) : 0.001 cm³
Cycle Definition : Charge/Discharge alternance
Mode                Single sine
E (V)               0.0000
vs.                 Eoc
tE (h:m:s)          0:00:0.0000
record              0
dI                  0.000
unit dI             mA
dt (s)              0.000
fi                  100.000
unit fi             kHz
ff                  10.000
unit ff             mHz
Nd                  6
Points              per decade
spacing             Logarithmic
Va (mV)             5.0
pw                  0.10
Na                  2
corr                0
E range min (V)     -10.000
E range max (V)     10.000
I Range             Auto
Bandwidth           5
nc cycles           0
goto Ns'            0
nr cycles           0
inc. cycle          0

freq/Hz	Re(Z)/Ohm	-Im(Z)/Ohm	|Z|/Ohm	Phase(Z)/deg	time/s	<Ewe>/V	<I>/mA	Cs/µF	Cp/µF	cycle number	I Range	|Ewe|/V	|I|/A	Ns	(Q-Qo)/mA.h	Re(Y)/Ohm-1	Im(Y)/Ohm-1	|Y|/Ohm-1	Phase(Y)/deg	Re(C)/nF	Im(C)/nF	|C|/nF	Phase(C)/deg	Re(M)	Im(M)	|M|	Phase(M)/deg	Re(Permittivity)	Im(Permittivity)	|Permittivity|	Phase(Permittivity)/deg	Re(Resistivity)/Ohm.cm	Im(Resistivity)/Ohm.cm	|Resistivity|/Ohm.cm	Phase(Resistivity)/deg	Re(Conductivity)/mS/cm	Im(Conductivity)/mS/cm	|Conductivity|/mS/cm	Phase(Conductivity)/deg	Tan(Delta)	Loss Angle(Delta)/deg	dq/mA.h	Pwe/W	Rwe/Ohm
100004	0.980504	0.200364	1.00077	-11.5493	1.86549	0.277747	0.0457176	7.943	0.318389	1	9	0.00475097	0.00474733	0	-5.28556e-06	0.979003	0.200057	0.999234	11.5493	318.389	1558.07	1590.27	-78.4507	0.0000000E+000	0.0000000E+000	0.0000000E+000	78.4507	0.0000000E+000	0.0000000E+000	0.0000000E+000	-78.4507	0.0000000E+000	0.0000000E+000	0.0000000E+000	-11.5493	0.0000000E+000	0.0000000E+000	0.0000000E+000	11.5493	4.89362	78.4507	-5.28556e-06	1.26979e-05	6075.28
46420.4	1.08434	0.251388	1.1131	-13.0525	2.88147	0.277735	0.0464253	13.6385	0.695642	1	9	0.00504935	0.00453629	0	-2.40563e-06	0.875179	0.202896	0.898391	13.0525	695.642	3000.6	3080.19	-76.9475	0.0000000E+000	0.0000000E+000	0.0000000E+000	76.9475	0.0000000E+000	0.0000000E+000	0.0000000E+000	-76.9475	0.0000000E+000	0.0000000E+000	0.0000000E+000	-13.0525	0.0000000E+000	0.0000000E+000	0.0000000E+000	13.0525	4.31343	76.9475	-3.16273e-06	1.28939e-05	5982.4
21544.7	1.21071	0.326154	1.25387	-15.0771	4.03749	0.277716	0.0422533	22.6494	1.5325	1	9	0.00506771	0.00404166	0	3.12704e-05	0.770079	0.207453	0.797532	15.0771	1532.5	5688.73	5891.53	-74.9229	0.0000000E+000	0.0000000E+000	0.0000000E+000	74.9229	0.0000000E+000	0.0000000E+000	0.0000000E+000	-74.9229	0.0000000E+000	0.0000000E+000	0.0000000E+000	-15.0771	0.0000000E+000	0.0000000E+000	0.0000000E+000	15.0771	3.71207	74.9229	1.51816e-05	1.17344e-05	6572.65
10002.2	1.36993	0.422552	1.43362	-17.1422	4.62948	0.277719	0.0467978	37.6568	3.27141	1	9	0.00457401	0.00319053	0	3.60823e-05	0.666548	0.205595	0.697535	17.1422	3271.41	10606.1	11099.1	-72.8578	0.0000000E+000	0.0000000E+000	0.0000000E+000	72.8578	0.0000000E+000	0.0000000E+000	0.0000000E+000	-72.8578	0.0000000E+000	0.0000000E+000	0.0000000E+000	-17.1422	0.0000000E+000	0.0000000E+000	0.0000000E+000	17.1422	3.24205	72.8578	2.30184e-06	1.29966e-05	5934.46
4641.49	1.58166	0.553588	1.67574	-19.2903	5.65571	0.277654	0.0367775	61.9408	6.75987	1	9	0.00466373	0.00278309	0	2.13824e-05	0.563249	0.19714	0.596753	19.2903	6759.87	19313.6	20462.4	-70.7097	0.0000000E+000	0.0000000E+000	0.0000000E+000	70.7097	0.0000000E+000	0.0000000E+000	0.0000000E+000	-70.7097	0.0000000E+000	0.0000000E+000	0.0000000E+000	-19.2903	0.0000000E+000	0.0000000E+000	0.0000000E+000	19.2903	2.8571	70.7097	1.72271e-06	1.02114e-05	7549.56
2155.69	1.85612	0.729517	1.99434	-21.4565	6.58868	0.277653	0.028061	101.204	13.5417	1	9	0.00451669	0.00226475	0	2.99151e-05	0.466669	0.183416	0.501419	21.4565	13541.7	34454.2	37019.9	-68.5435	0.0000000E+000	0.0000000E+000	0.0000000E+000	68.5435	0.0000000E+000	0.0000000E+000	0.0000000E+000	-68.5435	0.0000000E+000	0.0000000E+000	0.0000000E+000	-21.4565	0.0000000E+000	0.0000000E+000	0.0000000E+000	21.4565	2.54432	68.5435	3.14198e-06	7.79121e-06	9894.62
1000.32	2.21101	0.966754	2.41313	-23.6171	7.7477	0.277652	0.0355296	164.576	26.4141	1	9	0.00496043	0.0020556	0	3.63474e-05	0.379691	0.166018	0.4144	23.6171	26414.1	60410.4	65932.7	-66.3829	0.0000000E+000	0.0000000E+000	0.0000000E+000	66.3829	0.0000000E+000	0.0000000E+000	0.0000000E+000	-66.3829	0.0000000E+000	0.0000000E+000	0.0000000E+000	-23.6171	0.0000000E+000	0.0000000E+000	0.0000000E+000	23.6171	2.28705	66.3829	2.86536e-06	9.86488e-06	7814.67
463.961	2.6914	1.31754	2.99659	-26.0835	8.93622	0.277673	-0.0231183	260.36	50.3325	1	10	0.00500579	0.0016705	0	3.79846e-05	0.299725	0.146727	0.333712	26.0835	50332.5	102816	114475	-63.9165	0.0000000E+000	0.0000000E+000	0.0000000E+000	63.9165	0.0000000E+000	0.0000000E+000	0.0000000E+000	-63.9165	0.0000000E+000	0.0000000E+000	0.0000000E+000	-26.0835	0.0000000E+000	0.0000000E+000	0.0000000E+000	26.0835	2.04274	63.9165	-1.99516e-06	-6.41934e-06	12010.9
215.345	3.36513	1.80478	3.81855	-28.2055	9.87044	0.277674	-0.0226414	409.508	91.4773	1	10	0.00495925	0.00129873	0	3.27317e-05	0.230784	0.123773	0.26188	28.2055	91477.3	170565	193548	-61.7945	0.0000000E+000	0.0000000E+000	0.0000000E+000	61.7945	0.0000000E+000	0.0000000E+000	0.0000000E+000	-61.7945	0.0000000E+000	0.0000000E+000	0.0000000E+000	-28.2055	0.0000000E+000	0.0000000E+000	0.0000000E+000	28.2055	1.86457	61.7945	-1.98962e-06	-6.28693e-06	12264
100.032	4.41424	2.415	5.03167	-28.6828	10.8017	0.277681	-0.0224774	658.815	151.766	1	10	0.0049432	0.000982417	0	2.70677e-05	0.174354	0.0953877	0.198741	28.6828	151766	277404	316205	-61.3172	0.0000000E+000	0.0000000E+000	0.0000000E+000	61.3172	0.0000000E+000	0.0000000E+000	0.0000000E+000	-61.3172	0.0000000E+000	0.0000000E+000	0.0000000E+000	-28.6828	0.0000000E+000	0.0000000E+000	0.0000000E+000	28.6828	1.82784	61.3172	-2.87101e-06	-6.24154e-06	12353.8
46.4415	5.93792	2.81428	6.57108	-25.3586	11.7356	0.277678	-0.0234594	1217.72	223.361	1	10	0.00493398	0.000750862	0	2.21334e-05	0.137518	0.0651769	0.152182	25.3586	223361	471275	521527	-64.6414	0.0000000E+000	0.0000000E+000	0.0000000E+000	64.6414	0.0000000E+000	0.0000000E+000	0.0000000E+000	-64.6414	0.0000000E+000	0.0000000E+000	0.0000000E+000	-25.3586	0.0000000E+000	0.0000000E+000	0.0000000E+000	25.3586	2.10993	64.6414	-2.33556e-06	-6.51414e-06	11836.6
[...]
1.00006	11.316	1.21126	11.3807	-6.10964	20.0362	0.277699	-0.0121283	131388	1488.31	1	11	0.00493487	0.000433619	0	-3.00953e-05	0.0873693	0.00935195	0.0878684	6.10964	1.48831e+06	1.39044e+07	1.39838e+07	-83.8904	0.0000000E+000	0.0000000E+000	0.0000000E+000	83.8904	0.0000000E+000	0.0000000E+000	0.0000000E+000	-83.8904	0.0000000E+000	0.0000000E+000	0.0000000E+000	-6.10964	0.0000000E+000	0.0000000E+000	0.0000000E+000	6.10964	9.34236	83.8904	-1.28038e-05	-3.36801e-06	22896.9
0.464091	11.7095	1.20664	11.7715	-5.88347	27.7209	0.277704	-0.0113798	284210	2986.3	1	11	0.00493377	0.00041913	0	-2.2288e-05	0.0845037	0.00870796	0.0849512	5.88347	2.98631e+06	2.89797e+07	2.91331e+07	-84.1165	0.0000000E+000	0.0000000E+000	0.0000000E+000	84.1165	0.0000000E+000	0.0000000E+000	0.0000000E+000	-84.1165	0.0000000E+000	0.0000000E+000	0.0000000E+000	-5.88347	0.0000000E+000	0.0000000E+000	0.0000000E+000	5.88347	9.70419	84.1165	1.12848e-05	-3.16022e-06	24403.2
0.215268	12.1679	1.47822	12.2573	-6.92665	44.201	0.277696	-0.00585567	500154	7274.24	1	11	0.00493339	0.000402485	0	5.40249e-06	0.0809885	0.0098389	0.0815839	6.92665	7.27424e+06	5.98776e+07	6.03178e+07	-83.0733	0.0000000E+000	0.0000000E+000	0.0000000E+000	83.0733	0.0000000E+000	0.0000000E+000	0.0000000E+000	-83.0733	0.0000000E+000	0.0000000E+000	0.0000000E+000	-6.92665	0.0000000E+000	0.0000000E+000	0.0000000E+000	6.92665	8.23145	83.0733	8.37256e-06	-1.6261e-06	47423.5
0.0999041	12.7727	2.19826	12.9605	-9.7653	79.6074	0.277702	-0.00092074	724700	20848.5	1	11	0.00493537	0.000380802	0	-0.000111853	0.0760398	0.0130869	0.0771577	9.7653	2.08485e+07	1.21137e+08	1.22918e+08	-80.2347	0.0000000E+000	0.0000000E+000	0.0000000E+000	80.2347	0.0000000E+000	0.0000000E+000	0.0000000E+000	-80.2347	0.0000000E+000	0.0000000E+000	0.0000000E+000	-9.7653	0.0000000E+000	0.0000000E+000	0.0000000E+000	9.7653	5.81036	80.2347	-8.9787e-05	-2.55691e-07	301607
0.0464052	13.7474	3.33971	14.1472	-13.6546	155.844	0.2777	-0.00240941	1.02694e+06	57229.4	1	11	0.00493335	0.000348714	0	-0.000474452	0.0686873	0.0166865	0.0706852	13.6546	5.72294e+07	2.35576e+08	2.42427e+08	-76.3454	0.0000000E+000	0.0000000E+000	0.0000000E+000	76.3454	0.0000000E+000	0.0000000E+000	0.0000000E+000	-76.3454	0.0000000E+000	0.0000000E+000	0.0000000E+000	-13.6546	0.0000000E+000	0.0000000E+000	0.0000000E+000	13.6546	4.11634	76.3454	-0.000210902	-6.69093e-07	115257
0.0215268	15.0106	5.52125	15.9939	-20.1947	366.627	0.277694	-0.0021248	1.33907e+06	159578	1	12	0.00493108	0.000308311	0	-0.000578456	0.0586804	0.021584	0.062524	20.1947	1.59578e+08	4.33844e+08	4.62262e+08	-69.8053	0.0000000E+000	0.0000000E+000	0.0000000E+000	69.8053	0.0000000E+000	0.0000000E+000	0.0000000E+000	-69.8053	0.0000000E+000	0.0000000E+000	0.0000000E+000	-20.1947	0.0000000E+000	0.0000000E+000	0.0000000E+000	20.1947	2.7187	69.8053	4.66863e-05	-5.90045e-07	130692
0.0100092	16.9254	9.14418	19.2376	-28.3808	719.843	0.27769	-0.00105524	1.73891e+06	392885	1	12	0.00493336	0.000256444	0	0.00049703	0.0457338	0.0247083	0.0519816	28.3808	3.92885e+08	7.27209e+08	8.26554e+08	-61.6192	0.0000000E+000	0.0000000E+000	0.0000000E+000	61.6192	0.0000000E+000	0.0000000E+000	0.0000000E+000	-61.6192	0.0000000E+000	0.0000000E+000	0.0000000E+000	-28.3808	0.0000000E+000	0.0000000E+000	0.0000000E+000	28.3808	1.85095	61.6192	0.000652702	-2.9303e-07	263154

File: 17692_R287_UA658_SOC00_C07.mpt
EC-Lab ASCII FILE
Nb header lines : 63

Potentio Electrochemical Impedance Spectroscopy

Run on channel : 7 (SN 66126)
User :
CE vs. WE compliance from -10 V to 10 V
Electrode connection : standard
Potential control : Ewe
Ewe ctrl range : min = -10.00 V, max = 10.00 V
Safety Limits :
	Do not start on E overload
Acquisition started on : 09/22/2025 08:45:32.408
Loaded Setting File :  C:\Users\Celltest\OneDrive - store-dot.com\Documents\EC-Lab\Data\Charmaine\17689_R288_UA670_SOC00_C04.mpr
Saved on :
	File : 17692_R287_UA658_SOC00_C07.mpr
	Directory : C:\Users\Celltest\OneDrive - store-dot.com\Documents\EC-Lab\Data\Charmaine\
	Host : 169.254.61.224
Device : VMP-3e (SN .003165)
Address : USB
EC-LAB for windows v11.62 (software)
Internet server v27.00 (firmware)
Command interpretor v12.03 (firmware)
Electrode material :
Initial state :
Electrolyte :
Comments :
Electrode surface area : 0.001 cm²
Characteristic mass : 0.001 g
Equivalent Weight : 0.000 g/eq.
Density : 0.000 g/cm3
Volume (V) : 0.001 cm³
Cycle Definition : Charge/Discharge alternance
Mode                Single sine
E (V)               0.0000
vs.                 Eoc
tE (h:m:s)          0:00:0.0000
record              0
dI                  0.000
unit dI             mA
dt (s)              0.000
fi                  100.000
unit fi             kHz
ff                  10.000
unit ff             mHz
Nd                  6
Points              per decade
spacing             Logarithmic
Va (mV)             5.0
pw                  0.10
Na                  2
corr                0
E range min (V)     -10.000
E range max (V)     10.000
I Range             Auto
Bandwidth           5
nc cycles           0
goto Ns'            0
nr cycles           0
inc. cycle          0

freq/Hz	Re(Z)/Ohm	-Im(Z)/Ohm	|Z|/Ohm	Phase(Z)/deg	time/s	<Ewe>/V	<I>/mA	Cs/µF	Cp/µF	cycle number	I Range	|Ewe|/V	|I|/A	Ns	(Q-Qo)/mA.h	Re(Y)/Ohm-1	Im(Y)/Ohm-1	|Y|/Ohm-1	Phase(Y)/deg	Re(C)/nF	Im(C)/nF	|C|/nF	Phase(C)/deg	Re(M)	Im(M)	|M|	Phase(M)/deg	Re(Permittivity)	Im(Permittivity)	|Permittivity|	Phase(Permittivity)/deg	Re(Resistivity)/Ohm.cm	Im(Resistivity)/Ohm.cm	|Resistivity|/Ohm.cm	Phase(Resistivity)/deg	Re(Conductivity)/mS/cm	Im(Conductivity)/mS/cm	|Conductivity|/mS/cm	Phase(Conductivity)/deg	Tan(Delta)	Loss Angle(Delta)/deg	dq/mA.h	Pwe/W	Rwe/Ohm
100004	0.904463	0.176278	0.921481	-11.0286	1.86447	0.276126	0.0550237	9.02829	0.330392	1	9	0.00494918	0.0053709	0	4.94231e-06	1.06517	0.207599	1.08521	11.0286	330.392	1695.2	1727.1	-78.9714	0.0000000E+000	0.0000000E+000	0.0000000E+000	78.9714	0.0000000E+000	0.0000000E+000	0.0000000E+000	-78.9714	0.0000000E+000	0.0000000E+000	0.0000000E+000	-11.0286	0.0000000E+000	0.0000000E+000	0.0000000E+000	11.0286	5.13088	78.9714	4.94231e-06	1.51935e-05	5018.32
46420.4	0.99191	0.212748	1.01447	-12.1055	2.73848	0.276151	0.0545397	16.1156	0.708759	1	9	0.00546287	0.00538496	0	2.77768e-05	0.963818	0.206722	0.985737	12.1055	708.759	3304.51	3379.66	-77.8945	0.0000000E+000	0.0000000E+000	0.0000000E+000	77.8945	0.0000000E+000	0.0000000E+000	0.0000000E+000	-77.8945	0.0000000E+000	0.0000000E+000	0.0000000E+000	-12.1055	0.0000000E+000	0.0000000E+000	0.0000000E+000	12.1055	4.66238	77.8945	7.19721e-06	1.50612e-05	5063.31
21544.7	1.09694	0.271829	1.13012	-13.9179	3.8945	0.276164	0.0588776	27.1759	1.57227	1	9	0.00506631	0.00448299	0	3.15032e-05	0.858884	0.212837	0.884863	13.9179	1572.27	6344.75	6536.66	-76.0821	0.0000000E+000	0.0000000E+000	0.0000000E+000	76.0821	0.0000000E+000	0.0000000E+000	0.0000000E+000	-76.0821	0.0000000E+000	0.0000000E+000	0.0000000E+000	-13.9179	0.0000000E+000	0.0000000E+000	0.0000000E+000	13.9179	4.0354	76.0821	2.24323e-06	1.62599e-05	4690.48
10002.2	1.22683	0.350411	1.27589	-15.9405	4.48649	0.27616	0.0575929	45.4094	3.42509	1	9	0.00471881	0.00369843	0	4.22489e-05	0.753626	0.215252	0.783764	15.9405	3425.09	11991.7	12471.2	-74.0595	0.0000000E+000	0.0000000E+000	0.0000000E+000	74.0595	0.0000000E+000	0.0000000E+000	0.0000000E+000	-74.0595	0.0000000E+000	0.0000000E+000	0.0000000E+000	-15.9405	0.0000000E+000	0.0000000E+000	0.0000000E+000	15.9405	3.50113	74.0595	3.34356e-06	1.59048e-05	4795.03
4641.49	1.39774	0.462021	1.47212	-18.2912	5.51271	0.276073	0.0178806	74.2167	7.31032	1	9	0.00472057	0.00320664	0	4.0164e-05	0.644969	0.213193	0.679291	18.2912	7310.32	22115.8	23292.7	-71.7088	0.0000000E+000	0.0000000E+000	0.0000000E+000	71.7088	0.0000000E+000	0.0000000E+000	0.0000000E+000	-71.7088	0.0000000E+000	0.0000000E+000	0.0000000E+000	-18.2912	0.0000000E+000	0.0000000E+000	0.0000000E+000	18.2912	3.02528	71.7088	8.79997e-07	4.93635e-06	15439.7
2155.69	1.61777	0.610712	1.72921	-20.6816	6.44671	0.276065	0.0160561	120.892	15.0791	1	9	0.00457245	0.00264424	0	4.52924e-05	0.541032	0.20424	0.578299	20.6816	15079.1	39944.5	42695.9	-69.3184	0.0000000E+000	0.0000000E+000	0.0000000E+000	69.3184	0.0000000E+000	0.0000000E+000	0.0000000E+000	-69.3184	0.0000000E+000	0.0000000E+000	0.0000000E+000	-20.6816	0.0000000E+000	0.0000000E+000	0.0000000E+000	20.6816	2.649	69.3184	3.02001e-06	4.43253e-06	17193.8
1000.32	1.89368	0.831217	2.06808	-23.6987	7.3827	0.276064	0.0151996	191.411	30.9215	1	9	0.0045253	0.00218816	0	4.90036e-05	0.442764	0.194347	0.48354	23.6987	30921.5	70445.5	76933.1	-66.3013	0.0000000E+000	0.0000000E+000	0.0000000E+000	66.3013	0.0000000E+000	0.0000000E+000	0.0000000E+000	-66.3013	0.0000000E+000	0.0000000E+000	0.0000000E+000	-23.6987	0.0000000E+000	0.0000000E+000	0.0000000E+000	23.6987	2.27821	66.3013	3.35001e-06	4.19607e-06	18162.6
463.961	2.29017	1.19751	2.58436	-27.6047	8.54121	0.276072	0.0141942	286.457	61.5052	1	9	0.00499298	0.001932	0	5.15727e-05	0.342896	0.179297	0.386943	27.6047	61505.2	117625	132735	-62.3953	0.0000000E+000	0.0000000E+000	0.0000000E+000	62.3953	0.0000000E+000	0.0000000E+000	0.0000000E+000	-62.3953	0.0000000E+000	0.0000000E+000	0.0000000E+000	-27.6047	0.0000000E+000	0.0000000E+000	0.0000000E+000	27.6047	1.91244	62.3953	2.56664e-06	3.91863e-06	19449.6
215.345	2.93328	1.72358	3.40219	-30.4382	9.72841	0.276116	-0.0252116	428.8	110.053	1	10	0.0050085	0.00147214	0	4.70533e-05	0.253418	0.148907	0.293928	30.4382	110053	187294	217234	-59.5618	0.0000000E+000	0.0000000E+000	0.0000000E+000	59.5618	0.0000000E+000	0.0000000E+000	0.0000000E+000	-59.5618	0.0000000E+000	0.0000000E+000	0.0000000E+000	-30.4382	0.0000000E+000	0.0000000E+000	0.0000000E+000	30.4382	1.70186	59.5618	-2.76466e-06	-6.96132e-06	10951.9
100.032	3.96922	2.32936	4.60224	-30.4069	10.6597	0.276114	-0.0246997	683.037	174.977	1	10	0.00499456	0.00108525	0	3.96546e-05	0.187399	0.109976	0.217286	30.4069	174977	298159	345710	-59.5931	0.0000000E+000	0.0000000E+000	0.0000000E+000	59.5931	0.0000000E+000	0.0000000E+000	0.0000000E+000	-59.5931	0.0000000E+000	0.0000000E+000	0.0000000E+000	-30.4069	0.0000000E+000	0.0000000E+000	0.0000000E+000	30.4069	1.70399	59.5931	-3.75266e-06	-6.81994e-06	11178.8
46.4415	5.43827	2.70553	6.0741	-26.4503	11.5936	0.276103	-0.0274862	1266.66	251.306	1	10	0.00497674	0.000819338	0	3.25733e-05	0.1474	0.0733312	0.164634	26.4503	251306	505139	564198	-63.5497	0.0000000E+000	0.0000000E+000	0.0000000E+000	63.5497	0.0000000E+000	0.0000000E+000	0.0000000E+000	-63.5497	0.0000000E+000	0.0000000E+000	0.0000000E+000	-26.4503	0.0000000E+000	0.0000000E+000	0.0000000E+000	26.4503	2.01006	63.5497	-3.8503e-06	-7.58904e-06	10045.1
[...]
1.00006	10.5582	1.16064	10.6218	-6.2732	19.8942	0.27615	-0.00891852	137118	1637.16	1	11	0.00498407	0.000469229	0	7.72374e-06	0.093582	0.0102872	0.0941457	6.2732	1.63716e+06	1.48931e+07	1.49828e+07	-83.7268	0.0000000E+000	0.0000000E+000	0.0000000E+000	83.7268	0.0000000E+000	0.0000000E+000	0.0000000E+000	-83.7268	0.0000000E+000	0.0000000E+000	0.0000000E+000	-6.2732	0.0000000E+000	0.0000000E+000	0.0000000E+000	6.2732	9.0969	83.7268	-1.27029e-05	-2.46285e-06	30963.6
0.464091	10.9363	1.13174	10.9947	-5.90824	27.5789	0.276147	-0.00777271	303019	3210.71	1	11	0.00498248	0.000453173	0	-5.6392e-05	0.0904701	0.00936233	0.0909533	5.90824	3.21071e+06	3.10258e+07	3.11915e+07	-84.0918	0.0000000E+000	0.0000000E+000	0.0000000E+000	84.0918	0.0000000E+000	0.0000000E+000	0.0000000E+000	-84.0918	0.0000000E+000	0.0000000E+000	0.0000000E+000	-5.90824	0.0000000E+000	0.0000000E+000	0.0000000E+000	5.90824	9.66321	84.0918	-3.73961e-05	-2.14641e-06	35527.8
0.215268	11.359	1.43892	11.4498	-7.21959	44.059	0.276148	-0.00906588	513810	8114.9	1	11	0.00498477	0.000435358	0	-9.36422e-05	0.0866453	0.010976	0.0873378	7.21959	8.1149e+06	6.40599e+07	6.45718e+07	-82.7804	0.0000000E+000	0.0000000E+000	0.0000000E+000	82.7804	0.0000000E+000	0.0000000E+000	0.0000000E+000	-82.7804	0.0000000E+000	0.0000000E+000	0.0000000E+000	-7.21959	0.0000000E+000	0.0000000E+000	0.0000000E+000	7.21959	7.89411	82.7804	-5.75746e-06	-2.50353e-06	30460.2
0.0999041	11.8966	2.05726	12.0732	-9.81102	79.4646	0.276167	-0.00431063	774367	22484.4	1	11	0.00498121	0.000412584	0	3.44017e-05	0.0816167	0.0141138	0.082828	9.81102	2.24844e+07	1.30022e+08	1.31951e+08	-80.189	0.0000000E+000	0.0000000E+000	0.0000000E+000	80.189	0.0000000E+000	0.0000000E+000	0.0000000E+000	-80.189	0.0000000E+000	0.0000000E+000	0.0000000E+000	-9.81102	0.0000000E+000	0.0000000E+000	0.0000000E+000	9.81102	5.78275	80.189	8.80973e-05	-1.19046e-06	64066.6
0.0464052	12.8065	3.22834	13.2071	-14.1487	155.701	0.276162	0.00151302	1.06237e+06	63476.9	1	11	0.0049867	0.000377576	0	0.000186037	0.0734198	0.0185081	0.0757167	14.1487	6.34769e+07	2.51806e+08	2.59684e+08	-75.8513	0.0000000E+000	0.0000000E+000	0.0000000E+000	75.8513	0.0000000E+000	0.0000000E+000	0.0000000E+000	-75.8513	0.0000000E+000	0.0000000E+000	0.0000000E+000	-14.1487	0.0000000E+000	0.0000000E+000	0.0000000E+000	14.1487	3.9669	75.8513	4.93572e-05	4.17838e-07	182524
0.0215268	13.8811	5.20346	14.8243	-20.549	319.932	0.27617	0.000935335	1.42085e+06	175058	1	11	0.00498336	0.000336161	0	-0.000340804	0.0631646	0.0236778	0.0674567	20.549	1.75058e+08	4.66998e+08	4.98731e+08	-69.451	0.0000000E+000	0.0000000E+000	0.0000000E+000	69.451	0.0000000E+000	0.0000000E+000	0.0000000E+000	-69.451	0.0000000E+000	0.0000000E+000	0.0000000E+000	-20.549	0.0000000E+000	0.0000000E+000	0.0000000E+000	20.549	2.66767	69.451	-0.00039922	2.58311e-07	295263
0.0100092	15.77	8.78375	18.0512	-29.1174	741.391	0.276178	-0.00175415	1.81027e+06	428635	1	12	0.00498188	0.000275985	0	-0.00142324	0.0483969	0.0269566	0.0553978	29.1174	4.28635e+08	7.69555e+08	8.80876e+08	-60.8826	0.0000000E+000	0.0000000E+000	0.0000000E+000	60.8826	0.0000000E+000	0.0000000E+000	0.0000000E+000	-60.8826	0.0000000E+000	0.0000000E+000	0.0000000E+000	-29.1174	0.0000000E+000	0.0000000E+000	0.0000000E+000	29.1174	1.79536	60.8826	-0.00046524	-4.84458e-07	157443