Folder: EIS/txt (part 62)

File: 17712_R287_UA663_SOC00_C02.mpt
EC-Lab ASCII FILE
Nb header lines : 63

Potentio Electrochemical Impedance Spectroscopy

Run on channel : 2 (SN 66139)
User :
CE vs. WE compliance from -10 V to 10 V
Electrode connection : standard
Potential control : Ewe
Ewe ctrl range : min = -10.00 V, max = 10.00 V
Safety Limits :
	Do not start on E overload
Acquisition started on : 09/22/2025 10:25:05.396
Loaded Setting File :  C:\Users\Celltest\OneDrive - store-dot.com\Documents\EC-Lab\Data\Gyutae\17737_R277_UA674_SOC00_C01.mpr
Saved on :
	File : 17712_R287_UA663_SOC00_C02.mpr
	Directory : C:\Users\Celltest\OneDrive - store-dot.com\Documents\EC-Lab\Data\Charmaine\
	Host : 169.254.61.224
Device : VMP-3e (SN .003165)
Address : USB
EC-LAB for windows v11.62 (software)
Internet server v27.00 (firmware)
Command interpretor v12.03 (firmware)
Electrode material :
Initial state :
Electrolyte :
Comments :
Electrode surface area : 0.001 cm²
Characteristic mass : 0.001 g
Equivalent Weight : 0.000 g/eq.
Density : 0.000 g/cm3
Volume (V) : 0.001 cm³
Cycle Definition : Charge/Discharge alternance
Mode                Single sine
E (V)               0.0000
vs.                 Eoc
tE (h:m:s)          0:00:0.0000
record              0
dI                  0.000
unit dI             mA
dt (s)              0.000
fi                  100.000
unit fi             kHz
ff                  10.000
unit ff             mHz
Nd                  6
Points              per decade
spacing             Logarithmic
Va (mV)             5.0
pw                  0.10
Na                  2
corr                0
E range min (V)     -10.000
E range max (V)     10.000
I Range             Auto
Bandwidth           5
nc cycles           0
goto Ns'            0
nr cycles           0
inc. cycle          0

freq/Hz	Re(Z)/Ohm	-Im(Z)/Ohm	|Z|/Ohm	Phase(Z)/deg	time/s	<Ewe>/V	<I>/mA	Cs/µF	Cp/µF	cycle number	I Range	|Ewe|/V	|I|/A	Ns	(Q-Qo)/mA.h	Re(Y)/Ohm-1	Im(Y)/Ohm-1	|Y|/Ohm-1	Phase(Y)/deg	Re(C)/nF	Im(C)/nF	|C|/nF	Phase(C)/deg	Re(M)	Im(M)	|M|	Phase(M)/deg	Re(Permittivity)	Im(Permittivity)	|Permittivity|	Phase(Permittivity)/deg	Re(Resistivity)/Ohm.cm	Im(Resistivity)/Ohm.cm	|Resistivity|/Ohm.cm	Phase(Resistivity)/deg	Re(Conductivity)/mS/cm	Im(Conductivity)/mS/cm	|Conductivity|/mS/cm	Phase(Conductivity)/deg	Tan(Delta)	Loss Angle(Delta)/deg	dq/mA.h	Pwe/W	Rwe/Ohm
100004	1.14411	0.225652	1.16615	-11.1572	2.22748	0.270687	0.0176196	7.05286	0.264078	1	9	0.00495977	0.00425311	0	-1.8418e-06	0.841314	0.165931	0.857521	11.1572	264.078	1338.94	1364.74	-78.8428	0.0000000E+000	0.0000000E+000	0.0000000E+000	78.8428	0.0000000E+000	0.0000000E+000	0.0000000E+000	-78.8428	0.0000000E+000	0.0000000E+000	0.0000000E+000	-11.1572	0.0000000E+000	0.0000000E+000	0.0000000E+000	11.1572	5.07026	78.8428	-1.8418e-06	4.76941e-06	15362.8
46420.4	1.25876	0.271438	1.28769	-12.1689	3.38349	0.27066	0.0209345	12.6311	0.561256	1	9	0.00505643	0.00392675	0	-6.84487e-06	0.759135	0.1637	0.776585	12.1689	561.255	2602.74	2662.57	-77.8311	0.0000000E+000	0.0000000E+000	0.0000000E+000	77.8311	0.0000000E+000	0.0000000E+000	0.0000000E+000	-77.8311	0.0000000E+000	0.0000000E+000	0.0000000E+000	-12.1689	0.0000000E+000	0.0000000E+000	0.0000000E+000	12.1689	4.63736	77.8311	-1.027e-05	5.66614e-06	12928.9
21544.7	1.38919	0.34245	1.43078	-13.8479	4.39848	0.270666	0.0137833	21.5716	1.23576	1	9	0.00539418	0.00377011	0	7.15214e-06	0.678607	0.167284	0.698921	13.8479	1235.76	5013	5163.07	-76.1521	0.0000000E+000	0.0000000E+000	0.0000000E+000	76.1521	0.0000000E+000	0.0000000E+000	0.0000000E+000	-76.1521	0.0000000E+000	0.0000000E+000	0.0000000E+000	-13.8479	0.0000000E+000	0.0000000E+000	0.0000000E+000	13.8479	4.05662	76.1521	5.00809e-06	3.73066e-06	19637.2
10002.2	1.54154	0.443925	1.60419	-16.065	5.13149	0.270662	0.013355	35.8438	2.74487	1	9	0.00492897	0.00307256	0	1.55528e-05	0.599024	0.172503	0.623368	16.065	2744.87	9531.64	9919	-73.935	0.0000000E+000	0.0000000E+000	0.0000000E+000	73.935	0.0000000E+000	0.0000000E+000	0.0000000E+000	-73.935	0.0000000E+000	0.0000000E+000	0.0000000E+000	-16.065	0.0000000E+000	0.0000000E+000	0.0000000E+000	16.065	3.47253	73.935	4.55214e-06	3.61468e-06	20266.8
4641.49	1.72576	0.61442	1.83187	-19.5972	6.20369	0.270649	0.0331698	55.8082	6.27824	1	9	0.00485904	0.0026525	0	1.31205e-05	0.514268	0.183094	0.54589	19.5972	6278.24	17634.1	18718.4	-70.4028	0.0000000E+000	0.0000000E+000	0.0000000E+000	70.4028	0.0000000E+000	0.0000000E+000	0.0000000E+000	-70.4028	0.0000000E+000	0.0000000E+000	0.0000000E+000	-19.5972	0.0000000E+000	0.0000000E+000	0.0000000E+000	19.5972	2.80876	70.4028	7.17313e-06	8.97737e-06	8159.51
2155.69	1.9705	0.918556	2.17408	-24.9928	7.13669	0.270649	0.0320151	80.3763	14.3479	1	9	0.0047347	0.0021778	0	2.05252e-05	0.416894	0.194337	0.459965	24.9928	14347.9	30779.4	33959.3	-65.0072	0.0000000E+000	0.0000000E+000	0.0000000E+000	65.0072	0.0000000E+000	0.0000000E+000	0.0000000E+000	-65.0072	0.0000000E+000	0.0000000E+000	0.0000000E+000	-24.9928	0.0000000E+000	0.0000000E+000	0.0000000E+000	24.9928	2.14522	65.0072	5.24038e-06	8.66485e-06	8453.77
1000.32	2.32923	1.44311	2.74005	-31.7809	8.07271	0.270658	0.0382166	110.251	30.5818	1	9	0.00469221	0.00171246	0	2.81323e-05	0.310239	0.192213	0.364957	31.7809	30581.8	49360.2	58066.2	-58.2191	0.0000000E+000	0.0000000E+000	0.0000000E+000	58.2191	0.0000000E+000	0.0000000E+000	0.0000000E+000	-58.2191	0.0000000E+000	0.0000000E+000	0.0000000E+000	-31.7809	0.0000000E+000	0.0000000E+000	0.0000000E+000	31.7809	1.61404	58.2191	2.5032e-06	1.03436e-05	7082.22
463.961	2.96483	2.3175	3.76311	-38.0135	9.2612	0.270646	-0.0182328	148.019	56.139	1	10	0.00474152	0.00126	0	2.59028e-05	0.209365	0.163654	0.265738	38.0135	56139	71819.8	91157.4	-51.9865	0.0000000E+000	0.0000000E+000	0.0000000E+000	51.9865	0.0000000E+000	0.0000000E+000	0.0000000E+000	-51.9865	0.0000000E+000	0.0000000E+000	0.0000000E+000	-38.0135	0.0000000E+000	0.0000000E+000	0.0000000E+000	38.0135	1.27932	51.9865	-2.31959e-06	-4.93464e-06	14843.9
215.345	4.10738	3.66811	5.50687	-41.7666	10.1954	0.270644	-0.0182496	201.486	89.3963	1	10	0.00468895	0.000851473	0	2.02181e-05	0.135443	0.120958	0.181591	41.7666	89396.3	100102	134209	-48.2334	0.0000000E+000	0.0000000E+000	0.0000000E+000	48.2334	0.0000000E+000	0.0000000E+000	0.0000000E+000	-48.2334	0.0000000E+000	0.0000000E+000	0.0000000E+000	-41.7666	0.0000000E+000	0.0000000E+000	0.0000000E+000	41.7666	1.11975	48.2334	-2.74508e-06	-4.93914e-06	14830.1
100.032	6.12222	5.48775	8.22174	-41.872	11.1267	0.270635	-0.0178529	289.926	129.166	1	10	0.0046694	0.000567933	0	1.67846e-05	0.0905694	0.0811834	0.121629	41.872	129166	144100	193516	-48.128	0.0000000E+000	0.0000000E+000	0.0000000E+000	48.128	0.0000000E+000	0.0000000E+000	0.0000000E+000	-48.128	0.0000000E+000	0.0000000E+000	0.0000000E+000	-41.872	0.0000000E+000	0.0000000E+000	0.0000000E+000	41.872	1.11562	48.128	-1.55159e-06	-4.83161e-06	15159.2
46.4415	9.52318	7.44495	12.0879	-38.0173	12.0605	0.270637	-0.0207157	460.311	174.611	1	10	0.00466458	0.000385887	0	1.31246e-05	0.0651745	0.0509516	0.0827271	38.0173	174611	223353	283505	-51.9827	0.0000000E+000	0.0000000E+000	0.0000000E+000	51.9827	0.0000000E+000	0.0000000E+000	0.0000000E+000	-51.9827	0.0000000E+000	0.0000000E+000	0.0000000E+000	-38.0173	0.0000000E+000	0.0000000E+000	0.0000000E+000	38.0173	1.27915	51.9827	-2.1495e-06	-5.60643e-06	13064.3
[...]
1.00006	28.68	4.70399	29.0632	-9.31453	21.3822	0.270682	-0.0060901	33831.8	886.284	1	12	0.00466885	0.000160645	0	-8.58803e-06	0.0339541	0.00556904	0.0344078	9.31453	886284	5.40362e+06	5.47582e+06	-80.6855	0.0000000E+000	0.0000000E+000	0.0000000E+000	80.6855	0.0000000E+000	0.0000000E+000	0.0000000E+000	-80.6855	0.0000000E+000	0.0000000E+000	0.0000000E+000	-9.31453	0.0000000E+000	0.0000000E+000	0.0000000E+000	9.31453	6.09694	80.6855	-2.27195e-06	-1.64848e-06	44446.2
0.464091	30.5856	3.87455	30.8301	-7.21969	29.0669	0.270679	-0.00544559	88510.9	1397.94	1	12	0.00466654	0.000151363	0	-5.91857e-06	0.0321787	0.00407635	0.0324359	7.21969	1.39794e+06	1.10353e+07	1.11235e+07	-82.7803	0.0000000E+000	0.0000000E+000	0.0000000E+000	82.7803	0.0000000E+000	0.0000000E+000	0.0000000E+000	-82.7803	0.0000000E+000	0.0000000E+000	0.0000000E+000	-7.21969	0.0000000E+000	0.0000000E+000	0.0000000E+000	7.21969	7.89399	82.7803	5.13255e-07	-1.474e-06	49706
0.215268	32.0949	3.53439	32.2889	-6.28427	45.547	0.270673	-0.00390451	209183	2506.39	1	12	0.00466837	0.000144581	0	-3.62667e-05	0.0307843	0.00339006	0.0309704	6.28427	2.50639e+06	2.27599e+07	2.28975e+07	-83.7157	0.0000000E+000	0.0000000E+000	0.0000000E+000	83.7157	0.0000000E+000	0.0000000E+000	0.0000000E+000	-83.7157	0.0000000E+000	0.0000000E+000	0.0000000E+000	-6.28427	0.0000000E+000	0.0000000E+000	0.0000000E+000	6.28427	9.08075	83.7157	-2.24808e-05	-1.05685e-06	69323.3
0.0999041	33.4545	3.73364	33.6622	-6.36804	80.9536	0.270672	-0.00336322	426683	5249.07	1	12	0.00466713	0.000138646	0	-0.000133485	0.0295236	0.00329493	0.0297069	6.36804	5.24907e+06	4.70333e+07	4.73253e+07	-83.632	0.0000000E+000	0.0000000E+000	0.0000000E+000	83.632	0.0000000E+000	0.0000000E+000	0.0000000E+000	-83.632	0.0000000E+000	0.0000000E+000	0.0000000E+000	-6.36804	0.0000000E+000	0.0000000E+000	0.0000000E+000	6.36804	8.96031	83.632	-5.63111e-05	-9.1033e-07	80479.9
0.0464052	34.9954	5.02922	35.355	-8.17803	157.189	0.270675	-0.00319324	681950	13799.2	1	12	0.00466742	0.000132016	0	-0.000229575	0.0279969	0.00402347	0.0282846	8.17803	1.37992e+07	9.60206e+07	9.7007e+07	-81.822	0.0000000E+000	0.0000000E+000	0.0000000E+000	81.822	0.0000000E+000	0.0000000E+000	0.0000000E+000	-81.822	0.0000000E+000	0.0000000E+000	0.0000000E+000	-8.17803	0.0000000E+000	0.0000000E+000	0.0000000E+000	8.17803	6.95841	81.822	-3.61098e-05	-8.64329e-07	84764.8
0.0215268	36.7695	7.56593	37.5399	-11.6272	321.42	0.270668	-0.00206881	977190	39693.3	1	12	0.00466786	0.000124344	0	-0.000105709	0.0260917	0.00536879	0.0266383	11.6272	3.96933e+07	1.92905e+08	1.96946e+08	-78.3728	0.0000000E+000	0.0000000E+000	0.0000000E+000	78.3728	0.0000000E+000	0.0000000E+000	0.0000000E+000	-78.3728	0.0000000E+000	0.0000000E+000	0.0000000E+000	-11.6272	0.0000000E+000	0.0000000E+000	0.0000000E+000	11.6272	4.85989	78.3728	0.000100907	-5.59961e-07	130832
0.0100092	39.9949	12.1306	41.7941	-16.8727	674.637	0.270653	-0.000307049	1.31081e+06	110427	1	12	0.0046695	0.000111727	0	0.000140695	0.0228968	0.00694467	0.0239268	16.8727	1.10427e+08	3.64081e+08	3.80459e+08	-73.1273	0.0000000E+000	0.0000000E+000	0.0000000E+000	73.1273	0.0000000E+000	0.0000000E+000	0.0000000E+000	-73.1273	0.0000000E+000	0.0000000E+000	0.0000000E+000	-16.8727	0.0000000E+000	0.0000000E+000	0.0000000E+000	16.8727	3.29704	73.1273	9.22491e-05	-8.31037e-08	881465

File: 17713_R287_UA663_SOC00_C03.mpt
EC-Lab ASCII FILE
Nb header lines : 63

Potentio Electrochemical Impedance Spectroscopy

Run on channel : 3 (SN 65921)
User :
CE vs. WE compliance from -10 V to 10 V
Electrode connection : standard
Potential control : Ewe
Ewe ctrl range : min = -10.00 V, max = 10.00 V
Safety Limits :
	Do not start on E overload
Acquisition started on : 09/22/2025 10:25:12.037
Loaded Setting File :  C:\Users\Celltest\OneDrive - store-dot.com\Documents\EC-Lab\Data\Gyutae\17738_R277_UA674_SOC00_C02.mpr
Saved on :
	File : 17713_R287_UA663_SOC00_C03.mpr
	Directory : C:\Users\Celltest\OneDrive - store-dot.com\Documents\EC-Lab\Data\Charmaine\
	Host : 169.254.61.224
Device : VMP-3e (SN .003165)
Address : USB
EC-LAB for windows v11.62 (software)
Internet server v27.00 (firmware)
Command interpretor v12.03 (firmware)
Electrode material :
Initial state :
Electrolyte :
Comments :
Electrode surface area : 0.001 cm²
Characteristic mass : 0.001 g
Equivalent Weight : 0.000 g/eq.
Density : 0.000 g/cm3
Volume (V) : 0.001 cm³
Cycle Definition : Charge/Discharge alternance
Mode                Single sine
E (V)               0.0000
vs.                 Eoc
tE (h:m:s)          0:00:0.0000
record              0
dI                  0.000
unit dI             mA
dt (s)              0.000
fi                  100.000
unit fi             kHz
ff                  10.000
unit ff             mHz
Nd                  6
Points              per decade
spacing             Logarithmic
Va (mV)             5.0
pw                  0.10
Na                  2
corr                0
E range min (V)     -10.000
E range max (V)     10.000
I Range             Auto
Bandwidth           5
nc cycles           0
goto Ns'            0
nr cycles           0
inc. cycle          0

freq/Hz	Re(Z)/Ohm	-Im(Z)/Ohm	|Z|/Ohm	Phase(Z)/deg	time/s	<Ewe>/V	<I>/mA	Cs/µF	Cp/µF	cycle number	I Range	|Ewe|/V	|I|/A	Ns	(Q-Qo)/mA.h	Re(Y)/Ohm-1	Im(Y)/Ohm-1	|Y|/Ohm-1	Phase(Y)/deg	Re(C)/nF	Im(C)/nF	|C|/nF	Phase(C)/deg	Re(M)	Im(M)	|M|	Phase(M)/deg	Re(Permittivity)	Im(Permittivity)	|Permittivity|	Phase(Permittivity)/deg	Re(Resistivity)/Ohm.cm	Im(Resistivity)/Ohm.cm	|Resistivity|/Ohm.cm	Phase(Resistivity)/deg	Re(Conductivity)/mS/cm	Im(Conductivity)/mS/cm	|Conductivity|/mS/cm	Phase(Conductivity)/deg	Tan(Delta)	Loss Angle(Delta)/deg	dq/mA.h	Pwe/W	Rwe/Ohm
100004	1.00117	0.211663	1.0233	-11.9374	2.02449	0.278574	0.0349937	7.51898	0.321694	1	9	0.00492813	0.00481592	0	9.03675e-06	0.956096	0.202134	0.97723	11.9374	321.694	1521.62	1555.25	-78.0626	0.0000000E+000	0.0000000E+000	0.0000000E+000	78.0626	0.0000000E+000	0.0000000E+000	0.0000000E+000	-78.0626	0.0000000E+000	0.0000000E+000	0.0000000E+000	-11.9374	0.0000000E+000	0.0000000E+000	0.0000000E+000	11.9374	4.73002	78.0626	9.03675e-06	9.74831e-06	7960.69
46420.4	1.105	0.260022	1.13518	-13.2416	2.89848	0.278544	0.0335392	13.1856	0.691819	1	9	0.00537497	0.00473491	0	2.03617e-05	0.857497	0.201781	0.880918	13.2416	691.819	2939.98	3020.28	-76.7584	0.0000000E+000	0.0000000E+000	0.0000000E+000	76.7584	0.0000000E+000	0.0000000E+000	0.0000000E+000	-76.7584	0.0000000E+000	0.0000000E+000	0.0000000E+000	-13.2416	0.0000000E+000	0.0000000E+000	0.0000000E+000	13.2416	4.24963	76.7584	6.09218e-06	9.34216e-06	8305.04
21544.7	1.22936	0.330776	1.27309	-15.0595	3.77448	0.278551	0.0360565	22.3329	1.50764	1	9	0.00537059	0.00421856	0	3.31523e-05	0.758516	0.204088	0.785493	15.0595	1507.64	5603.31	5802.59	-74.9405	0.0000000E+000	0.0000000E+000	0.0000000E+000	74.9405	0.0000000E+000	0.0000000E+000	0.0000000E+000	-74.9405	0.0000000E+000	0.0000000E+000	0.0000000E+000	-15.0595	0.0000000E+000	0.0000000E+000	0.0000000E+000	15.0595	3.71661	74.9405	5.48899e-06	1.00436e-05	7725.41
10002.2	1.37102	0.43258	1.43764	-17.5114	4.6485	0.278563	0.0310591	36.7839	3.33035	1	9	0.00534227	0.003716	0	3.65101e-05	0.663349	0.209298	0.695585	17.5114	3330.35	10555.2	11068.1	-72.4886	0.0000000E+000	0.0000000E+000	0.0000000E+000	72.4886	0.0000000E+000	0.0000000E+000	0.0000000E+000	-72.4886	0.0000000E+000	0.0000000E+000	0.0000000E+000	-17.5114	0.0000000E+000	0.0000000E+000	0.0000000E+000	17.5114	3.16939	72.4886	2.38452e-06	8.65194e-06	8968.8
4641.49	1.55358	0.605937	1.66756	-21.3071	5.89669	0.278556	0.0401215	56.5894	7.47182	1	9	0.00519717	0.00311662	0	5.54045e-05	0.558687	0.217903	0.599677	21.3071	7471.82	19157.2	20562.7	-68.6929	0.0000000E+000	0.0000000E+000	0.0000000E+000	68.6929	0.0000000E+000	0.0000000E+000	0.0000000E+000	-68.6929	0.0000000E+000	0.0000000E+000	0.0000000E+000	-21.3071	0.0000000E+000	0.0000000E+000	0.0000000E+000	21.3071	2.56393	68.6929	8.54283e-06	1.11761e-05	6942.81
2155.69	1.79638	0.913436	2.01528	-26.9527	7.05369	0.278556	0.0423591	80.8269	16.6051	1	9	0.00518143	0.00257107	0	6.53967e-05	0.442311	0.22491	0.496209	26.9527	16605.1	32655.9	36635.2	-63.0473	0.0000000E+000	0.0000000E+000	0.0000000E+000	63.0473	0.0000000E+000	0.0000000E+000	0.0000000E+000	-63.0473	0.0000000E+000	0.0000000E+000	0.0000000E+000	-26.9527	0.0000000E+000	0.0000000E+000	0.0000000E+000	26.9527	1.96662	63.0473	4.79673e-06	1.17994e-05	6576.06
1000.32	2.17557	1.44682	2.61273	-33.6251	7.98967	0.278564	0.0357022	109.968	33.7214	1	9	0.00499333	0.00191115	0	7.539e-05	0.3187	0.211945	0.382741	33.6251	33721.4	50706.5	60895.6	-56.3749	0.0000000E+000	0.0000000E+000	0.0000000E+000	56.3749	0.0000000E+000	0.0000000E+000	0.0000000E+000	-56.3749	0.0000000E+000	0.0000000E+000	0.0000000E+000	-33.6251	0.0000000E+000	0.0000000E+000	0.0000000E+000	33.6251	1.50369	56.3749	3.45744e-06	9.94534e-06	7802.44
463.961	2.80303	2.31648	3.63635	-39.5711	9.17818	0.278568	-0.00809602	148.085	60.0948	1	10	0.0049039	0.00134858	0	7.71828e-05	0.21198	0.175185	0.275001	39.5711	60094.8	72716.8	94335.1	-50.4289	0.0000000E+000	0.0000000E+000	0.0000000E+000	50.4289	0.0000000E+000	0.0000000E+000	0.0000000E+000	-50.4289	0.0000000E+000	0.0000000E+000	0.0000000E+000	-39.5711	0.0000000E+000	0.0000000E+000	0.0000000E+000	39.5711	1.21004	50.4289	-1.04024e-06	-2.25529e-06	34408.1
215.345	3.95595	3.64743	5.38083	-42.6764	10.1124	0.27857	-0.00771941	202.628	93.1054	1	10	0.00479426	0.000890989	0	7.39124e-05	0.136632	0.125976	0.185845	42.6764	93105.4	100981	137353	-47.3236	0.0000000E+000	0.0000000E+000	0.0000000E+000	47.3236	0.0000000E+000	0.0000000E+000	0.0000000E+000	-47.3236	0.0000000E+000	0.0000000E+000	0.0000000E+000	-42.6764	0.0000000E+000	0.0000000E+000	0.0000000E+000	42.6764	1.08459	47.3236	-1.60232e-06	-2.15039e-06	36086.9
100.032	5.96487	5.42209	8.06094	-42.2709	11.0437	0.278577	-0.00701093	293.437	132.763	1	10	0.00474765	0.00058897	0	7.31055e-05	0.0917973	0.0834441	0.124055	42.2709	132763	146053	197377	-47.7291	0.0000000E+000	0.0000000E+000	0.0000000E+000	47.7291	0.0000000E+000	0.0000000E+000	0.0000000E+000	-47.7291	0.0000000E+000	0.0000000E+000	0.0000000E+000	-42.2709	0.0000000E+000	0.0000000E+000	0.0000000E+000	42.2709	1.10011	47.7291	-2.82211e-07	-1.95308e-06	39734.7
46.4415	9.34524	7.31638	11.8686	-38.0574	11.9776	0.278568	-0.00794316	468.4	177.997	1	10	0.00473903	0.000399292	0	7.19768e-05	0.0663428	0.0519397	0.0842562	38.0574	177997	227356	288745	-51.9426	0.0000000E+000	0.0000000E+000	0.0000000E+000	51.9426	0.0000000E+000	0.0000000E+000	0.0000000E+000	-51.9426	0.0000000E+000	0.0000000E+000	0.0000000E+000	-38.0574	0.0000000E+000	0.0000000E+000	0.0000000E+000	38.0574	1.2773	51.9426	-6.74719e-07	-2.21271e-06	35070.2
[...]
1.00006	28.2411	4.72249	28.6332	-9.49319	21.2991	0.278597	-0.00603549	33699.3	916.69	1	12	0.00473633	0.000165414	0	5.46028e-05	0.0344462	0.0057601	0.0349245	9.49319	916691	5.48193e+06	5.55804e+06	-80.5068	0.0000000E+000	0.0000000E+000	0.0000000E+000	80.5068	0.0000000E+000	0.0000000E+000	0.0000000E+000	-80.5068	0.0000000E+000	0.0000000E+000	0.0000000E+000	-9.49319	0.0000000E+000	0.0000000E+000	0.0000000E+000	9.49319	5.98013	80.5068	-1.107e-06	-1.68147e-06	46159.9
0.464091	30.1588	3.90583	30.4107	-7.37923	28.9838	0.278579	-0.00578368	87801.9	1448.36	1	12	0.00473521	0.000155709	0	5.61721e-05	0.0326108	0.00422338	0.0328832	7.37923	1.44836e+06	1.11835e+07	1.12769e+07	-82.6208	0.0000000E+000	0.0000000E+000	0.0000000E+000	82.6208	0.0000000E+000	0.0000000E+000	0.0000000E+000	-82.6208	0.0000000E+000	0.0000000E+000	0.0000000E+000	-7.37923	0.0000000E+000	0.0000000E+000	0.0000000E+000	7.37923	7.72149	82.6208	-8.14546e-07	-1.61121e-06	48166.4
0.215268	31.6271	3.55013	31.8257	-6.40463	45.4639	0.278585	-0.00407848	208255	2591.37	1	12	0.00473813	0.000148877	0	2.00891e-05	0.031225	0.003505	0.0314211	6.40463	2.59137e+06	2.30857e+07	2.32307e+07	-83.5954	0.0000000E+000	0.0000000E+000	0.0000000E+000	83.5954	0.0000000E+000	0.0000000E+000	0.0000000E+000	-83.5954	0.0000000E+000	0.0000000E+000	0.0000000E+000	-6.40463	0.0000000E+000	0.0000000E+000	0.0000000E+000	6.40463	8.90871	83.5954	-2.59624e-05	-1.1362e-06	68306.1
0.0999041	32.9888	3.78333	33.2051	-6.54239	80.8709	0.278597	-0.00339718	421078	5466.41	1	12	0.00473479	0.000142592	0	-7.55074e-05	0.0299198	0.00343136	0.0301159	6.54239	5.46642e+06	4.76645e+07	4.7977e+07	-83.4576	0.0000000E+000	0.0000000E+000	0.0000000E+000	83.4576	0.0000000E+000	0.0000000E+000	0.0000000E+000	-83.4576	0.0000000E+000	0.0000000E+000	0.0000000E+000	-6.54239	0.0000000E+000	0.0000000E+000	0.0000000E+000	6.54239	8.71952	83.4576	-5.33332e-05	-9.46443e-07	82008.2
0.0464052	34.5094	5.11506	34.8865	-8.43112	157.105	0.278594	-0.00339221	670506	14414.2	1	12	0.00473492	0.000135724	0	-0.000148707	0.0283546	0.00420279	0.0286644	8.43112	1.44142e+07	9.72473e+07	9.83098e+07	-81.5689	0.0000000E+000	0.0000000E+000	0.0000000E+000	81.5689	0.0000000E+000	0.0000000E+000	0.0000000E+000	-81.5689	0.0000000E+000	0.0000000E+000	0.0000000E+000	-8.43112	0.0000000E+000	0.0000000E+000	0.0000000E+000	8.43112	6.74663	81.5689	-2.16462e-05	-9.45048e-07	82127.6
0.0215268	36.3747	7.5519	37.1504	-11.7288	321.334	0.278596	-0.00177903	979004	40454.9	1	12	0.00473699	0.000127509	0	7.92583e-06	0.0263556	0.00547179	0.0269176	11.7288	4.04549e+07	1.94856e+08	1.99011e+08	-78.2712	0.0000000E+000	0.0000000E+000	0.0000000E+000	78.2712	0.0000000E+000	0.0000000E+000	0.0000000E+000	-78.2712	0.0000000E+000	0.0000000E+000	0.0000000E+000	-11.7288	0.0000000E+000	0.0000000E+000	0.0000000E+000	11.7288	4.81663	78.2712	0.00011321	-4.9563e-07	156601
0.0100092	39.5323	12.0809	41.3371	-16.993	674.549	0.278594	-1.60225e-05	1.3162e+06	112420	1	12	0.00473473	0.000114539	0	0.000206767	0.0231352	0.00707003	0.0241914	16.993	1.1242e+08	3.6787e+08	3.84665e+08	-73.007	0.0000000E+000	0.0000000E+000	0.0000000E+000	73.007	0.0000000E+000	0.0000000E+000	0.0000000E+000	-73.007	0.0000000E+000	0.0000000E+000	0.0000000E+000	-16.993	0.0000000E+000	0.0000000E+000	0.0000000E+000	16.993	3.27229	73.007	5.44811e-05	-4.46375e-09	1.73877e+07