Folder: EIS/txt (part 197)

File: 19513_R316_UA718_SOC00_C07.mpt
EC-Lab ASCII FILE
Nb header lines : 65

Potentio Electrochemical Impedance Spectroscopy

Run on channel : 7 (SN 66126)
User :
CE vs. WE compliance from -10 V to 10 V
Electrode connection : standard
Potential control : Ewe
Ewe ctrl range : min = -10.00 V, max = 10.00 V
Safety Limits :
	Do not start on E overload
Acquisition started on : 12/04/2025 15:43:10.705
Technique started on : 12/04/2025 15:43:12.759
Loaded Setting File :  NONE
Saved on :
	File : 19513_R316_UA718_SOC00_C07.mpr
	Directory : C:\Users\Celltest\OneDrive - store-dot.com\Documents\EC-Lab\Data\Charmaine\
	Host : 169.254.61.224
Device : VMP-3e (SN .003165)
Address : USB
EC-LAB for windows v11.62 (software)
Internet server v27.00 (firmware)
Command interpretor v12.03 (firmware)
Electrode material :
Initial state :
Electrolyte :
Comments :
Electrode surface area : 0.001 cm²
Characteristic mass : 0.001 g
Equivalent Weight : 0.000 g/eq.
Density : 0.000 g/cm3
Volume (V) : 0.001 cm³
Record Ece
Cycle Definition : Charge/Discharge alternance
Mode                Single sine
E (V)               0.0000
vs.                 Eoc
tE (h:m:s)          0:00:0.0000
record              0
dI                  0.000
unit dI             mA
dt (s)              0.000
fi                  100.000
unit fi             kHz
ff                  10.000
unit ff             mHz
Nd                  6
Points              per decade
spacing             Logarithmic
Va (mV)             5.0
pw                  0.10
Na                  2
corr                0
E range min (V)     -10.000
E range max (V)     10.000
I Range             Auto
Bandwidth           5
nc cycles           0
goto Ns'            0
nr cycles           0
inc. cycle          0

freq/Hz	Re(Z)/Ohm	-Im(Z)/Ohm	|Z|/Ohm	Phase(Z)/deg	time/s	<Ewe>/V	<I>/mA	Cs/µF	Cp/µF	cycle number	I Range	|Ewe|/V	|I|/A	Ns	(Q-Qo)/mA.h	<Ece>/V	|Ece|/V	Phase(Zce)/deg	|Zce|/Ohm	Re(Zce)/Ohm	-Im(Zce)/Ohm	Phase(Zwe-ce)/deg	|Zwe-ce|/Ohm	Re(Zwe-ce)/Ohm	-Im(Zwe-ce)/Ohm	Re(Y)/Ohm-1	Im(Y)/Ohm-1	|Y|/Ohm-1	Phase(Y)/deg	Re(C)/nF	Im(C)/nF	|C|/nF	Phase(C)/deg	Re(M)	Im(M)	|M|	Phase(M)/deg	Re(Permittivity)	Im(Permittivity)	|Permittivity|	Phase(Permittivity)/deg	Re(Resistivity)/Ohm.cm	Im(Resistivity)/Ohm.cm	|Resistivity|/Ohm.cm	Phase(Resistivity)/deg	Re(Conductivity)/mS/cm	Im(Conductivity)/mS/cm	|Conductivity|/mS/cm	Phase(Conductivity)/deg	Tan(Delta)	Loss Angle(Delta)/deg	dq/mA.h	Pwe/W	Pce/W	Pwe-ce/W	<Ewe-Ece>/V	Rwe/Ohm	Rce/Ohm	Rwe-ce/Ohm		Ewe-Ece/V
100004	1.69806	0.62025	1.80779	-20.0657	2.05355	0.285121	0.0773839	2.56589	0.302046	1	9	0.00494623	0.00273606	0	1.16767e-05	-9.43052e-05	4.45534e-05	82.3967	0.0162838	0.00215458	-0.0161406	-19.5608	1.80435	1.70022	0.604109	0.519583	0.189788	0.55316	20.0657	302.046	826.912	880.349	-69.9343	0.0000000E+000	0.0000000E+000	0.0000000E+000	69.9343	0.0000000E+000	0.0000000E+000	0.0000000E+000	-69.9343	0.0000000E+000	0.0000000E+000	0.0000000E+000	-20.0657	0.0000000E+000	0.0000000E+000	0.0000000E+000	20.0657	2.73771	69.9343	1.16767e-05	2.20638e-05	-7.29771e-09	2.20711e-05	0.285215	3684.5	1.21867	3685.72
31621.1	2.24181	0.877584	2.40746	-21.3785	3.20455	0.285138	0.0752242	5.73527	0.762102	1	9	0.00538268	0.00223583	0	3.93551e-05	-0.00032321	1.62116e-05	43.11	0.00725079	0.00529339	-0.0049552	-21.2229	2.41059	2.2471	0.872629	0.386795	0.151415	0.415375	21.3785	762.102	1946.81	2090.66	-68.6215	0.0000000E+000	0.0000000E+000	0.0000000E+000	68.6215	0.0000000E+000	0.0000000E+000	0.0000000E+000	-68.6215	0.0000000E+000	0.0000000E+000	0.0000000E+000	-21.3785	0.0000000E+000	0.0000000E+000	0.0000000E+000	21.3785	2.55453	68.6215	5.03359e-06	2.14493e-05	-2.43132e-08	2.14736e-05	0.285462	3790.52	4.29663	3794.81
10002.2	2.92532	1.16362	3.14826	-21.6914	4.35355	0.285136	0.0684472	13.6746	1.86807	1	9	0.00521974	0.00165798	0	6.69801e-05	5.82982e-05	5.84158e-06	134.596	0.00352332	-0.00247374	-0.00250887	-21.6655	3.14503	2.92285	1.16111	0.295144	0.1174	0.317636	21.6914	1868.07	4696.31	5054.21	-68.3086	0.0000000E+000	0.0000000E+000	0.0000000E+000	68.3086	0.0000000E+000	0.0000000E+000	0.0000000E+000	-68.3086	0.0000000E+000	0.0000000E+000	0.0000000E+000	-21.6914	0.0000000E+000	0.0000000E+000	0.0000000E+000	21.6914	2.51399	68.3086	4.95594e-06	1.95168e-05	3.99035e-09	1.95128e-05	0.285078	4165.78	0.851725	4164.93
3163.08	3.80337	1.60458	4.12799	-22.8741	5.58362	0.285078	-0.00646567	31.358	4.738	1	10	0.00518242	0.00125543	0	7.88561e-05	-0.000227833	7.43132e-06	-42.1534	0.00591932	0.00438829	0.00397256	-22.9012	4.13358	3.80776	1.60855	0.223199	0.094164	0.242249	22.8741	4738	11230.6	12189.1	-67.1259	0.0000000E+000	0.0000000E+000	0.0000000E+000	67.1259	0.0000000E+000	0.0000000E+000	0.0000000E+000	-67.1259	0.0000000E+000	0.0000000E+000	0.0000000E+000	-22.8741	0.0000000E+000	0.0000000E+000	0.0000000E+000	22.8741	2.37032	67.1259	2.81721e-06	-1.84322e-06	1.4731e-09	-1.84469e-06	0.285305	44090.9	35.2373	44126.2
1000.32	4.86307	2.49537	5.46592	-27.1636	6.93882	0.285065	-0.00465642	63.7596	13.2889	1	10	0.00500231	0.000915181	0	7.72429e-05	-3.7079e-05	1.14291e-05	-36.7135	0.0124884	0.0100111	0.00746573	-27.1852	5.47824	4.87308	2.50284	0.162773	0.0835234	0.182952	27.1636	13288.9	25897.9	29108.3	-62.8364	0.0000000E+000	0.0000000E+000	0.0000000E+000	62.8364	0.0000000E+000	0.0000000E+000	0.0000000E+000	-62.8364	0.0000000E+000	0.0000000E+000	0.0000000E+000	-27.1636	0.0000000E+000	0.0000000E+000	0.0000000E+000	27.1636	1.94884	62.8364	-1.31265e-06	-1.32738e-06	1.72655e-10	-1.32755e-06	0.285102	61219.8	7.96298	61227.7
316.316	6.38203	4.87212	8.02919	-37.3586	8.29105	0.285062	-0.00546799	103.272	38.0254	1	10	0.0048866	0.000608604	0	7.57978e-05	-0.000265984	5.58259e-06	157.681	0.00917279	-0.00848562	-0.00348342	-37.3756	8.02033	6.37355	4.86864	0.0989955	0.0755744	0.124546	37.3586	38025.4	49809.8	62665.3	-52.6414	0.0000000E+000	0.0000000E+000	0.0000000E+000	52.6414	0.0000000E+000	0.0000000E+000	0.0000000E+000	-52.6414	0.0000000E+000	0.0000000E+000	0.0000000E+000	-37.3586	0.0000000E+000	0.0000000E+000	0.0000000E+000	37.3586	1.30991	52.6414	-4.25244e-07	-1.55872e-06	1.4544e-09	-1.56017e-06	0.285328	52132.9	48.6438	52181.5
100.032	10.661	10.4328	14.9165	-44.3802	9.63779	0.285067	-0.00513667	152.504	74.6021	1	10	0.00486492	0.000326145	0	7.32621e-05	-9.43052e-05	1.28198e-05	-50.9471	0.0393072	0.024765	0.0305246	-44.3974	14.9555	10.6858	10.4633	0.0479145	0.0468889	0.0670401	44.3802	74602.1	76233.9	106663	-45.6198	0.0000000E+000	0.0000000E+000	0.0000000E+000	45.6198	0.0000000E+000	0.0000000E+000	0.0000000E+000	-45.6198	0.0000000E+000	0.0000000E+000	0.0000000E+000	-44.3802	0.0000000E+000	0.0000000E+000	0.0000000E+000	44.3802	1.02187	45.6198	-3.27113e-07	-1.46429e-06	4.84415e-10	-1.46478e-06	0.285161	55496.4	18.3592	55514.7
31.6296	22.8713	16.0487	27.9403	-35.0572	11.2076	0.285097	-0.0029192	313.535	103.444	1	11	0.00485321	0.000173699	0	7.17164e-05	-0.000208758	9.81825e-06	-51.4342	0.0565244	0.035238	0.044196	-35.0898	27.9945	22.9066	16.0929	0.0292975	0.0205579	0.0357906	35.0572	103444	147420	180093	-54.9428	0.0000000E+000	0.0000000E+000	0.0000000E+000	54.9428	0.0000000E+000	0.0000000E+000	0.0000000E+000	-54.9428	0.0000000E+000	0.0000000E+000	0.0000000E+000	-35.0572	0.0000000E+000	0.0000000E+000	0.0000000E+000	35.0572	1.42512	54.9428	-4.05515e-07	-8.32254e-07	6.09405e-10	-8.32864e-07	0.285306	97662.8	71.512	97734.3
[...]
1.00006	49.2033	5.9482	49.5616	-6.89305	19.3766	0.285109	-0.00126906	26755.1	385.379	1	12	0.00485514	9.79617e-05	0	7.1517e-05	0.000153675	2.95464e-06	36.3124	0.0301611	0.0243038	-0.017861	-6.86919	49.5835	49.2276	5.93034	0.0200311	0.00242156	0.0201769	6.89305	385379	3.18784e+06	3.21105e+06	-83.1069	0.0000000E+000	0.0000000E+000	0.0000000E+000	83.1069	0.0000000E+000	0.0000000E+000	0.0000000E+000	-83.1069	0.0000000E+000	0.0000000E+000	0.0000000E+000	-6.89305	0.0000000E+000	0.0000000E+000	0.0000000E+000	6.89305	8.27197	83.1069	-6.15272e-07	-3.61821e-07	-1.95023e-10	-3.61626e-07	0.284955	224661	121.094	224540
0.316193	52.0979	4.77337	52.3161	-5.235	33.721	0.285108	-0.00111848	105449	877.853	1	12	0.0048546	9.27936e-05	0	5.16995e-05	-0.000208758	1.21278e-06	-2.06043	0.0130697	0.0130612	0.0004699	-5.2342	52.3292	52.111	4.77384	0.0190348	0.00174403	0.0191146	5.235	877853	9.58114e+06	9.62127e+06	-84.765	0.0000000E+000	0.0000000E+000	0.0000000E+000	84.765	0.0000000E+000	0.0000000E+000	0.0000000E+000	-84.765	0.0000000E+000	0.0000000E+000	0.0000000E+000	-5.235	0.0000000E+000	0.0000000E+000	0.0000000E+000	5.235	10.9143	84.765	-9.09549e-06	-3.18889e-07	2.33492e-10	-3.19122e-07	0.285317	254906	186.644	255093
0.0999041	54.62	6.19113	54.9697	-6.46683	78.9301	0.28511	-0.00125566	257316	3264.07	1	12	0.00485477	8.83172e-05	0	6.02011e-05	-0.000113381	1.63258e-06	81.6858	0.0184854	0.002673	-0.0182911	-6.44758	54.9703	54.6226	6.17284	0.0180761	0.00204891	0.0181918	6.46683	3.26407e+06	2.87966e+07	2.8981e+07	-83.5332	0.0000000E+000	0.0000000E+000	0.0000000E+000	83.5332	0.0000000E+000	0.0000000E+000	0.0000000E+000	-83.5332	0.0000000E+000	0.0000000E+000	0.0000000E+000	-6.46683	0.0000000E+000	0.0000000E+000	0.0000000E+000	6.46683	8.82229	83.5332	1.42975e-05	-3.58002e-07	1.42368e-10	-3.58144e-07	0.285223	227060	90.2955	227150
0.0315922	59.068	10.7709	60.042	-10.3342	221.814	0.285116	0.000401058	467723	15051.6	1	12	0.00485587	8.08745e-05	0	0.0001295	-0.000113381	2.18166e-06	-17.1664	0.0269758	0.0257741	0.00796184	-10.3372	60.0688	59.0938	10.7788	0.0163848	0.00298773	0.016655	10.3342	1.50516e+07	8.25434e+07	8.39045e+07	-79.6658	0.0000000E+000	0.0000000E+000	0.0000000E+000	79.6658	0.0000000E+000	0.0000000E+000	0.0000000E+000	-79.6658	0.0000000E+000	0.0000000E+000	0.0000000E+000	-10.3342	0.0000000E+000	0.0000000E+000	0.0000000E+000	10.3342	5.48404	79.6658	1.25174e-05	1.14348e-07	-4.54722e-11	1.14394e-07	0.28523	710910	282.704	711193
0.0100092	65.9417	20.2867	68.9917	-17.1003	673.038	0.285119	6.88383e-06	783809	67770.4	1	12	0.00485211	7.03288e-05	0	-0.000215028	-0.000246909	1.28862e-06	-153.429	0.0183228	-0.0163876	0.0081958	-17.1108	68.9785	65.9253	20.2949	0.0138537	0.00426204	0.0144945	17.1003	6.77704e+07	2.20287e+08	2.30476e+08	-72.8997	0.0000000E+000	0.0000000E+000	0.0000000E+000	72.8997	0.0000000E+000	0.0000000E+000	0.0000000E+000	-72.8997	0.0000000E+000	0.0000000E+000	0.0000000E+000	-17.1003	0.0000000E+000	0.0000000E+000	0.0000000E+000	17.1003	3.25048	72.8997	-0.000183367	1.96271e-09	-1.69968e-12	1.96441e-09	0.285366	4.14186e+07	35867.9	4.14545e+07

File: 19514_R316_UA718_SOC00_C08.mpt
EC-Lab ASCII FILE
Nb header lines : 65

Potentio Electrochemical Impedance Spectroscopy

Run on channel : 8 (SN 65398)
User :
CE vs. WE compliance from -10 V to 10 V
Electrode connection : standard
Potential control : Ewe
Ewe ctrl range : min = -10.00 V, max = 10.00 V
Safety Limits :
	Do not start on E overload
Acquisition started on : 12/04/2025 15:43:17.019
Technique started on : 12/04/2025 15:43:18.931
Loaded Setting File :  NONE
Saved on :
	File : 19514_R316_UA718_SOC00_C08.mpr
	Directory : C:\Users\Celltest\OneDrive - store-dot.com\Documents\EC-Lab\Data\Charmaine\
	Host : 169.254.61.224
Device : VMP-3e (SN .003165)
Address : USB
EC-LAB for windows v11.62 (software)
Internet server v27.00 (firmware)
Command interpretor v12.03 (firmware)
Electrode material :
Initial state :
Electrolyte :
Comments :
Electrode surface area : 0.001 cm²
Characteristic mass : 0.001 g
Equivalent Weight : 0.000 g/eq.
Density : 0.000 g/cm3
Volume (V) : 0.001 cm³
Record Ece
Cycle Definition : Charge/Discharge alternance
Mode                Single sine
E (V)               0.0000
vs.                 Eoc
tE (h:m:s)          0:00:0.0000
record              0
dI                  0.000
unit dI             mA
dt (s)              0.000
fi                  100.000
unit fi             kHz
ff                  10.000
unit ff             mHz
Nd                  6
Points              per decade
spacing             Logarithmic
Va (mV)             5.0
pw                  0.10
Na                  2
corr                0
E range min (V)     -10.000
E range max (V)     10.000
I Range             Auto
Bandwidth           5
nc cycles           0
goto Ns'            0
nr cycles           0
inc. cycle          0

freq/Hz	Re(Z)/Ohm	-Im(Z)/Ohm	|Z|/Ohm	Phase(Z)/deg	time/s	<Ewe>/V	<I>/mA	Cs/µF	Cp/µF	cycle number	I Range	|Ewe|/V	|I|/A	Ns	(Q-Qo)/mA.h	<Ece>/V	|Ece|/V	Phase(Zce)/deg	|Zce|/Ohm	Re(Zce)/Ohm	-Im(Zce)/Ohm	Phase(Zwe-ce)/deg	|Zwe-ce|/Ohm	Re(Zwe-ce)/Ohm	-Im(Zwe-ce)/Ohm	Re(Y)/Ohm-1	Im(Y)/Ohm-1	|Y|/Ohm-1	Phase(Y)/deg	Re(C)/nF	Im(C)/nF	|C|/nF	Phase(C)/deg	Re(M)	Im(M)	|M|	Phase(M)/deg	Re(Permittivity)	Im(Permittivity)	|Permittivity|	Phase(Permittivity)/deg	Re(Resistivity)/Ohm.cm	Im(Resistivity)/Ohm.cm	|Resistivity|/Ohm.cm	Phase(Resistivity)/deg	Re(Conductivity)/mS/cm	Im(Conductivity)/mS/cm	|Conductivity|/mS/cm	Phase(Conductivity)/deg	Tan(Delta)	Loss Angle(Delta)/deg	dq/mA.h	Pwe/W	Pce/W	Pwe-ce/W	<Ewe-Ece>/V	Rwe/Ohm	Rce/Ohm	Rwe-ce/Ohm		Ewe-Ece/V
100004	1.39368	0.612289	1.52225	-23.7175	1.91156	0.286919	-0.0053547	2.59925	0.420523	1	9	0.0045876	0.0030137	0	-2.01121e-06	-0.000196454	4.46091e-05	85.6211	0.0148021	0.00113017	-0.0147589	-23.1901	1.51741	1.39481	0.59753	0.60144	0.264232	0.656924	23.7175	420.523	957.186	1045.49	-66.2825	0.0000000E+000	0.0000000E+000	0.0000000E+000	66.2825	0.0000000E+000	0.0000000E+000	0.0000000E+000	-66.2825	0.0000000E+000	0.0000000E+000	0.0000000E+000	-23.7175	0.0000000E+000	0.0000000E+000	0.0000000E+000	23.7175	2.27618	66.2825	-2.01121e-06	-1.53637e-06	1.05195e-09	-1.53742e-06	0.287115	53582.6	36.6881	53619.3
31621.1	1.94273	0.866789	2.12732	-24.0451	3.43452	0.286922	-0.00222974	5.8067	0.964026	1	9	0.00499793	0.0023494	0	1.25215e-05	1.35149e-05	1.07272e-05	14.1074	0.00456595	0.00442825	-0.0011129	-23.9692	2.13092	1.94715	0.865676	0.429284	0.191534	0.470074	24.0451	964.026	2160.66	2365.97	-65.9549	0.0000000E+000	0.0000000E+000	0.0000000E+000	65.9549	0.0000000E+000	0.0000000E+000	0.0000000E+000	-65.9549	0.0000000E+000	0.0000000E+000	0.0000000E+000	-24.0451	0.0000000E+000	0.0000000E+000	0.0000000E+000	24.0451	2.24129	65.9549	1.64211e-06	-6.39759e-07	-3.01348e-11	-6.39729e-07	0.286908	128680	6.06124	128674
10002.2	2.64148	1.15033	2.88109	-23.5324	4.33753	0.28693	0.00465266	13.8326	2.20512	1	9	0.00453368	0.0015736	0	1.36138e-05	-5.57311e-06	5.63872e-06	1.56628	0.00358332	0.00358198	-9.79438e-05	-23.5022	2.88433	2.64506	1.15023	0.318225	0.138583	0.347091	23.5324	2205.12	5063.59	5522.9	-66.4676	0.0000000E+000	0.0000000E+000	0.0000000E+000	66.4676	0.0000000E+000	0.0000000E+000	0.0000000E+000	-66.4676	0.0000000E+000	0.0000000E+000	0.0000000E+000	-23.5324	0.0000000E+000	0.0000000E+000	0.0000000E+000	23.5324	2.29629	66.4676	6.63335e-07	1.33499e-06	-2.59298e-11	1.33502e-06	0.286936	61670.2	1.19783	61671.4
3163.08	3.48341	1.62863	3.84533	-25.0579	5.57062	0.286821	-0.0278958	30.895	5.54197	1	10	0.00503972	0.00131061	0	1.13129e-05	-0.000215542	7.18188e-06	-30.8778	0.00547981	0.00470312	0.00281229	-25.0662	3.85078	3.48811	1.63144	0.235579	0.110142	0.260056	25.0579	5541.97	11853.5	13085.1	-64.9421	0.0000000E+000	0.0000000E+000	0.0000000E+000	64.9421	0.0000000E+000	0.0000000E+000	0.0000000E+000	-64.9421	0.0000000E+000	0.0000000E+000	0.0000000E+000	-25.0579	0.0000000E+000	0.0000000E+000	0.0000000E+000	25.0579	2.13886	64.9421	-3.8896e-06	-8.00108e-06	6.0127e-09	-8.0071e-06	0.287036	10281.9	7.72669	10289.6
1000.32	4.52838	2.59528	5.21936	-29.8177	6.92379	0.286848	-0.0112378	61.3051	15.1576	1	10	0.00484611	0.000928488	0	6.82486e-06	-0.000101013	6.52603e-06	-61.8578	0.00702866	0.00331515	0.00619773	-29.8586	5.22532	4.53169	2.60148	0.16623	0.0952688	0.191595	29.8177	15157.6	26447.8	30483.5	-60.1823	0.0000000E+000	0.0000000E+000	0.0000000E+000	60.1823	0.0000000E+000	0.0000000E+000	0.0000000E+000	-60.1823	0.0000000E+000	0.0000000E+000	0.0000000E+000	-29.8177	0.0000000E+000	0.0000000E+000	0.0000000E+000	29.8177	1.74485	60.1823	-6.61597e-07	-3.22353e-06	1.13516e-09	-3.22466e-06	0.286949	25525.4	8.98875	25534.4
316.316	6.03597	5.19779	7.96555	-40.7329	8.27407	0.286844	-0.0128783	96.8012	41.218	1	10	0.00476909	0.000598715	0	1.82165e-06	-4.37492e-05	7.29406e-06	-7.20131	0.0121829	0.0120868	0.00152719	-40.6846	7.9757	6.04806	5.19932	0.0951296	0.0819195	0.125541	40.7329	41218	47864.7	63166	-49.2671	0.0000000E+000	0.0000000E+000	0.0000000E+000	49.2671	0.0000000E+000	0.0000000E+000	0.0000000E+000	-49.2671	0.0000000E+000	0.0000000E+000	0.0000000E+000	-40.7329	0.0000000E+000	0.0000000E+000	0.0000000E+000	40.7329	1.16126	49.2671	-1.95758e-06	-3.69406e-06	5.63414e-10	-3.69462e-06	0.286888	22273.5	3.39714	22276.9
100.032	10.37	11.4326	15.435	-47.7903	9.62086	0.286842	-0.012205	139.167	76.3503	1	10	0.00474333	0.000307309	0	-2.62272e-06	-0.00023463	8.29878e-06	23.4559	0.0270046	0.0247732	-0.010749	-47.6955	15.4437	10.3947	11.4218	0.0435273	0.0479877	0.0647877	47.7903	76350.3	69253.7	103080	-42.2097	0.0000000E+000	0.0000000E+000	0.0000000E+000	42.2097	0.0000000E+000	0.0000000E+000	0.0000000E+000	-42.2097	0.0000000E+000	0.0000000E+000	0.0000000E+000	-47.7903	0.0000000E+000	0.0000000E+000	0.0000000E+000	47.7903	0.907052	42.2097	-1.33954e-06	-3.5009e-06	2.86365e-09	-3.50377e-06	0.287077	23502.1	19.2241	23521.3
31.6296	23.9341	19.072	30.6036	-38.5498	11.1896	0.286886	-0.00377929	263.834	102.466	1	11	0.00473238	0.000154635	0	-5.27592e-06	-0.000215542	4.33057e-05	-87.2526	0.280052	0.0134238	0.27973	-38.9413	30.7892	23.9475	19.3517	0.0255547	0.0203634	0.0326759	38.5498	102466	128587	164420	-51.4502	0.0000000E+000	0.0000000E+000	0.0000000E+000	51.4502	0.0000000E+000	0.0000000E+000	0.0000000E+000	-51.4502	0.0000000E+000	0.0000000E+000	0.0000000E+000	-38.5498	0.0000000E+000	0.0000000E+000	0.0000000E+000	38.5498	1.25493	51.4502	-7.13807e-07	-1.08423e-06	8.14595e-10	-1.08504e-06	0.287102	75910.1	57.0323	75967.1
[...]
3.1604	51.7347	11.0063	52.8925	-12.0103	14.0384	0.286896	-0.00277462	4575.5	198.12	1	11	0.0047441	8.96933e-05	0	-6.99295e-06	0.000108955	3.67888e-06	172.739	0.0410163	-0.0406873	-0.00518402	-12.014	52.8517	51.694	11.0011	0.0184924	0.00393415	0.0189063	12.0103	198120	931262	952103	-77.9897	0.0000000E+000	0.0000000E+000	0.0000000E+000	77.9897	0.0000000E+000	0.0000000E+000	0.0000000E+000	-77.9897	0.0000000E+000	0.0000000E+000	0.0000000E+000	-12.0103	0.0000000E+000	0.0000000E+000	0.0000000E+000	12.0103	4.70048	77.9897	7.34904e-07	-7.96028e-07	-3.0231e-10	-7.95726e-07	0.286787	103400	39.2685	103361
1.00006	57.4286	7.27831	57.8879	-7.22298	19.1419	0.286904	-0.00171165	21865.6	345.658	1	12	0.00474355	8.19436e-05	0	-1.3471e-05	-4.37492e-05	4.35297e-06	-27.3411	0.0531215	0.0471872	0.024398	-7.24104	57.9378	57.4757	7.30271	0.0171377	0.00217197	0.0172748	7.22298	345658	2.72737e+06	2.74919e+06	-82.777	0.0000000E+000	0.0000000E+000	0.0000000E+000	82.777	0.0000000E+000	0.0000000E+000	0.0000000E+000	-82.777	0.0000000E+000	0.0000000E+000	0.0000000E+000	-7.22298	0.0000000E+000	0.0000000E+000	0.0000000E+000	7.22298	7.89037	82.777	-3.29647e-06	-4.9108e-07	7.48834e-11	-4.91155e-07	0.286948	167618	25.5596	167644
0.316193	60.9997	5.75295	61.2704	-5.38769	33.4841	0.286898	-0.00187713	87493.8	771.36	1	12	0.00474738	7.74825e-05	0	-1.31891e-05	-0.000101013	2.09575e-06	-4.89387	0.0270481	0.0269495	0.00230748	-5.38747	61.2974	61.0266	5.75525	0.016249	0.00153246	0.0163211	5.38769	771360	8.17889e+06	8.21518e+06	-84.6123	0.0000000E+000	0.0000000E+000	0.0000000E+000	84.6123	0.0000000E+000	0.0000000E+000	0.0000000E+000	-84.6123	0.0000000E+000	0.0000000E+000	0.0000000E+000	-5.38769	0.0000000E+000	0.0000000E+000	0.0000000E+000	5.38769	10.6032	84.6123	3.05569e-06	-5.38545e-07	1.89615e-10	-5.38735e-07	0.286999	152839	53.8127	152892
0.0999041	64.093	6.83372	64.4562	-6.086	78.693	0.286899	-0.000692256	233120	2620.38	1	12	0.00474509	7.36172e-05	0	-1.12303e-05	0.000108955	4.14966e-06	-54.2469	0.056368	0.0329355	0.045745	-6.12331	64.4939	64.1259	6.87947	0.015427	0.00164485	0.0155144	6.086	2.62038e+06	2.45763e+07	2.47156e+07	-83.914	0.0000000E+000	0.0000000E+000	0.0000000E+000	83.914	0.0000000E+000	0.0000000E+000	0.0000000E+000	-83.914	0.0000000E+000	0.0000000E+000	0.0000000E+000	-6.086	0.0000000E+000	0.0000000E+000	0.0000000E+000	6.086	9.37893	83.914	-6.4778e-06	-1.98607e-07	-7.54249e-11	-1.98532e-07	0.28679	414440	157.392	414283
0.0315922	68.6853	11.2849	69.6061	-9.33025	221.576	0.286891	-0.000470971	446419	11733.9	1	12	0.00474554	6.81771e-05	0	-0.00014289	0.000242572	2.63109e-06	-11.6113	0.038592	0.0378023	0.00776748	-9.33152	69.6447	68.7231	11.2927	0.0141765	0.00232917	0.0143665	9.33025	1.17339e+07	7.14182e+07	7.23757e+07	-80.6697	0.0000000E+000	0.0000000E+000	0.0000000E+000	80.6697	0.0000000E+000	0.0000000E+000	0.0000000E+000	-80.6697	0.0000000E+000	0.0000000E+000	0.0000000E+000	-9.33025	0.0000000E+000	0.0000000E+000	0.0000000E+000	9.33025	6.08648	80.6697	-6.30347e-05	-1.35117e-07	-1.14244e-10	-1.35003e-07	0.286648	609147	515.045	608632
0.0100092	76.2272	21.5097	79.2038	-15.758	672.8	0.286896	-0.000601503	739243	54521.1	1	12	0.00474833	5.99508e-05	0	-9.19152e-05	-0.000215542	3.32636e-06	19.1058	0.0554848	0.0524285	-0.0181609	-15.735	79.2494	76.2796	21.4916	0.0121511	0.0034288	0.0126257	15.758	5.45211e+07	1.93214e+08	2.00759e+08	-74.242	0.0000000E+000	0.0000000E+000	0.0000000E+000	74.242	0.0000000E+000	0.0000000E+000	0.0000000E+000	-74.242	0.0000000E+000	0.0000000E+000	0.0000000E+000	-15.758	0.0000000E+000	0.0000000E+000	0.0000000E+000	15.758	3.54385	74.242	0.000101285	-1.72569e-07	1.29649e-10	-1.72698e-07	0.287111	476964	358.338	477323