Folder: EIS/txt (part 186)

File: 19491_R316_UA628_SOC00_C01.mpt
EC-Lab ASCII FILE
Nb header lines : 65

Potentio Electrochemical Impedance Spectroscopy

Run on channel : 1 (SN 66354)
User :
CE vs. WE compliance from -10 V to 10 V
Electrode connection : standard
Potential control : Ewe
Ewe ctrl range : min = -10.00 V, max = 10.00 V
Safety Limits :
	Do not start on E overload
Acquisition started on : 12/04/2025 13:09:28.813
Technique started on : 12/04/2025 13:09:30.725
Loaded Setting File :  C:\Users\Celltest\OneDrive - store-dot.com\Documents\EC-Lab\Data\@Biologic Test Protocols\anode half cell EIS SOC00.mps
Saved on :
	File : 19491_R316_UA628_SOC00_C01.mpr
	Directory : C:\Users\Celltest\OneDrive - store-dot.com\Documents\EC-Lab\Data\Charmaine\
	Host : 169.254.61.224
Device : VMP-3e (SN .003165)
Address : USB
EC-LAB for windows v11.62 (software)
Internet server v27.00 (firmware)
Command interpretor v12.03 (firmware)
Electrode material :
Initial state :
Electrolyte :
Comments :
Electrode surface area : 0.001 cm²
Characteristic mass : 0.001 g
Equivalent Weight : 0.000 g/eq.
Density : 0.000 g/cm3
Volume (V) : 0.001 cm³
Record Ece
Cycle Definition : Charge/Discharge alternance
Mode                Single sine
E (V)               0.0000
vs.                 Eoc
tE (h:m:s)          0:00:0.0000
record              0
dI                  0.000
unit dI             mA
dt (s)              0.000
fi                  100.000
unit fi             kHz
ff                  10.000
unit ff             mHz
Nd                  6
Points              per decade
spacing             Logarithmic
Va (mV)             5.0
pw                  0.10
Na                  2
corr                0
E range min (V)     -10.000
E range max (V)     10.000
I Range             Auto
Bandwidth           5
nc cycles           0
goto Ns'            0
nr cycles           0
inc. cycle          0

freq/Hz	Re(Z)/Ohm	-Im(Z)/Ohm	|Z|/Ohm	Phase(Z)/deg	time/s	<Ewe>/V	<I>/mA	Cs/µF	Cp/µF	cycle number	I Range	|Ewe|/V	|I|/A	Ns	(Q-Qo)/mA.h	<Ece>/V	|Ece|/V	Phase(Zce)/deg	|Zce|/Ohm	Re(Zce)/Ohm	-Im(Zce)/Ohm	Phase(Zwe-ce)/deg	|Zwe-ce|/Ohm	Re(Zwe-ce)/Ohm	-Im(Zwe-ce)/Ohm	Re(Y)/Ohm-1	Im(Y)/Ohm-1	|Y|/Ohm-1	Phase(Y)/deg	Re(C)/nF	Im(C)/nF	|C|/nF	Phase(C)/deg	Re(M)	Im(M)	|M|	Phase(M)/deg	Re(Permittivity)	Im(Permittivity)	|Permittivity|	Phase(Permittivity)/deg	Re(Resistivity)/Ohm.cm	Im(Resistivity)/Ohm.cm	|Resistivity|/Ohm.cm	Phase(Resistivity)/deg	Re(Conductivity)/mS/cm	Im(Conductivity)/mS/cm	|Conductivity|/mS/cm	Phase(Conductivity)/deg	Tan(Delta)	Loss Angle(Delta)/deg	dq/mA.h	Pwe/W	Pce/W	Pwe-ce/W	<Ewe-Ece>/V	Rwe/Ohm	Rce/Ohm	Rwe-ce/Ohm		Ewe-Ece/V
100004	1.1005	0.40792	1.17367	-20.3381	1.91156	0.220025	0.0677611	3.90147	0.471288	1	9	0.00478268	0.00407497	0	5.833e-06	0.000277768	4.61486e-05	91.555	0.0113249	-0.000307323	-0.0113207	-19.8233	1.1695	1.10019	0.396599	0.798911	0.29613	0.852028	20.3381	471.288	1271.46	1355.99	-69.6619	0.0000000E+000	0.0000000E+000	0.0000000E+000	69.6619	0.0000000E+000	0.0000000E+000	0.0000000E+000	-69.6619	0.0000000E+000	0.0000000E+000	0.0000000E+000	-20.3381	0.0000000E+000	0.0000000E+000	0.0000000E+000	20.3381	2.69784	69.6619	5.833e-06	1.49091e-05	1.88219e-08	1.48903e-05	0.219747	3247.06	4.09923	3242.96
31621.1	1.46346	0.567152	1.56952	-21.1834	3.43253	0.220029	0.0729767	8.87448	1.1588	1	9	0.00510324	0.00325147	0	1.39465e-06	-0.000122855	1.35674e-05	19.285	0.00417271	0.00393857	-0.00137811	-21.0847	1.5727	1.4674	0.565774	0.594086	0.230233	0.637138	21.1834	1158.8	2990.14	3206.83	-68.8166	0.0000000E+000	0.0000000E+000	0.0000000E+000	68.8166	0.0000000E+000	0.0000000E+000	0.0000000E+000	-68.8166	0.0000000E+000	0.0000000E+000	0.0000000E+000	-21.1834	0.0000000E+000	0.0000000E+000	0.0000000E+000	21.1834	2.58037	68.8166	1.23012e-05	1.6057e-05	-8.96558e-09	1.6066e-05	0.220152	3015.06	1.68349	3016.74
10002.2	1.90209	0.751083	2.04501	-21.5477	4.58155	0.220028	0.0787511	21.1854	2.85772	1	9	0.00487702	0.00238483	0	2.80769e-05	-2.74688e-05	3.88108e-06	-21.6018	0.0016274	0.0015131	0.000599133	-21.5477	2.04664	1.9036	0.751682	0.45482	0.179596	0.488995	21.5477	2857.72	7237.07	7780.86	-68.4523	0.0000000E+000	0.0000000E+000	0.0000000E+000	68.4523	0.0000000E+000	0.0000000E+000	0.0000000E+000	-68.4523	0.0000000E+000	0.0000000E+000	0.0000000E+000	-21.5477	0.0000000E+000	0.0000000E+000	0.0000000E+000	21.5477	2.53246	68.4523	1.1082e-05	1.73275e-05	-2.1632e-09	1.73296e-05	0.220056	2793.97	0.348805	2794.32
3163.08	2.46058	1.08139	2.68772	-23.7248	5.60668	0.219766	0.000144423	46.5296	7.53222	1	9	0.00491135	0.00182733	0	3.74165e-05	6.79177e-05	8.77214e-06	-12.3529	0.00480052	0.00468938	0.00102699	-23.7046	2.69243	2.46527	1.08241	0.340619	0.149697	0.372063	23.7248	7532.22	17138.8	18720.9	-66.2752	0.0000000E+000	0.0000000E+000	0.0000000E+000	66.2752	0.0000000E+000	0.0000000E+000	0.0000000E+000	-66.2752	0.0000000E+000	0.0000000E+000	0.0000000E+000	-23.7248	0.0000000E+000	0.0000000E+000	0.0000000E+000	23.7248	2.27539	66.2752	1.81553e-07	3.17392e-08	9.8089e-12	3.17294e-08	0.219698	1.52168e+06	470.269	1.52121e+06
1000.32	3.23919	1.71996	3.66751	-27.9675	7.20383	0.219941	-0.0161716	92.5047	20.3449	1	10	0.00493414	0.00134537	0	7.388e-05	1.06858e-05	7.75344e-06	-89.4738	0.00576307	5.29222e-05	0.00576282	-28.0466	3.67026	3.23925	1.72572	0.240821	0.127872	0.272665	27.9675	20344.9	38315.6	43382	-62.0325	0.0000000E+000	0.0000000E+000	0.0000000E+000	62.0325	0.0000000E+000	0.0000000E+000	0.0000000E+000	-62.0325	0.0000000E+000	0.0000000E+000	0.0000000E+000	-27.9675	0.0000000E+000	0.0000000E+000	0.0000000E+000	27.9675	1.8833	62.0325	6.92289e-06	-3.5568e-06	-1.72807e-10	-3.55662e-06	0.21993	13600.4	0.660775	13599.8
316.316	4.47248	3.14237	5.46604	-35.0919	8.55306	0.219934	-0.016835	160.119	52.9189	1	10	0.00483542	0.00088463	0	6.90409e-05	-0.000103778	2.48726e-06	-17.4198	0.00281164	0.00268269	0.000841723	-35.083	5.46872	4.47517	3.14321	0.149694	0.105175	0.182948	35.0919	52918.9	75318.6	92050.5	-54.9081	0.0000000E+000	0.0000000E+000	0.0000000E+000	54.9081	0.0000000E+000	0.0000000E+000	0.0000000E+000	-54.9081	0.0000000E+000	0.0000000E+000	0.0000000E+000	-35.0919	0.0000000E+000	0.0000000E+000	0.0000000E+000	35.0919	1.42328	54.9081	-1.41643e-06	-3.70259e-06	1.74711e-09	-3.70434e-06	0.220038	13064.1	6.16441	13070.2
100.032	7.51357	5.7901	9.48573	-37.6185	9.9008	0.219937	-0.0160896	274.786	102.383	1	10	0.00480255	0.000506292	0	6.38474e-05	-8.47007e-05	2.99689e-05	39.0072	0.0591929	0.0459968	-0.0372571	-37.2712	9.4996	7.55957	5.75285	0.0835036	0.0643495	0.105422	37.6185	102383	132858	167730	-52.3815	0.0000000E+000	0.0000000E+000	0.0000000E+000	52.3815	0.0000000E+000	0.0000000E+000	0.0000000E+000	-52.3815	0.0000000E+000	0.0000000E+000	0.0000000E+000	-37.6185	0.0000000E+000	0.0000000E+000	0.0000000E+000	37.6185	1.29766	52.3815	-1.83107e-06	-3.53871e-06	1.36281e-09	-3.54007e-06	0.220022	13669.5	5.2643	13674.7
[...]
1.00006	21.4101	1.30806	21.45	-3.49617	19.951	0.219989	-0.00293041	121665	452.444	1	12	0.00480779	0.000224139	0	5.72854e-05	0.000430387	3.62913e-06	39.2733	0.0161914	0.0125343	-0.0102495	-3.46681	21.4619	21.4226	1.29781	0.0465332	0.00284297	0.04662	3.49617	452443	7.40552e+06	7.41933e+06	-86.5038	0.0000000E+000	0.0000000E+000	0.0000000E+000	86.5038	0.0000000E+000	0.0000000E+000	0.0000000E+000	-86.5038	0.0000000E+000	0.0000000E+000	0.0000000E+000	-3.49617	0.0000000E+000	0.0000000E+000	0.0000000E+000	3.49617	16.3678	86.5038	5.47753e-06	-6.44657e-07	-1.26121e-09	-6.43396e-07	0.219559	75071.2	146.869	74924.4
0.316193	21.9918	1.40762	22.0368	-3.66232	34.2947	0.219985	-0.000901465	357587	1459.01	1	12	0.00480646	0.000218111	0	4.64565e-05	0.000144227	3.73361e-06	12.9421	0.0171179	0.0166831	-0.00383384	-3.64961	22.0532	22.0085	1.40379	0.045286	0.00289861	0.0453786	3.66232	1.459e+06	2.27946e+07	2.28412e+07	-86.3377	0.0000000E+000	0.0000000E+000	0.0000000E+000	86.3377	0.0000000E+000	0.0000000E+000	0.0000000E+000	-86.3377	0.0000000E+000	0.0000000E+000	0.0000000E+000	-3.66232	0.0000000E+000	0.0000000E+000	0.0000000E+000	3.66232	15.6234	86.3377	-1.44429e-05	-1.98309e-07	-1.30016e-10	-1.98179e-07	0.219841	244030	159.992	243870
0.0999041	22.8744	2.4476	23.005	-6.10752	79.5027	0.219984	-0.00226849	650872	7367.76	1	12	0.00481063	0.000209113	0	-5.76923e-05	0.000163304	2.67928e-06	0.120949	0.0128126	0.0128126	-2.70469e-05	-6.10406	23.0177	22.8872	2.44758	0.0432222	0.00462486	0.0434689	6.10752	7.36775e+06	6.88562e+07	6.92493e+07	-83.8925	0.0000000E+000	0.0000000E+000	0.0000000E+000	83.8925	0.0000000E+000	0.0000000E+000	0.0000000E+000	-83.8925	0.0000000E+000	0.0000000E+000	0.0000000E+000	-6.10752	0.0000000E+000	0.0000000E+000	0.0000000E+000	6.10752	9.34562	83.8925	-3.38775e-05	-4.99032e-07	-3.70454e-10	-4.98662e-07	0.219821	96974.1	71.9882	96902.1
0.0315922	24.4981	5.12898	25.0292	-11.8248	222.385	0.219986	-0.000436749	982220	41245.5	1	12	0.0048098	0.000192167	0	0.000172553	1.06858e-05	3.24875e-06	-30.7068	0.0169058	0.0145355	0.00863289	-11.8373	25.0452	24.5126	5.13762	0.0391054	0.00818722	0.0399533	11.8248	4.12455e+07	1.97005e+08	2.01276e+08	-78.1752	0.0000000E+000	0.0000000E+000	0.0000000E+000	78.1752	0.0000000E+000	0.0000000E+000	0.0000000E+000	-78.1752	0.0000000E+000	0.0000000E+000	0.0000000E+000	-11.8248	0.0000000E+000	0.0000000E+000	0.0000000E+000	11.8248	4.7764	78.1752	0.000162945	-9.60788e-08	-4.66702e-12	-9.60742e-08	0.219976	503690	24.4667	503665
0.0100092	28.2766	11.3	30.4508	-21.7829	673.607	0.219985	0.00321012	1.40716e+06	193777	1	12	0.00480909	0.00015793	0	0.000429693	1.06858e-05	3.08133e-06	-12.5639	0.0195108	0.0190436	0.00424414	-21.777	30.4701	28.2956	11.3043	0.0304949	0.0121865	0.0328398	21.7829	1.93777e+08	4.84897e+08	5.22183e+08	-68.2171	0.0000000E+000	0.0000000E+000	0.0000000E+000	68.2171	0.0000000E+000	0.0000000E+000	0.0000000E+000	-68.2171	0.0000000E+000	0.0000000E+000	0.0000000E+000	-21.7829	0.0000000E+000	0.0000000E+000	0.0000000E+000	21.7829	2.50234	68.2171	-7.84108e-05	7.06177e-07	3.43027e-11	7.06142e-07	0.219974	68528.6	3.32879	68525.3

File: 19492_R316_UA628_SOC00_C02.mpt
EC-Lab ASCII FILE
Nb header lines : 65

Potentio Electrochemical Impedance Spectroscopy

Run on channel : 2 (SN 66139)
User :
CE vs. WE compliance from -10 V to 10 V
Electrode connection : standard
Potential control : Ewe
Ewe ctrl range : min = -10.00 V, max = 10.00 V
Safety Limits :
	Do not start on E overload
Acquisition started on : 12/04/2025 13:09:36.565
Technique started on : 12/04/2025 13:09:38.159
Loaded Setting File :  C:\Users\Celltest\OneDrive - store-dot.com\Documents\EC-Lab\Data\@Biologic Test Protocols\anode half cell EIS SOC00.mps
Saved on :
	File : 19492_R316_UA628_SOC00_C02.mpr
	Directory : C:\Users\Celltest\OneDrive - store-dot.com\Documents\EC-Lab\Data\Charmaine\
	Host : 169.254.61.224
Device : VMP-3e (SN .003165)
Address : USB
EC-LAB for windows v11.62 (software)
Internet server v27.00 (firmware)
Command interpretor v12.03 (firmware)
Electrode material :
Initial state :
Electrolyte :
Comments :
Electrode surface area : 0.001 cm²
Characteristic mass : 0.001 g
Equivalent Weight : 0.000 g/eq.
Density : 0.000 g/cm3
Volume (V) : 0.001 cm³
Record Ece
Cycle Definition : Charge/Discharge alternance
Mode                Single sine
E (V)               0.0000
vs.                 Eoc
tE (h:m:s)          0:00:0.0000
record              0
dI                  0.000
unit dI             mA
dt (s)              0.000
fi                  100.000
unit fi             kHz
ff                  10.000
unit ff             mHz
Nd                  6
Points              per decade
spacing             Logarithmic
Va (mV)             5.0
pw                  0.10
Na                  2
corr                0
E range min (V)     -10.000
E range max (V)     10.000
I Range             Auto
Bandwidth           5
nc cycles           0
goto Ns'            0
nr cycles           0
inc. cycle          0

freq/Hz	Re(Z)/Ohm	-Im(Z)/Ohm	|Z|/Ohm	Phase(Z)/deg	time/s	<Ewe>/V	<I>/mA	Cs/µF	Cp/µF	cycle number	I Range	|Ewe|/V	|I|/A	Ns	(Q-Qo)/mA.h	<Ece>/V	|Ece|/V	Phase(Zce)/deg	|Zce|/Ohm	Re(Zce)/Ohm	-Im(Zce)/Ohm	Phase(Zwe-ce)/deg	|Zwe-ce|/Ohm	Re(Zwe-ce)/Ohm	-Im(Zwe-ce)/Ohm	Re(Y)/Ohm-1	Im(Y)/Ohm-1	|Y|/Ohm-1	Phase(Y)/deg	Re(C)/nF	Im(C)/nF	|C|/nF	Phase(C)/deg	Re(M)	Im(M)	|M|	Phase(M)/deg	Re(Permittivity)	Im(Permittivity)	|Permittivity|	Phase(Permittivity)/deg	Re(Resistivity)/Ohm.cm	Im(Resistivity)/Ohm.cm	|Resistivity|/Ohm.cm	Phase(Resistivity)/deg	Re(Conductivity)/mS/cm	Im(Conductivity)/mS/cm	|Conductivity|/mS/cm	Phase(Conductivity)/deg	Tan(Delta)	Loss Angle(Delta)/deg	dq/mA.h	Pwe/W	Pce/W	Pwe-ce/W	<Ewe-Ece>/V	Rwe/Ohm	Rce/Ohm	Rwe-ce/Ohm		Ewe-Ece/V
100004	1.05756	0.392033	1.12789	-20.3394	1.59353	0.217925	0.0272291	4.05959	0.49045	1	9	0.00477488	0.00423347	0	-3.28232e-06	0.000307323	1.94347e-05	23.7844	0.00459073	0.00420084	-0.00185142	-20.1776	1.13119	1.06176	0.390181	0.831333	0.30817	0.886613	20.3394	490.45	1323.06	1411.04	-69.6606	0.0000000E+000	0.0000000E+000	0.0000000E+000	69.6606	0.0000000E+000	0.0000000E+000	0.0000000E+000	-69.6606	0.0000000E+000	0.0000000E+000	0.0000000E+000	-20.3394	0.0000000E+000	0.0000000E+000	0.0000000E+000	20.3394	2.69764	69.6606	-3.28232e-06	5.93389e-06	8.36813e-09	5.92553e-06	0.217618	8003.39	11.2866	7992.1
31621.1	1.40703	0.594534	1.52749	-22.9062	3.11454	0.217857	0.00856886	8.46576	1.28252	1	9	0.00506324	0.00331475	0	-1.2798e-05	-0.000169948	3.71172e-05	-44.8373	0.0111976	0.00794032	0.00789536	-23.062	1.53788	1.41497	0.602429	0.603045	0.254813	0.65467	22.9062	1282.52	3035.24	3295.08	-67.0938	0.0000000E+000	0.0000000E+000	0.0000000E+000	67.0938	0.0000000E+000	0.0000000E+000	0.0000000E+000	-67.0938	0.0000000E+000	0.0000000E+000	0.0000000E+000	-22.9062	0.0000000E+000	0.0000000E+000	0.0000000E+000	22.9062	2.36662	67.0938	-7.271e-06	1.86678e-06	-1.45626e-09	1.86824e-06	0.218027	25424.2	19.8332	25444.1
10002.2	1.88268	0.824682	2.05538	-23.6552	4.38754	0.217838	0.0115113	19.2946	3.10617	1	9	0.00544446	0.00264888	0	-3.4979e-06	7.82332e-05	8.01063e-06	5.9834	0.00302416	0.00300768	-0.000315239	-23.6135	2.05801	1.88569	0.824367	0.445648	0.19521	0.486528	23.6552	3106.17	7091.14	7741.61	-66.3448	0.0000000E+000	0.0000000E+000	0.0000000E+000	66.3448	0.0000000E+000	0.0000000E+000	0.0000000E+000	-66.3448	0.0000000E+000	0.0000000E+000	0.0000000E+000	-23.6552	0.0000000E+000	0.0000000E+000	0.0000000E+000	23.6552	2.28292	66.3448	3.60301e-06	2.50759e-06	9.00564e-10	2.50669e-06	0.21776	18923.9	6.79622	18917.1
3163.08	2.4902	1.17688	2.75429	-25.2955	5.83968	0.21784	0.00946272	42.7543	7.80584	1	9	0.00524641	0.00190481	0	5.56935e-06	0.000326414	4.6647e-06	67.5323	0.0024489	0.000935877	-0.00226302	-25.2447	2.75417	2.49114	1.17461	0.328257	0.155135	0.363069	25.2955	7805.84	16516.7	18268.4	-64.7045	0.0000000E+000	0.0000000E+000	0.0000000E+000	64.7045	0.0000000E+000	0.0000000E+000	0.0000000E+000	-64.7045	0.0000000E+000	0.0000000E+000	0.0000000E+000	-25.2955	0.0000000E+000	0.0000000E+000	0.0000000E+000	25.2955	2.11594	64.7045	8.35228e-07	2.06136e-06	3.08877e-09	2.05827e-06	0.217513	23020.8	34.4947	22986.3
1000.32	3.30229	1.90924	3.81449	-30.0347	7.65081	0.21782	-0.0106166	83.3336	20.8771	1	10	0.00514566	0.00134898	0	6.62396e-06	0.000135506	5.13202e-06	47.0457	0.00380437	0.00259235	-0.00278441	-29.979	3.81534	3.30488	1.90646	0.226956	0.131217	0.262158	30.0347	20877.1	36109.7	41710.5	-59.9653	0.0000000E+000	0.0000000E+000	0.0000000E+000	59.9653	0.0000000E+000	0.0000000E+000	0.0000000E+000	-59.9653	0.0000000E+000	0.0000000E+000	0.0000000E+000	-30.0347	0.0000000E+000	0.0000000E+000	0.0000000E+000	30.0347	1.72963	59.9653	-5.47508e-07	-2.31251e-06	-1.43861e-09	-2.31108e-06	0.217685	20516.9	12.7636	20504.2
316.316	4.65468	3.60556	5.88779	-37.7618	9.00101	0.217834	-0.0107247	139.549	52.332	1	10	0.00481055	0.000817038	0	1.68583e-06	0.000326414	3.77954e-06	15.2742	0.00462591	0.00446251	-0.00121864	-37.7258	5.89057	4.65914	3.60435	0.134272	0.104008	0.169843	37.7618	52332	67559.1	85456.8	-52.2382	0.0000000E+000	0.0000000E+000	0.0000000E+000	52.2382	0.0000000E+000	0.0000000E+000	0.0000000E+000	-52.2382	0.0000000E+000	0.0000000E+000	0.0000000E+000	-37.7618	0.0000000E+000	0.0000000E+000	0.0000000E+000	37.7618	1.29097	52.2382	-1.86953e-06	-2.33619e-06	-3.50068e-09	-2.33269e-06	0.217507	20311.5	30.4358	20281
100.032	8.07365	6.99934	10.6852	-40.9232	10.3489	0.217829	-0.00962573	227.313	97.5368	1	10	0.00469591	0.000439476	0	-1.69871e-06	0.000440959	6.3802e-06	47.1604	0.0145177	0.00987131	-0.0106453	-40.8454	10.6857	8.08352	6.98869	0.0707132	0.0613038	0.093587	40.9232	97536.8	112508	148901	-49.0768	0.0000000E+000	0.0000000E+000	0.0000000E+000	49.0768	0.0000000E+000	0.0000000E+000	0.0000000E+000	-49.0768	0.0000000E+000	0.0000000E+000	0.0000000E+000	-40.9232	0.0000000E+000	0.0000000E+000	0.0000000E+000	40.9232	1.15349	49.0768	-1.77814e-06	-2.09676e-06	-4.24455e-09	-2.09252e-06	0.217388	22629.8	45.8105	22584
[...]
1.00006	25.9165	1.63302	25.9679	-3.60549	20.4008	0.21785	-0.00798869	97454.5	385.399	1	12	0.00466674	0.000179712	0	-1.91322e-05	5.91423e-05	2.27473e-06	-32.5163	0.0126577	0.0106734	0.006804	-3.61898	25.9789	25.9271	1.63982	0.0384329	0.00242169	0.0385091	3.60549	385399	6.1164e+06	6.12853e+06	-86.3945	0.0000000E+000	0.0000000E+000	0.0000000E+000	86.3945	0.0000000E+000	0.0000000E+000	0.0000000E+000	-86.3945	0.0000000E+000	0.0000000E+000	0.0000000E+000	-3.60549	0.0000000E+000	0.0000000E+000	0.0000000E+000	3.60549	15.8703	86.3945	-9.42947e-07	-1.74034e-06	-4.7247e-10	-1.73986e-06	0.217791	27269.8	7.40326	27262.4
0.316193	26.6684	1.70865	26.7231	-3.66594	34.7439	0.217844	-0.0056768	294588	1204.34	1	12	0.004665	0.000174568	0	-5.80419e-05	0.00023096	1.91628e-06	-14.1657	0.0109773	0.0106435	0.00268643	-3.67023	26.7339	26.679	1.71134	0.0373443	0.00239266	0.0374208	3.66594	1.20434e+06	1.87971e+07	1.88357e+07	-86.3341	0.0000000E+000	0.0000000E+000	0.0000000E+000	86.3341	0.0000000E+000	0.0000000E+000	0.0000000E+000	-86.3341	0.0000000E+000	0.0000000E+000	0.0000000E+000	-3.66594	0.0000000E+000	0.0000000E+000	0.0000000E+000	3.66594	15.6079	86.3341	-2.45326e-05	-1.23666e-06	-1.31111e-09	-1.23535e-06	0.217614	38374.5	40.6849	38333.8
0.0999041	27.7974	2.87056	27.9452	-5.89589	79.9528	0.217843	-0.00531832	554970	5855.85	1	12	0.00466865	0.000167065	0	-0.000172002	0.000421868	2.72285e-06	-26.8551	0.0162982	0.0145405	0.00736249	-5.90784	27.9604	27.8119	2.87793	0.035595	0.00367581	0.0357843	5.89589	5.85586e+06	5.67057e+07	5.70072e+07	-84.1041	0.0000000E+000	0.0000000E+000	0.0000000E+000	84.1041	0.0000000E+000	0.0000000E+000	0.0000000E+000	-84.1041	0.0000000E+000	0.0000000E+000	0.0000000E+000	-5.89589	0.0000000E+000	0.0000000E+000	0.0000000E+000	5.89589	9.68359	84.1041	-3.37608e-05	-1.15856e-06	-2.24363e-09	-1.15632e-06	0.217421	40960.8	79.3236	40881.5
0.0315922	29.7938	5.65975	30.3266	-10.756	222.835	0.217834	-0.00225998	890108	31002	1	12	0.00466658	0.000153877	0	-5.86806e-05	2.09606e-05	2.81894e-06	-6.84658	0.0183194	0.0181888	0.00218388	-10.7536	30.3449	29.812	5.66194	0.032395	0.00615388	0.0329743	10.756	3.1002e+07	1.63199e+08	1.66118e+08	-79.244	0.0000000E+000	0.0000000E+000	0.0000000E+000	79.244	0.0000000E+000	0.0000000E+000	0.0000000E+000	-79.244	0.0000000E+000	0.0000000E+000	0.0000000E+000	-10.756	0.0000000E+000	0.0000000E+000	0.0000000E+000	10.756	5.26416	79.244	8.23873e-05	-4.923e-07	-4.73706e-11	-4.92252e-07	0.217813	96387.5	9.2747	96378.2
0.0100092	34.148	11.7486	36.1126	-18.9857	674.058	0.217829	0.00112232	1.35343e+06	143249	1	12	0.00466463	0.000129169	0	-0.000267378	9.7324e-05	1.45315e-06	16.6192	0.01125	0.01078	-0.0032176	-18.9753	36.1217	34.1588	11.7454	0.0261848	0.00900885	0.0276912	18.9857	1.43249e+08	4.16362e+08	4.40315e+08	-71.0143	0.0000000E+000	0.0000000E+000	0.0000000E+000	71.0143	0.0000000E+000	0.0000000E+000	0.0000000E+000	-71.0143	0.0000000E+000	0.0000000E+000	0.0000000E+000	-18.9857	0.0000000E+000	0.0000000E+000	0.0000000E+000	18.9857	2.90656	71.0143	-0.000236719	2.44473e-07	1.09228e-10	2.44364e-07	0.217731	194088	86.717	194002