Folder: EIS/txt (part 139)

File: 18938_R306_UA703_SOC00_C05.mpt
EC-Lab ASCII FILE
Nb header lines : 65

Potentio Electrochemical Impedance Spectroscopy

Run on channel : 5 (SN 65912)
Grouped channel(s) : 1, 2, 3, 4, 5
User :
CE vs. WE compliance from -10 V to 10 V
Electrode connection : standard
Potential control : Ewe
Ewe ctrl range : min = -10.00 V, max = 10.00 V
Safety Limits :
	Do not start on E overload
Acquisition started on : 11/04/2025 15:05:27.163
Loaded Setting File :  C:\Users\Celltest\OneDrive - store-dot.com\Documents\EC-Lab\Data\@Biologic Test Protocols\anode half cell EIS SOC00.mps
Saved on :
	File : 18934_R306_UA703_SOC00_C05.mpr
	Directory : C:\Users\Celltest\OneDrive - store-dot.com\Documents\EC-Lab\Data\Charmaine\
	Host : 169.254.61.224
Device : VMP-3e (SN .003165)
Address : USB
EC-LAB for windows v11.62 (software)
Internet server v27.00 (firmware)
Command interpretor v12.03 (firmware)
Electrode material :
Initial state :
Electrolyte :
Comments :
Electrode surface area : 0.001 cm²
Characteristic mass : 0.001 g
Equivalent Weight : 0.000 g/eq.
Density : 0.000 g/cm3
Volume (V) : 0.001 cm³
Record Ece
Cycle Definition : Charge/Discharge alternance
Mode                Single sine
E (V)               0.0000
vs.                 Eoc
tE (h:m:s)          0:00:0.0000
record              0
dI                  0.000
unit dI             mA
dt (s)              0.000
fi                  100.000
unit fi             kHz
ff                  10.000
unit ff             mHz
Nd                  6
Points              per decade
spacing             Logarithmic
Va (mV)             5.0
pw                  0.10
Na                  2
corr                0
E range min (V)     -10.000
E range max (V)     10.000
I Range             Auto
Bandwidth           5
nc cycles           0
goto Ns'            0
nr cycles           0
inc. cycle          0

freq/Hz	Re(Z)/Ohm	-Im(Z)/Ohm	|Z|/Ohm	Phase(Z)/deg	time/s	<Ewe>/V	<I>/mA	Cs/µF	Cp/µF	cycle number	I Range	|Ewe|/V	|I|/A	Ns	(Q-Qo)/mA.h	<Ece>/V	|Ece|/V	Phase(Zce)/deg	|Zce|/Ohm	Re(Zce)/Ohm	-Im(Zce)/Ohm	Phase(Zwe-ce)/deg	|Zwe-ce|/Ohm	Re(Zwe-ce)/Ohm	-Im(Zwe-ce)/Ohm	Re(Y)/Ohm-1	Im(Y)/Ohm-1	|Y|/Ohm-1	Phase(Y)/deg	Re(C)/nF	Im(C)/nF	|C|/nF	Phase(C)/deg	Re(M)	Im(M)	|M|	Phase(M)/deg	Re(Permittivity)	Im(Permittivity)	|Permittivity|	Phase(Permittivity)/deg	Re(Resistivity)/Ohm.cm	Im(Resistivity)/Ohm.cm	|Resistivity|/Ohm.cm	Phase(Resistivity)/deg	Re(Conductivity)/mS/cm	Im(Conductivity)/mS/cm	|Conductivity|/mS/cm	Phase(Conductivity)/deg	Tan(Delta)	Loss Angle(Delta)/deg	dq/mA.h	Pwe/W	Pce/W	Pwe-ce/W	<Ewe-Ece>/V	Rwe/Ohm	Rce/Ohm	Rwe-ce/Ohm		Ewe-Ece/V
100004	1.45406	0.52269	1.54515	-19.772	1.86854	0.245809	-0.0062778	3.04481	0.348423	1	9	0.00485596	0.00314271	0	-5.70479e-06	-3.90715e-05	3.38968e-05	41.075	0.0107858	0.00813091	-0.00708679	-19.4239	1.55043	1.46219	0.515603	0.609033	0.218929	0.647187	19.772	348.423	969.269	1029.99	-70.228	0.0000000E+000	0.0000000E+000	0.0000000E+000	70.228	0.0000000E+000	0.0000000E+000	0.0000000E+000	-70.228	0.0000000E+000	0.0000000E+000	0.0000000E+000	-19.772	0.0000000E+000	0.0000000E+000	0.0000000E+000	19.772	2.78188	70.228	-5.70479e-06	-1.54314e-06	2.45283e-10	-1.54338e-06	0.245848	39155.2	6.22375	39161.4
31621.1	1.93665	0.731696	2.07026	-20.6974	3.14755	0.245777	0.000574318	6.87879	0.859258	1	9	0.00539999	0.00260836	0	-8.87602e-06	1.82022e-05	1.44827e-05	40.5899	0.00555241	0.00421642	-0.00361262	-20.5628	2.07293	1.94086	0.728083	0.451856	0.170719	0.483031	20.6974	859.258	2274.28	2431.18	-69.3026	0.0000000E+000	0.0000000E+000	0.0000000E+000	69.3026	0.0000000E+000	0.0000000E+000	0.0000000E+000	-69.3026	0.0000000E+000	0.0000000E+000	0.0000000E+000	-20.6974	0.0000000E+000	0.0000000E+000	0.0000000E+000	20.6974	2.64679	69.3026	-3.69559e-06	1.41154e-07	1.04538e-11	1.41144e-07	0.245759	427946	31.6935	427914
10002.2	2.50175	0.949401	2.67584	-20.7815	4.29652	0.245763	-0.0179339	16.76	2.10986	1	9	0.00543558	0.00203136	0	-1.58637e-05	0.000228206	1.33395e-05	-62.1734	0.0065668	0.00306537	0.00580744	-20.8743	2.68077	2.50481	0.955209	0.349401	0.132596	0.373715	20.7815	2109.86	5559.65	5946.53	-69.2185	0.0000000E+000	0.0000000E+000	0.0000000E+000	69.2185	0.0000000E+000	0.0000000E+000	0.0000000E+000	-69.2185	0.0000000E+000	0.0000000E+000	0.0000000E+000	-20.7815	0.0000000E+000	0.0000000E+000	0.0000000E+000	20.7815	2.63508	69.2185	-4.59497e-06	-4.40748e-06	-4.09261e-09	-4.40339e-06	0.245535	13703.8	12.7248	13691.1
3163.08	3.24274	1.3494	3.5123	-22.5937	5.62563	0.245725	-0.0259404	37.2879	5.50387	1	9	0.00504805	0.00143725	0	-1.88189e-05	-8.89057e-07	6.55987e-06	-65.5366	0.00456419	0.00189009	0.00415444	-22.6444	3.51565	3.24463	1.35356	0.262862	0.109385	0.284713	22.5937	5503.87	13226.3	14325.8	-67.4063	0.0000000E+000	0.0000000E+000	0.0000000E+000	67.4063	0.0000000E+000	0.0000000E+000	0.0000000E+000	-67.4063	0.0000000E+000	0.0000000E+000	0.0000000E+000	-22.5937	0.0000000E+000	0.0000000E+000	0.0000000E+000	22.5937	2.40309	67.4063	-5.9498e-06	-6.37422e-06	2.30625e-11	-6.37425e-06	0.245726	9472.67	0.034273	9472.7
1000.32	4.17877	2.01061	4.63731	-25.6945	7.2238	0.24576	-0.0146724	79.1322	14.8757	1	10	0.00500113	0.00107845	0	-2.39883e-05	-0.000134528	1.46393e-05	-101.746	0.0135743	-0.00276344	0.01329	-25.8572	4.6406	4.176	2.0239	0.194319	0.0934965	0.215642	25.6945	14875.7	30917	34309.5	-64.3055	0.0000000E+000	0.0000000E+000	0.0000000E+000	64.3055	0.0000000E+000	0.0000000E+000	0.0000000E+000	-64.3055	0.0000000E+000	0.0000000E+000	0.0000000E+000	-25.6945	0.0000000E+000	0.0000000E+000	0.0000000E+000	25.6945	2.07836	64.3055	-1.65468e-06	-3.60588e-06	1.97384e-09	-3.60786e-06	0.245895	16749.9	9.16878	16759
316.316	5.75097	3.50915	6.73705	-31.3909	8.57303	0.245756	-0.0141809	143.383	38.9011	1	10	0.00483045	0.000716998	0	-2.98272e-05	-1.99803e-05	4.74625e-06	-20.1152	0.00661962	0.00621584	0.00227655	-31.3799	6.74354	5.75719	3.51143	0.126707	0.0773148	0.148433	31.3909	38901.1	63753.1	74684.3	-58.6091	0.0000000E+000	0.0000000E+000	0.0000000E+000	58.6091	0.0000000E+000	0.0000000E+000	0.0000000E+000	-58.6091	0.0000000E+000	0.0000000E+000	0.0000000E+000	-31.3909	0.0000000E+000	0.0000000E+000	0.0000000E+000	31.3909	1.63885	58.6091	-1.54406e-06	-3.48504e-06	2.83338e-10	-3.48533e-06	0.245776	17330.1	1.40896	17331.5
100.032	9.29406	5.63797	10.8704	-31.2419	9.92086	0.245752	-0.0142852	282.201	75.912	1	10	0.00477494	0.00043926	0	-3.4274e-05	-0.000210892	9.85301e-06	89.2043	0.0224309	0.000311483	-0.0224288	-31.1398	10.8591	9.29438	5.61554	0.0786524	0.0477122	0.0919926	31.2419	75912	125139	146364	-58.7581	0.0000000E+000	0.0000000E+000	0.0000000E+000	58.7581	0.0000000E+000	0.0000000E+000	0.0000000E+000	-58.7581	0.0000000E+000	0.0000000E+000	0.0000000E+000	-31.2419	0.0000000E+000	0.0000000E+000	0.0000000E+000	31.2419	1.64848	58.7581	-1.94761e-06	-3.5106e-06	3.01263e-09	-3.51361e-06	0.245962	17203.3	14.7631	17218.1
[...]
1.00006	23.2271	2.28472	23.3392	-5.61781	19.9689	0.24577	-0.00785334	69656	667.506	1	12	0.00475942	0.000203924	0	-6.28042e-05	-9.63451e-05	1.26762e-06	-34.8326	0.00621614	0.00510236	0.00355054	-5.62526	23.3446	23.2322	2.28828	0.0426406	0.00419433	0.0428464	5.61781	667507	6.78603e+06	6.81878e+06	-84.3822	0.0000000E+000	0.0000000E+000	0.0000000E+000	84.3822	0.0000000E+000	0.0000000E+000	0.0000000E+000	-84.3822	0.0000000E+000	0.0000000E+000	0.0000000E+000	-5.61781	0.0000000E+000	0.0000000E+000	0.0000000E+000	5.61781	10.1662	84.3822	-3.4696e-06	-1.93011e-06	7.56631e-10	-1.93087e-06	0.245866	31294.9	12.2681	31307.2
0.316193	24.3029	2.18418	24.4008	-5.13556	34.311	0.24576	-0.00562377	230451	1846.49	1	12	0.00476134	0.00019513	0	-6.78345e-05	0.000228206	2.20347e-06	35.7581	0.0112923	0.00916363	-0.00659885	-5.11821	24.4094	24.312	2.17758	0.0408177	0.00366842	0.0409822	5.13556	1.84649e+06	2.05455e+07	2.06283e+07	-84.8644	0.0000000E+000	0.0000000E+000	0.0000000E+000	84.8644	0.0000000E+000	0.0000000E+000	0.0000000E+000	-84.8644	0.0000000E+000	0.0000000E+000	0.0000000E+000	-5.13556	0.0000000E+000	0.0000000E+000	0.0000000E+000	5.13556	11.1268	84.8644	-7.85132e-06	-1.38209e-06	-1.28337e-09	-1.38081e-06	0.245531	43700.2	40.5788	43659.6
0.0999041	25.3827	3.55271	25.6302	-7.96769	79.52	0.245747	-0.00469807	448411	8615.78	1	12	0.00475951	0.0001857	0	-0.000221495	0.000247297	3.155e-06	-65.5973	0.0169898	0.00701929	0.015472	-7.99975	25.6393	25.3898	3.56819	0.0386399	0.00540826	0.0390165	7.96769	8.61578e+06	6.15563e+07	6.21564e+07	-82.0323	0.0000000E+000	0.0000000E+000	0.0000000E+000	82.0323	0.0000000E+000	0.0000000E+000	0.0000000E+000	-82.0323	0.0000000E+000	0.0000000E+000	0.0000000E+000	-7.96769	0.0000000E+000	0.0000000E+000	0.0000000E+000	7.96769	7.1446	82.0323	-7.63677e-05	-1.15454e-06	-1.16182e-09	-1.15338e-06	0.2455	52308.2	52.638	52255.6
0.0315922	27.5065	7.71203	28.5672	-15.662	222.403	0.245757	-0.00510129	653238	47607.4	1	12	0.00476221	0.000166702	0	-0.000370645	0.00030457	2.92961e-06	2.61132	0.0175739	0.0175557	-0.000800675	-15.6509	28.5839	27.5241	7.71123	0.0337055	0.00945006	0.0350052	15.662	4.76074e+07	1.69801e+08	1.76349e+08	-74.338	0.0000000E+000	0.0000000E+000	0.0000000E+000	74.338	0.0000000E+000	0.0000000E+000	0.0000000E+000	-74.338	0.0000000E+000	0.0000000E+000	0.0000000E+000	-15.662	0.0000000E+000	0.0000000E+000	0.0000000E+000	15.662	3.5667	74.338	5.82836e-06	-1.25368e-06	-1.5537e-09	-1.25213e-06	0.245453	48175.5	59.7045	48115.8
0.0100092	32.7272	17.3085	37.0224	-27.8731	673.625	0.24575	-0.0039633	918676	200795	1	12	0.00475797	0.000128516	0	-0.000354772	0.000151841	7.0336e-07	56.4647	0.00547293	0.00302352	-0.00456194	-27.8647	37.0229	32.7302	17.3039	0.0238771	0.0126279	0.0270107	27.8731	2.00795e+08	3.79667e+08	4.29495e+08	-62.1269	0.0000000E+000	0.0000000E+000	0.0000000E+000	62.1269	0.0000000E+000	0.0000000E+000	0.0000000E+000	-62.1269	0.0000000E+000	0.0000000E+000	0.0000000E+000	-27.8731	0.0000000E+000	0.0000000E+000	0.0000000E+000	27.8731	1.89082	62.1269	-0.00014705	-9.73981e-07	-6.0179e-10	-9.7338e-07	0.245598	62006.4	38.3117	61968.1

File: 18939_R308_UA704_SOC00_C06.mpt
EC-Lab ASCII FILE
Nb header lines : 66

Potentio Electrochemical Impedance Spectroscopy

Run on channel : 6 (SN 65795)
Grouped channel(s) : 6, 7, 8
User :
CE vs. WE compliance from -10 V to 10 V
Electrode connection : standard
Potential control : Ewe
Ewe ctrl range : min = -10.00 V, max = 10.00 V
Safety Limits :
	Do not start on E overload
Acquisition started on : 11/04/2025 15:06:24.562
Loaded Setting File :  C:\Users\Celltest\OneDrive - store-dot.com\Documents\EC-Lab\Data\@Biologic Test Protocols\anode half cell EIS SOC00.mps
Saved on :
	File : 18939_R308_UA704_SOC00_C06.mpr
	Directory : C:\Users\Celltest\OneDrive - store-dot.com\Documents\EC-Lab\Data\Charmaine\
	Host : 169.254.61.224
Device : VMP-3e (SN .003165)
Address : USB
EC-LAB for windows v11.62 (software)
Internet server v27.00 (firmware)
Command interpretor v12.03 (firmware)
Electrode material :
Initial state :
Electrolyte :
Comments :
Electrode surface area : 0.001 cm²
Characteristic mass : 0.001 g
Equivalent Weight : 0.000 g/eq.
Density : 0.000 g/cm3
Volume (V) : 0.001 cm³
Record Ece
Cycle Definition : Charge/Discharge alternance
Mode                Single sine
E (V)               0.0000
vs.                 Eoc
tE (h:m:s)          0:00:0.0000
record              0
dI                  0.000
unit dI             mA
dt (s)              0.000
fi                  100.000
unit fi             kHz
ff                  10.000
unit ff             mHz
Nd                  6
Points              per decade
spacing             Logarithmic
Va (mV)             5.0
pw                  0.10
Na                  2
corr                0
E range min (V)     -10.000
E range max (V)     10.000
I Range             Auto
Bandwidth           5
nc cycles           0
goto Ns'            0
nr cycles           0
inc. cycle          0

freq/Hz	Re(Z)/Ohm	-Im(Z)/Ohm	|Z|/Ohm	Phase(Z)/deg	time/s	<Ewe>/V	<I>/mA	Cs/µF	Cp/µF	cycle number	I Range	|Ewe|/V	|I|/A	Ns	(Q-Qo)/mA.h	<Ece>/V	|Ece|/V	Phase(Zce)/deg	|Zce|/Ohm	Re(Zce)/Ohm	-Im(Zce)/Ohm	Phase(Zwe-ce)/deg	|Zwe-ce|/Ohm	Re(Zwe-ce)/Ohm	-Im(Zwe-ce)/Ohm	Re(Y)/Ohm-1	Im(Y)/Ohm-1	|Y|/Ohm-1	Phase(Y)/deg	Re(C)/nF	Im(C)/nF	|C|/nF	Phase(C)/deg	Re(M)	Im(M)	|M|	Phase(M)/deg	Re(Permittivity)	Im(Permittivity)	|Permittivity|	Phase(Permittivity)/deg	Re(Resistivity)/Ohm.cm	Im(Resistivity)/Ohm.cm	|Resistivity|/Ohm.cm	Phase(Resistivity)/deg	Re(Conductivity)/mS/cm	Im(Conductivity)/mS/cm	|Conductivity|/mS/cm	Phase(Conductivity)/deg	Tan(Delta)	Loss Angle(Delta)/deg	dq/mA.h	Pwe/W	Pce/W	Pwe-ce/W	<Ewe-Ece>/V	Rwe/Ohm	Rce/Ohm	Rwe-ce/Ohm		Ewe-Ece/V
100004	1.75192	0.648116	1.86796	-20.3017	1.72554	0.228466	-0.00384358	2.45557	0.295611	1	9	0.00455118	0.00243644	0	-2.25752e-06	-4.17831e-06	4.24689e-05	96.4997	0.0174307	-0.00197311	-0.0173187	-19.8225	1.86017	1.74995	0.630797	0.502086	0.185745	0.535343	20.3017	295.611	799.066	851.993	-69.6983	0.0000000E+000	0.0000000E+000	0.0000000E+000	69.6983	0.0000000E+000	0.0000000E+000	0.0000000E+000	-69.6983	0.0000000E+000	0.0000000E+000	0.0000000E+000	-20.3017	0.0000000E+000	0.0000000E+000	0.0000000E+000	20.3017	2.7031	69.6983	-2.25752e-06	-8.78126e-07	1.60597e-11	-8.78142e-07	0.22847	59440.8	1.08709	59441.9
31621.1	2.39554	0.919082	2.5658	-20.99	3.24951	0.22849	0.0178359	5.47631	0.702672	1	9	0.00507979	0.00197981	0	1.75757e-05	0.000263194	1.68621e-05	43.5676	0.00851704	0.00617112	-0.00587003	-20.8185	2.56947	2.40171	0.913212	0.36388	0.139608	0.389742	20.99	702.671	1831.47	1961.64	-69.01	0.0000000E+000	0.0000000E+000	0.0000000E+000	69.01	0.0000000E+000	0.0000000E+000	0.0000000E+000	-69.01	0.0000000E+000	0.0000000E+000	0.0000000E+000	-20.99	0.0000000E+000	0.0000000E+000	0.0000000E+000	20.99	2.60645	69.01	-2.82337e-07	4.07532e-06	4.6943e-09	4.07062e-06	0.228227	12810.7	14.7564	12795.9
10002.2	3.11688	1.07611	3.29742	-19.0474	4.27853	0.228483	0.00740588	14.7865	1.57483	1	9	0.00462939	0.00140395	0	1.92004e-05	0.000148606	3.65626e-06	-83.4401	0.00260428	0.000297517	0.00258723	-19.0882	3.29854	3.11718	1.0787	0.286663	0.0989714	0.303268	19.0474	1574.83	4561.37	4825.58	-70.9526	0.0000000E+000	0.0000000E+000	0.0000000E+000	70.9526	0.0000000E+000	0.0000000E+000	0.0000000E+000	-70.9526	0.0000000E+000	0.0000000E+000	0.0000000E+000	-19.0474	0.0000000E+000	0.0000000E+000	0.0000000E+000	19.0474	2.89643	70.9526	5.92464e-07	1.69212e-06	1.10056e-09	1.69102e-06	0.228334	30851.6	20.0659	30831.5
3163.08	3.89726	1.38016	4.13443	-19.5009	5.51162	0.228399	-0.0300665	36.4568	4.06265	1	10	0.00500899	0.00121153	0	1.37453e-05	0.000435077	1.36666e-06	48.9898	0.00112804	0.000740213	-0.000851212	-19.4864	4.13485	3.898	1.37931	0.227997	0.0807419	0.241871	19.5009	4062.65	11472	12170.1	-70.4991	0.0000000E+000	0.0000000E+000	0.0000000E+000	70.4991	0.0000000E+000	0.0000000E+000	0.0000000E+000	-70.4991	0.0000000E+000	0.0000000E+000	0.0000000E+000	-19.5009	0.0000000E+000	0.0000000E+000	0.0000000E+000	19.5009	2.82377	70.4991	-2.98275e-06	-6.86718e-06	-1.30812e-08	-6.85409e-06	0.227964	7596.47	14.4705	7582
1000.32	4.95851	1.98348	5.34051	-21.8021	6.86483	0.228432	-0.0116946	80.2147	11.0648	1	10	0.00488492	0.000914693	0	9.33201e-06	0.000415978	9.71402e-06	125.594	0.01062	-0.00618117	-0.0086358	-21.7406	5.33156	4.95233	1.97484	0.173855	0.0695444	0.187248	21.8021	11064.8	27661	29791.9	-68.1979	0.0000000E+000	0.0000000E+000	0.0000000E+000	68.1979	0.0000000E+000	0.0000000E+000	0.0000000E+000	-68.1979	0.0000000E+000	0.0000000E+000	0.0000000E+000	-21.8021	0.0000000E+000	0.0000000E+000	0.0000000E+000	21.8021	2.49991	68.1979	-1.50201e-06	-2.67142e-06	-4.8647e-09	-2.66655e-06	0.228016	19533.1	35.5701	19497.5
316.316	6.57594	3.05261	7.24992	-24.9012	8.21504	0.22843	-0.0116872	164.827	29.2216	1	10	0.00482646	0.000665725	0	4.65655e-06	0.000129508	4.6544e-06	44.301	0.00699147	0.00500366	-0.00488303	-24.8495	7.25241	6.58094	3.04773	0.12511	0.0580771	0.137932	24.9012	29221.6	62949.2	69401	-65.0988	0.0000000E+000	0.0000000E+000	0.0000000E+000	65.0988	0.0000000E+000	0.0000000E+000	0.0000000E+000	-65.0988	0.0000000E+000	0.0000000E+000	0.0000000E+000	-24.9012	0.0000000E+000	0.0000000E+000	0.0000000E+000	24.9012	2.1542	65.0988	-1.85324e-06	-2.6697e-06	-1.51358e-09	-2.66818e-06	0.2283	19545.4	11.0812	19534.3
100.032	9.65901	4.19246	10.5296	-23.4631	9.56176	0.228429	-0.010763	379.501	60.1621	1	10	0.00481739	0.000457508	0	-1.67595e-07	-6.14724e-05	6.22619e-06	60.6444	0.0136089	0.00667149	-0.0118615	-23.3894	10.531	9.66569	4.18059	0.0871176	0.0378131	0.09497	23.4631	60162.1	138608	151101	-66.5369	0.0000000E+000	0.0000000E+000	0.0000000E+000	66.5369	0.0000000E+000	0.0000000E+000	0.0000000E+000	-66.5369	0.0000000E+000	0.0000000E+000	0.0000000E+000	-23.4631	0.0000000E+000	0.0000000E+000	0.0000000E+000	23.4631	2.3039	66.5369	-7.66689e-07	-2.45857e-06	6.61626e-10	-2.45923e-06	0.22849	21223.6	5.71147	21229.3
[...]
0.316193	17.4323	1.39822	17.4883	-4.5858	33.9718	0.228462	-0.0047995	359990	2301.17	1	12	0.00481316	0.000275222	0	-2.33169e-05	0.000282292	6.27008e-07	75.9296	0.00227819	0.000553859	-0.00220984	-4.57844	17.4887	17.4329	1.39601	0.056998	0.00457174	0.0571811	4.5858	2.30117e+06	2.86898e+07	2.87819e+07	-85.4142	0.0000000E+000	0.0000000E+000	0.0000000E+000	85.4142	0.0000000E+000	0.0000000E+000	0.0000000E+000	-85.4142	0.0000000E+000	0.0000000E+000	0.0000000E+000	-4.5858	0.0000000E+000	0.0000000E+000	0.0000000E+000	4.5858	12.4675	85.4142	-1.0545e-05	-1.0965e-06	-1.35486e-09	-1.09515e-06	0.228179	47601.1	58.8171	47542.3
0.0999041	18.1482	2.88241	18.3757	-9.0247	79.1797	0.228476	-0.00602542	552689	13599	1	12	0.00481602	0.000262086	0	-0.000224313	1.49197e-05	3.63066e-06	67.4604	0.0138529	0.00531013	-0.0127947	-8.98271	18.3789	18.1535	2.86962	0.0537461	0.0085363	0.0544198	9.0247	1.3599e+07	8.56217e+07	8.66949e+07	-80.9753	0.0000000E+000	0.0000000E+000	0.0000000E+000	80.9753	0.0000000E+000	0.0000000E+000	0.0000000E+000	-80.9753	0.0000000E+000	0.0000000E+000	0.0000000E+000	-9.0247	0.0000000E+000	0.0000000E+000	0.0000000E+000	9.0247	6.29618	80.9753	-9.7948e-05	-1.37666e-06	-8.98976e-11	-1.37657e-06	0.228461	37918.6	2.47613	37916.1
0.0315922	19.7259	6.86093	20.885	-19.1784	222.063	0.228471	-0.00787709	734272	79242	1	12	0.00481692	0.000230641	0	-0.000357578	-4.17831e-06	2.63254e-06	13.3591	0.011414	0.0111052	-0.00263726	-19.1616	20.8946	19.737	6.8583	0.0452239	0.0157295	0.0478813	19.1784	7.92419e+07	2.27829e+08	2.41216e+08	-70.8216	0.0000000E+000	0.0000000E+000	0.0000000E+000	70.8216	0.0000000E+000	0.0000000E+000	0.0000000E+000	-70.8216	0.0000000E+000	0.0000000E+000	0.0000000E+000	-19.1784	0.0000000E+000	0.0000000E+000	0.0000000E+000	19.1784	2.8751	70.8216	3.33932e-05	-1.79968e-06	3.29129e-11	-1.79972e-06	0.228475	29004.4	0.530438	29005
0.0146812	22.3136	12.2969	25.4776	-28.8589	463.104	0.228469	-0.00772831	881585	205370	1	12	0.00481545	0.000189007	0	-0.000343578	0.000244096	9.53636e-07	-7.17693	0.0050455	0.00500597	0.000630354	-28.8547	25.4823	22.3186	12.2975	0.0343757	0.0189442	0.0392501	28.8589	2.0537e+08	3.72658e+08	4.25501e+08	-61.1411	0.0000000E+000	0.0000000E+000	0.0000000E+000	61.1411	0.0000000E+000	0.0000000E+000	0.0000000E+000	-61.1411	0.0000000E+000	0.0000000E+000	0.0000000E+000	-28.8589	0.0000000E+000	0.0000000E+000	0.0000000E+000	28.8589	1.81457	61.1411	-7.06766e-05	-1.76568e-06	-1.88645e-09	-1.76379e-06	0.228225	29562.7	31.5847	29531.1

0.0100092	24.1753	16.7278	29.3984	-34.6809	673.286	0.228465	-0.00817789	950567	307762	1	12	0.00481914	0.000163925	0	-0.000889378	-4.17831e-06	3.81241e-06	-26.9936	0.023257	0.0207233	0.0105561	-34.6748	29.4214	24.196	16.7384	0.0279721	0.019355	0.0340155	34.6809	3.07762e+08	4.44782e+08	5.40878e+08	-55.3191	0.0000000E+000	0.0000000E+000	0.0000000E+000	55.3191	0.0000000E+000	0.0000000E+000	0.0000000E+000	-55.3191	0.0000000E+000	0.0000000E+000	0.0000000E+000	-34.6809	0.0000000E+000	0.0000000E+000	0.0000000E+000	34.6809	1.44521	55.3191	-0.0005458	-1.86836e-06	3.41698e-11	-1.86839e-06	0.228469	27936.9	0.510928	27937.4