Folder: EIS/txt (part 44)

File: 17551_R290_UC83_50SOC_C07.mpt
EC-Lab ASCII FILE
Nb header lines : 64

Potentio Electrochemical Impedance Spectroscopy

Run on channel : 7 (SN 66126)
User :
CE vs. WE compliance from -10 V to 10 V
Electrode connection : standard
Potential control : Ewe
Ewe ctrl range : min = -10.00 V, max = 10.00 V
Safety Limits :
	Do not start on E overload
Acquisition started on : 09/16/2025 16:58:42.665
Loaded Setting File :  C:\Users\Celltest\OneDrive - store-dot.com\Documents\EC-Lab\Data\Michael\R290\17544_R290_UC82_50SOC.mps
Saved on :
	File : 17551_R290_UC83_50SOC_C07.mpr
	Directory : C:\Users\Celltest\OneDrive - store-dot.com\Documents\EC-Lab\Data\Michael\R290\
	Host : 169.254.61.224
Device : VMP-3e (SN .003165)
Address : USB
EC-LAB for windows v11.62 (software)
Internet server v27.00 (firmware)
Command interpretor v12.03 (firmware)
Electrode material :
Initial state :
Electrolyte :
Comments :
Electrode surface area : 0.001 cm²
Characteristic mass : 0.001 g
Equivalent Weight : 0.000 g/eq.
Density : 0.000 g/cm3
Volume (V) : 0.001 cm³
Record Ece
Cycle Definition : Charge/Discharge alternance
Mode                Multi sine
E (V)               0.0000
vs.                 Eoc
tE (h:m:s)          0:00:0.0000
record              0
dI                  0.000
unit dI             mA
dt (s)              0.000
fi                  1.000
unit fi             MHz
ff                  0.100
unit ff             mHz
Nd                  10
Points              per decade
spacing             Logarithmic
Va (mV)             5.0
pw                  0.10
Na                  2
corr                0
E range min (V)     -10.000
E range max (V)     10.000
I Range             Auto
Bandwidth           5
nc cycles           0
goto Ns'            0
nr cycles           0
inc. cycle          0

freq/Hz	Re(Z)/Ohm	-Im(Z)/Ohm	|Z|/Ohm	Phase(Z)/deg	time/s	<Ewe>/V	<I>/mA	Cs/µF	Cp/µF	cycle number	I Range	|Ewe|/V	|I|/A	Ns	(Q-Qo)/mA.h	<Ece>/V	|Ece|/V	Phase(Zce)/deg	|Zce|/Ohm	Re(Zce)/Ohm	-Im(Zce)/Ohm	Phase(Zwe-ce)/deg	|Zwe-ce|/Ohm	Re(Zwe-ce)/Ohm	-Im(Zwe-ce)/Ohm	Re(Y)/Ohm-1	Im(Y)/Ohm-1	|Y|/Ohm-1	Phase(Y)/deg	Re(C)/nF	Im(C)/nF	|C|/nF	Phase(C)/deg	Re(M)	Im(M)	|M|	Phase(M)/deg	Re(Permittivity)	Im(Permittivity)	|Permittivity|	Phase(Permittivity)/deg	Re(Resistivity)/Ohm.cm	Im(Resistivity)/Ohm.cm	|Resistivity|/Ohm.cm	Phase(Resistivity)/deg	Re(Conductivity)/mS/cm	Im(Conductivity)/mS/cm	|Conductivity|/mS/cm	Phase(Conductivity)/deg	Tan(Delta)	Loss Angle(Delta)/deg	dq/mA.h	Pwe/W	Pce/W	Pwe-ce/W	<Ewe-Ece>/V	Rwe/Ohm	Rce/Ohm	Rwe-ce/Ohm		Ewe-Ece/V
1.00002e+06	3.29283	2.86483	4.36463	-41.0239	2.23353	3.7925	-0.0518052	0.0555538	0.0239341	1	10	0.000218959	5.01668e-05	0	-2.46071e-05	-0.000288445	0.000201037	-65.7588	4.00737	1.64535	3.65402	-52.8552	8.17808	4.93818	6.51885	0.172852	0.150385	0.229115	41.0239	23.9341	27.5098	36.4641	-48.9761	0.0000000E+000	0.0000000E+000	0.0000000E+000	48.9761	0.0000000E+000	0.0000000E+000	0.0000000E+000	-48.9761	0.0000000E+000	0.0000000E+000	0.0000000E+000	-41.0239	0.0000000E+000	0.0000000E+000	0.0000000E+000	41.0239	1.1494	48.9761	-2.46071e-05	-0.000196471	1.4943e-08	-0.000196486	3.79278	73206.9	5.56789	73212.5
251206	0.693164	0.322578	0.764547	-24.9559	4.93854	3.79267	0.0259981	1.96406	0.349635	1	9	0.00158852	0.00207773	0	-1.1408e-05	-0.000173993	4.99933e-05	85.3246	0.0240615	0.00196129	-0.0239814	-23.2463	0.756544	0.695125	0.298596	1.18584	0.551856	1.30796	24.9559	349.635	751.306	828.677	-65.0442	0.0000000E+000	0.0000000E+000	0.0000000E+000	65.0442	0.0000000E+000	0.0000000E+000	0.0000000E+000	-65.0442	0.0000000E+000	0.0000000E+000	0.0000000E+000	-24.9559	0.0000000E+000	0.0000000E+000	0.0000000E+000	24.9559	2.14883	65.0442	1.12477e-06	9.86022e-05	-4.52348e-09	9.86068e-05	3.79285	145883	6.69253	145890
63093.8	0.977727	1.18736	1.53811	-50.5305	7.11255	3.7927	0.0353444	2.12446	1.26603	1	9	0.00535942	0.00348442	0	1.93458e-05	-0.000154917	2.31254e-05	55.9845	0.00663679	0.00371274	-0.00550114	-50.2932	1.53624	0.981439	1.18186	0.413278	0.501891	0.650148	50.5305	1266.03	1042.5	1640.01	-39.4695	0.0000000E+000	0.0000000E+000	0.0000000E+000	39.4695	0.0000000E+000	0.0000000E+000	0.0000000E+000	-39.4695	0.0000000E+000	0.0000000E+000	0.0000000E+000	-50.5305	0.0000000E+000	0.0000000E+000	0.0000000E+000	50.5305	0.823443	39.4695	1.23176e-05	0.000134051	-5.47546e-09	0.000134056	3.79286	107307	4.38309	107312
15847.7	2.40811	3.33486	4.11342	-54.1669	9.41453	3.7927	0.0287908	3.01146	1.97936	1	9	0.00523418	0.00127246	0	3.58205e-05	-2.13895e-05	8.44582e-06	-84.5217	0.00663738	0.000633662	0.00660706	-54.2135	4.11915	2.40874	3.34146	0.142321	0.197093	0.243107	54.1669	1979.36	1429.3	2441.47	-35.8331	0.0000000E+000	0.0000000E+000	0.0000000E+000	35.8331	0.0000000E+000	0.0000000E+000	0.0000000E+000	-35.8331	0.0000000E+000	0.0000000E+000	0.0000000E+000	-54.1669	0.0000000E+000	0.0000000E+000	0.0000000E+000	54.1669	0.722102	35.8331	2.1821e-06	0.000109195	-6.15819e-10	0.000109195	3.79273	131733	0.742929	131734
3983.6	7.44936	5.18476	9.07605	-34.838	11.668	3.79266	-0.036754	7.70576	2.51466	1	10	0.00479993	0.000528856	0	1.91458e-05	-4.04649e-05	6.17931e-06	-126.681	0.0116843	-0.00697976	0.00937046	-34.9117	9.07568	7.44238	5.19413	0.0904326	0.0629412	0.11018	34.838	2514.66	3613.01	4401.97	-55.162	0.0000000E+000	0.0000000E+000	0.0000000E+000	55.162	0.0000000E+000	0.0000000E+000	0.0000000E+000	-55.162	0.0000000E+000	0.0000000E+000	0.0000000E+000	-34.838	0.0000000E+000	0.0000000E+000	0.0000000E+000	34.838	1.43678	55.162	-3.32778e-06	-0.000139395	1.48725e-09	-0.000139397	3.7927	103190	1.10096	103191
1000.32	11.8876	3.64802	12.4348	-17.0599	14.5109	3.79257	-0.0371375	43.6138	3.75371	1	10	0.00475663	0.000382525	0	-1.13115e-05	-0.000593652	9.40218e-06	-19.8862	0.0245792	0.0231136	0.00836072	-17.0655	12.4593	11.9108	3.65638	0.0768809	0.0235928	0.0804195	17.0599	3753.71	12232.1	12795.1	-72.9401	0.0000000E+000	0.0000000E+000	0.0000000E+000	72.9401	0.0000000E+000	0.0000000E+000	0.0000000E+000	-72.9401	0.0000000E+000	0.0000000E+000	0.0000000E+000	-17.0599	0.0000000E+000	0.0000000E+000	0.0000000E+000	17.0599	3.25866	72.9401	-4.53453e-06	-0.000140846	2.20468e-08	-0.000140868	3.79316	102122	15.9852	102138
251.044	14.4237	2.4247	14.626	-9.54255	17.212	3.79257	-0.0374912	261.463	7.1858	1	10	0.00472383	0.000322974	0	-3.84136e-05	-0.0004792	4.83776e-06	-44.8522	0.0149788	0.0106189	0.0105643	-9.57643	14.6383	14.4343	2.43527	0.0674251	0.0113346	0.0683712	9.54255	7185.8	42745.6	43345.4	-80.4575	0.0000000E+000	0.0000000E+000	0.0000000E+000	80.4575	0.0000000E+000	0.0000000E+000	0.0000000E+000	-80.4575	0.0000000E+000	0.0000000E+000	0.0000000E+000	-9.54255	0.0000000E+000	0.0000000E+000	0.0000000E+000	9.54255	5.94863	80.4575	-4.52012e-06	-0.000142188	1.79658e-08	-0.000142206	3.79305	101159	12.7817	101172
63.0823	15.8959	1.45636	15.9625	-5.23475	19.9329	3.79258	-0.0345055	1732.38	14.4205	1	10	0.00471407	0.000295321	0	-6.45648e-05	-0.000154917	1.11501e-05	-92.8076	0.0377557	-0.00184938	0.0377103	-5.37014	15.9641	15.8941	1.49407	0.0623856	0.00571569	0.0626469	5.23475	14420.5	157397	158056	-84.7652	0.0000000E+000	0.0000000E+000	0.0000000E+000	84.7652	0.0000000E+000	0.0000000E+000	0.0000000E+000	-84.7652	0.0000000E+000	0.0000000E+000	0.0000000E+000	-5.23475	0.0000000E+000	0.0000000E+000	0.0000000E+000	5.23475	10.9148	84.7652	-4.43796e-06	-0.000130865	5.3455e-09	-0.00013087	3.79273	109912	4.48964	109917
[...]
0.0602816	18.6144	1.41501	18.6681	-4.34709	240.563	3.79261	-0.0171372	1.86585e+06	10720	1	11	0.00507662	0.000271941	0	-0.0025884	-4.04649e-05	7.8479e-07	8.72459	0.00288588	0.00285249	-0.000437745	-4.34508	18.6709	18.6172	1.41457	0.0534132	0.00406031	0.0535673	4.34709	1.072e+07	1.41021e+08	1.41428e+08	-85.6529	0.0000000E+000	0.0000000E+000	0.0000000E+000	85.6529	0.0000000E+000	0.0000000E+000	0.0000000E+000	-85.6529	0.0000000E+000	0.0000000E+000	0.0000000E+000	-4.34709	0.0000000E+000	0.0000000E+000	0.0000000E+000	4.34709	13.155	85.6529	0.000000000000000E+000	-6.49948e-05	6.93457e-10	-6.49955e-05	3.79265	221308	2.36123	221310
0.00796479	22.9181	2.90376	23.1013	-7.22098	20329.5	3.79264	0.00131318	6.88154e+06	108726	1	11	0.00507021	0.000219477	0	0.00532496	-0.000631803	3.10737e-07	-40.1183	0.00141581	0.00108269	0.000912299	-7.22289	23.1025	22.9192	2.90467	0.0429442	0.00544109	0.0432875	7.22098	1.08726e+08	8.58125e+08	8.64986e+08	-82.779	0.0000000E+000	0.0000000E+000	0.0000000E+000	82.779	0.0000000E+000	0.0000000E+000	0.0000000E+000	-82.779	0.0000000E+000	0.0000000E+000	0.0000000E+000	-7.22098	0.0000000E+000	0.0000000E+000	0.0000000E+000	7.22098	7.89257	82.779	0.00791335	4.98043e-06	-8.29673e-10	4.98126e-06	3.79327	2.88813e+06	481.124	2.88861e+06
0.0019912	25.0863	3.8112	25.3741	-8.63853	20329.5	3.79264	0.00131318	2.09722e+07	473135	1	11	0.00508119	0.000200251	0	0.00532496	-0.000631803	1.71208e-06	26.7161	0.00854968	0.00763696	-0.00384368	-8.62736	25.3811	25.0939	3.80736	0.0389631	0.00591942	0.0394102	8.63853	4.73135e+08	3.11429e+09	3.15003e+09	-81.3615	0.0000000E+000	0.0000000E+000	0.0000000E+000	81.3615	0.0000000E+000	0.0000000E+000	0.0000000E+000	-81.3615	0.0000000E+000	0.0000000E+000	0.0000000E+000	-8.63853	0.0000000E+000	0.0000000E+000	0.0000000E+000	8.63853	6.58225	81.3615	0.000000000000000E+000	4.98043e-06	-8.29673e-10	4.98126e-06	3.79327	2.88813e+06	481.124	2.88861e+06
0.000497799	26.3593	9.03477	27.8646	-18.9194	20329.5	3.79264	0.00131318	3.53874e+07	3.72029e+06	1	11	0.00508489	0.000182486	0	0.00532496	-0.000631803	3.00836e-06	-134.634	0.0164854	-0.0115823	0.0117312	-18.95	27.8575	26.3477	9.04651	0.033949	0.0116362	0.0358878	18.9194	3.72029e+09	1.08541e+10	1.14739e+10	-71.0806	0.0000000E+000	0.0000000E+000	0.0000000E+000	71.0806	0.0000000E+000	0.0000000E+000	0.0000000E+000	-71.0806	0.0000000E+000	0.0000000E+000	0.0000000E+000	-18.9194	0.0000000E+000	0.0000000E+000	0.0000000E+000	18.9194	2.91753	71.0806	0.000000000000000E+000	4.98043e-06	-8.29673e-10	4.98126e-06	3.79327	2.88813e+06	481.124	2.88861e+06
9.95598e-05	30.1498	40.6201	50.5866	-53.4158	20329.5	3.79264	0.00131318	3.93546e+07	2.5375e+07	1	11	0.00508287	0.000100479	0	0.00532496	-0.000631803	2.39204e-06	-132.931	0.0238064	-0.0162148	0.0174306	-53.4423	50.5909	30.1336	40.6375	0.0117819	0.0158734	0.0197681	53.4158	2.5375e+10	1.88343e+10	3.1601e+10	-36.5842	0.0000000E+000	0.0000000E+000	0.0000000E+000	36.5842	0.0000000E+000	0.0000000E+000	0.0000000E+000	-36.5842	0.0000000E+000	0.0000000E+000	0.0000000E+000	-53.4158	0.0000000E+000	0.0000000E+000	0.0000000E+000	53.4158	0.742239	36.5842	0.000000000000000E+000	4.98043e-06	-8.29673e-10	4.98126e-06	3.79327	2.88813e+06	481.124	2.88861e+06

File: 17552_R290_UC83_50SOC_C08.mpt
EC-Lab ASCII FILE
Nb header lines : 64

Potentio Electrochemical Impedance Spectroscopy

Run on channel : 8 (SN 65398)
User :
CE vs. WE compliance from -10 V to 10 V
Electrode connection : standard
Potential control : Ewe
Ewe ctrl range : min = -10.00 V, max = 10.00 V
Safety Limits :
	Do not start on E overload
Acquisition started on : 09/16/2025 16:59:08.715
Loaded Setting File :  C:\Users\Celltest\OneDrive - store-dot.com\Documents\EC-Lab\Data\Michael\R290\17544_R290_UC82_50SOC.mps
Saved on :
	File : 17552_R290_UC83_50SOC_C08.mpr
	Directory : C:\Users\Celltest\OneDrive - store-dot.com\Documents\EC-Lab\Data\Michael\R290\
	Host : 169.254.61.224
Device : VMP-3e (SN .003165)
Address : USB
EC-LAB for windows v11.62 (software)
Internet server v27.00 (firmware)
Command interpretor v12.03 (firmware)
Electrode material :
Initial state :
Electrolyte :
Comments :
Electrode surface area : 0.001 cm²
Characteristic mass : 0.001 g
Equivalent Weight : 0.000 g/eq.
Density : 0.000 g/cm3
Volume (V) : 0.001 cm³
Record Ece
Cycle Definition : Charge/Discharge alternance
Mode                Multi sine
E (V)               0.0000
vs.                 Eoc
tE (h:m:s)          0:00:0.0000
record              0
dI                  0.000
unit dI             mA
dt (s)              0.000
fi                  1.000
unit fi             MHz
ff                  0.100
unit ff             mHz
Nd                  10
Points              per decade
spacing             Logarithmic
Va (mV)             5.0
pw                  0.10
Na                  2
corr                0
E range min (V)     -10.000
E range max (V)     10.000
I Range             Auto
Bandwidth           5
nc cycles           0
goto Ns'            0
nr cycles           0
inc. cycle          0

freq/Hz	Re(Z)/Ohm	-Im(Z)/Ohm	|Z|/Ohm	Phase(Z)/deg	time/s	<Ewe>/V	<I>/mA	Cs/µF	Cp/µF	cycle number	I Range	|Ewe|/V	|I|/A	Ns	(Q-Qo)/mA.h	<Ece>/V	|Ece|/V	Phase(Zce)/deg	|Zce|/Ohm	Re(Zce)/Ohm	-Im(Zce)/Ohm	Phase(Zwe-ce)/deg	|Zwe-ce|/Ohm	Re(Zwe-ce)/Ohm	-Im(Zwe-ce)/Ohm	Re(Y)/Ohm-1	Im(Y)/Ohm-1	|Y|/Ohm-1	Phase(Y)/deg	Re(C)/nF	Im(C)/nF	|C|/nF	Phase(C)/deg	Re(M)	Im(M)	|M|	Phase(M)/deg	Re(Permittivity)	Im(Permittivity)	|Permittivity|	Phase(Permittivity)/deg	Re(Resistivity)/Ohm.cm	Im(Resistivity)/Ohm.cm	|Resistivity|/Ohm.cm	Phase(Resistivity)/deg	Re(Conductivity)/mS/cm	Im(Conductivity)/mS/cm	|Conductivity|/mS/cm	Phase(Conductivity)/deg	Tan(Delta)	Loss Angle(Delta)/deg	dq/mA.h	Pwe/W	Pce/W	Pwe-ce/W	<Ewe-Ece>/V	Rwe/Ohm	Rce/Ohm	Rwe-ce/Ohm		Ewe-Ece/V
1.00002e+06	2.11878	3.19971	3.83763	-56.4884	2.23456	3.79201	-0.0308978	0.0497395	0.0345778	1	10	0.000231199	6.02453e-05	0	-2.40586e-05	0.000273542	0.000204863	-67.7514	3.40048	1.28751	3.14732	-61.7787	7.2033	3.40629	6.34703	0.143866	0.217263	0.260578	56.4884	34.5778	22.8966	41.4715	-33.5116	0.0000000E+000	0.0000000E+000	0.0000000E+000	33.5116	0.0000000E+000	0.0000000E+000	0.0000000E+000	-33.5116	0.0000000E+000	0.0000000E+000	0.0000000E+000	-56.4884	0.0000000E+000	0.0000000E+000	0.0000000E+000	56.4884	0.662177	33.5116	-2.40586e-05	-0.000117165	-8.45184e-09	-0.000117156	3.79174	122728	8.85312	122719
251206	0.844048	0.317256	0.901703	-20.6	4.93952	3.79161	-0.0353025	1.99701	0.247214	1	9	0.00216596	0.00240208	0	-4.95179e-05	4.44852e-05	9.03946e-05	97.8086	0.0376319	-0.00511283	-0.0372829	-18.4551	0.884419	0.838935	0.279973	1.0381	0.390196	1.10901	20.6	247.214	657.703	702.629	-69.4	0.0000000E+000	0.0000000E+000	0.0000000E+000	69.4	0.0000000E+000	0.0000000E+000	0.0000000E+000	-69.4	0.0000000E+000	0.0000000E+000	0.0000000E+000	-20.6	0.0000000E+000	0.0000000E+000	0.0000000E+000	20.6	2.66046	69.4	-3.92968e-06	-0.000133854	-1.57044e-09	-0.000133852	3.79157	107403	1.26011	107402
63093.8	1.21241	1.1022	1.63853	-42.274	7.24356	3.79153	-0.0264112	2.28861	1.03558	1	9	0.00535624	0.00326893	0	-6.57267e-05	0.000139925	3.19242e-05	57.6365	0.00976597	0.00522762	-0.00824901	-41.9373	1.63688	1.21764	1.09395	0.451585	0.410536	0.610302	42.274	1035.58	1139.13	1539.49	-47.726	0.0000000E+000	0.0000000E+000	0.0000000E+000	47.726	0.0000000E+000	0.0000000E+000	0.0000000E+000	-47.726	0.0000000E+000	0.0000000E+000	0.0000000E+000	-42.274	0.0000000E+000	0.0000000E+000	0.0000000E+000	42.274	1.09999	47.726	-1.15885e-05	-0.000100139	-3.6956e-09	-0.000100135	3.79139	143558	5.29797	143553
15847.7	2.87334	2.39459	3.74034	-39.8073	9.54355	3.79152	-0.0270436	4.19394	1.71895	1	9	0.00521409	0.00139401	0	-7.0186e-05	8.26613e-05	1.22226e-05	-130.142	0.00876793	-0.00565256	0.00670262	-39.9416	3.7403	2.86769	2.4013	0.205383	0.171163	0.267355	39.8073	1718.95	2062.62	2684.99	-50.1927	0.0000000E+000	0.0000000E+000	0.0000000E+000	50.1927	0.0000000E+000	0.0000000E+000	0.0000000E+000	-50.1927	0.0000000E+000	0.0000000E+000	0.0000000E+000	-39.8073	0.0000000E+000	0.0000000E+000	0.0000000E+000	39.8073	1.19993	50.1927	-3.42381e-06	-0.000102537	-2.23546e-09	-0.000102534	3.79144	140200	3.05659	140197
3983.6	5.51474	2.32131	5.98338	-22.8276	11.5481	3.79146	-0.0596159	17.2112	2.5905	1	10	0.00515224	0.000861091	0	-9.70697e-05	0.000178102	8.54493e-06	-134.397	0.00992338	-0.00694264	0.00709036	-22.916	5.97974	5.5078	2.3284	0.154039	0.0648395	0.16713	22.8276	2590.5	6154.26	6677.25	-67.1724	0.0000000E+000	0.0000000E+000	0.0000000E+000	67.1724	0.0000000E+000	0.0000000E+000	0.0000000E+000	-67.1724	0.0000000E+000	0.0000000E+000	0.0000000E+000	-22.8276	0.0000000E+000	0.0000000E+000	0.0000000E+000	22.8276	2.3757	67.1724	-5.30503e-06	-0.000226031	-1.06177e-08	-0.000226021	3.79128	63598.1	2.98749	63595.2
1000.32	7.29748	1.985	7.56263	-15.2169	14.1768	3.7914	-0.0510079	80.1533	5.52198	1	10	0.00493759	0.000652893	0	-0.000135815	0.00019719	1.25512e-05	142.259	0.019224	-0.015202	-0.011767	-15.161	7.54488	7.28227	1.97323	0.127593	0.0347068	0.132229	15.2169	5521.98	20300.6	21038.2	-74.7831	0.0000000E+000	0.0000000E+000	0.0000000E+000	74.7831	0.0000000E+000	0.0000000E+000	0.0000000E+000	-74.7831	0.0000000E+000	0.0000000E+000	0.0000000E+000	-15.2169	0.0000000E+000	0.0000000E+000	0.0000000E+000	15.2169	3.67632	74.7831	-5.79293e-06	-0.000193391	-1.00582e-08	-0.000193381	3.7912	74329.6	3.86586	74325.7
251.044	9.05945	1.78158	9.23296	-11.1255	16.878	3.79139	-0.0507289	355.847	13.2493	1	10	0.00486731	0.000527167	0	-0.000173346	0.000330806	5.66251e-06	-52.8013	0.0107414	0.00649404	0.008556	-11.1698	9.24099	9.06594	1.79014	0.106272	0.0208989	0.108308	11.1255	13249.3	67373.5	68663.9	-78.8745	0.0000000E+000	0.0000000E+000	0.0000000E+000	78.8745	0.0000000E+000	0.0000000E+000	0.0000000E+000	-78.8745	0.0000000E+000	0.0000000E+000	0.0000000E+000	-11.1255	0.0000000E+000	0.0000000E+000	0.0000000E+000	11.1255	5.08506	78.8745	-5.84349e-06	-0.000192333	-1.67814e-08	-0.000192316	3.79106	74738.3	6.52106	74731.8
63.0823	10.4186	1.12257	10.4789	-6.14973	19.6	3.7914	-0.0456512	2247.49	25.7927	1	10	0.00486583	0.000464345	0	-0.000208422	0.000101749	7.39467e-06	-33.7724	0.0159249	0.0132376	0.00885258	-6.19005	10.493	10.4318	1.13143	0.0948807	0.0102231	0.0954299	6.14973	25792.7	239382	240767	-83.8503	0.0000000E+000	0.0000000E+000	0.0000000E+000	83.8503	0.0000000E+000	0.0000000E+000	0.0000000E+000	-83.8503	0.0000000E+000	0.0000000E+000	0.0000000E+000	-6.14973	0.0000000E+000	0.0000000E+000	0.0000000E+000	6.14973	9.28099	83.8503	-5.93208e-06	-0.000173082	-4.64498e-09	-0.000173077	3.7913	83051.6	2.22885	83049.4
[...]
0.0602816	12.5293	1.28452	12.595	-5.85357	240.288	3.79145	-0.0252249	2.05539e+06	21378.6	1	11	0.0052185	0.000414331	0	-0.00386666	0.000254454	9.07212e-07	-13.1479	0.00218959	0.00213219	0.000498054	-5.85484	12.5972	12.5315	1.28502	0.0789825	0.00809737	0.0793965	5.85357	2.13786e+07	2.08529e+08	2.09622e+08	-84.1464	0.0000000E+000	0.0000000E+000	0.0000000E+000	84.1464	0.0000000E+000	0.0000000E+000	0.0000000E+000	-84.1464	0.0000000E+000	0.0000000E+000	0.0000000E+000	-5.85357	0.0000000E+000	0.0000000E+000	0.0000000E+000	5.85357	9.75409	84.1464	0.000000000000000E+000	-9.5639e-05	-6.41857e-09	-9.56325e-05	3.7912	150306	10.0874	150296
0.00796479	16.2457	2.77129	16.4804	-9.68067	20329.2	3.79143	0.00120177	7.21049e+06	203889	1	11	0.00521203	0.000316257	0	-0.00980932	-0.00020366	3.2517e-07	-5.37209	0.00102818	0.00102367	9.62618e-05	-9.68041	16.4814	16.2467	2.77138	0.0598143	0.0102035	0.0606783	9.68067	2.03889e+08	1.19523e+09	1.21249e+09	-80.3193	0.0000000E+000	0.0000000E+000	0.0000000E+000	80.3193	0.0000000E+000	0.0000000E+000	0.0000000E+000	-80.3193	0.0000000E+000	0.0000000E+000	0.0000000E+000	-9.68067	0.0000000E+000	0.0000000E+000	0.0000000E+000	9.68067	5.86215	80.3193	-0.00594266	4.55644e-06	-2.44752e-10	4.55668e-06	3.79164	3.15487e+06	169.466	3.15504e+06
0.0019912	18.3793	3.76619	18.7612	-11.5804	20329.2	3.79143	0.00120177	2.12229e+07	855235	1	11	0.00522632	0.00027857	0	-0.00980932	-0.00020366	1.44492e-06	-99.3871	0.00518693	-0.000846007	0.00511747	-11.5963	18.7614	18.3785	3.77131	0.0522164	0.0106999	0.0533014	11.5804	8.55235e+08	4.17362e+09	4.26035e+09	-78.4196	0.0000000E+000	0.0000000E+000	0.0000000E+000	78.4196	0.0000000E+000	0.0000000E+000	0.0000000E+000	-78.4196	0.0000000E+000	0.0000000E+000	0.0000000E+000	-11.5804	0.0000000E+000	0.0000000E+000	0.0000000E+000	11.5804	4.88009	78.4196	0.000000000000000E+000	4.55644e-06	-2.44752e-10	4.55668e-06	3.79164	3.15487e+06	169.466	3.15504e+06
0.000497799	19.3866	8.62806	21.2199	-23.9916	20329.2	3.79143	0.00120177	3.70555e+07	6.12621e+06	1	11	0.00522545	0.000246252	0	-0.00980932	-0.00020366	2.7266e-06	31.3727	0.0110724	0.00945359	-0.00576432	-23.967	21.2262	19.3961	8.6223	0.0430542	0.0191613	0.0471255	23.9916	6.12621e+09	1.37652e+10	1.50668e+10	-66.0084	0.0000000E+000	0.0000000E+000	0.0000000E+000	66.0084	0.0000000E+000	0.0000000E+000	0.0000000E+000	-66.0084	0.0000000E+000	0.0000000E+000	0.0000000E+000	-23.9916	0.0000000E+000	0.0000000E+000	0.0000000E+000	23.9916	2.24693	66.0084	0.000000000000000E+000	4.55644e-06	-2.44752e-10	4.55668e-06	3.79164	3.15487e+06	169.466	3.15504e+06
9.95598e-05	22.4191	41.0158	46.743	-61.3391	20329.2	3.79143	0.00120177	3.89749e+07	3.00092e+07	1	11	0.00523004	0.000111889	0	-0.00980932	-0.00020366	2.77011e-06	6.12549	0.0247576	0.0246162	-0.00264179	-61.3111	46.7525	22.4437	41.0131	0.0102609	0.0187723	0.0213936	61.3391	3.00092e+10	1.64029e+10	3.41995e+10	-28.6609	0.0000000E+000	0.0000000E+000	0.0000000E+000	28.6609	0.0000000E+000	0.0000000E+000	0.0000000E+000	-28.6609	0.0000000E+000	0.0000000E+000	0.0000000E+000	-61.3391	0.0000000E+000	0.0000000E+000	0.0000000E+000	61.3391	0.546597	28.6609	0.000000000000000E+000	4.55644e-06	-2.44752e-10	4.55668e-06	3.79164	3.15487e+06	169.466	3.15504e+06