Folder: EIS/txt (part 100)

File: 18602_R301_UA696_SOC00_C01.mpt
EC-Lab ASCII FILE
Nb header lines : 65

Potentio Electrochemical Impedance Spectroscopy

Run on channel : 1 (SN 66354)
User :
CE vs. WE compliance from -10 V to 10 V
Electrode connection : standard
Potential control : Ewe
Ewe ctrl range : min = -10.00 V, max = 10.00 V
Safety Limits :
	Do not start on E overload
Acquisition started on : 10/27/2025 16:23:04.679
Technique started on : 10/27/2025 16:23:06.591
Loaded Setting File :  C:\Users\Celltest\OneDrive - store-dot.com\Documents\EC-Lab\Data\@Biologic Test Protocols\anode half cell EIS SOC00.mps
Saved on :
	File : 18602_R301_UA696_SOC00_C01.mpr
	Directory : C:\Users\Celltest\OneDrive - store-dot.com\Documents\EC-Lab\Data\Gyutae\
	Host : 169.254.61.224
Device : VMP-3e (SN .003165)
Address : USB
EC-LAB for windows v11.62 (software)
Internet server v27.00 (firmware)
Command interpretor v12.03 (firmware)
Electrode material :
Initial state :
Electrolyte :
Comments :
Electrode surface area : 0.001 cm²
Characteristic mass : 0.001 g
Equivalent Weight : 0.000 g/eq.
Density : 0.000 g/cm3
Volume (V) : 0.001 cm³
Record Ece
Cycle Definition : Charge/Discharge alternance
Mode                Single sine
E (V)               0.0000
vs.                 Eoc
tE (h:m:s)          0:00:0.0000
record              0
dI                  0.000
unit dI             mA
dt (s)              0.000
fi                  100.000
unit fi             kHz
ff                  10.000
unit ff             mHz
Nd                  6
Points              per decade
spacing             Logarithmic
Va (mV)             5.0
pw                  0.10
Na                  2
corr                0
E range min (V)     -10.000
E range max (V)     10.000
I Range             Auto
Bandwidth           5
nc cycles           0
goto Ns'            0
nr cycles           0
inc. cycle          0

freq/Hz	Re(Z)/Ohm	-Im(Z)/Ohm	|Z|/Ohm	Phase(Z)/deg	time/s	<Ewe>/V	<I>/mA	Cs/µF	Cp/µF	cycle number	I Range	|Ewe|/V	|I|/A	Ns	(Q-Qo)/mA.h	<Ece>/V	|Ece|/V	Phase(Zce)/deg	|Zce|/Ohm	Re(Zce)/Ohm	-Im(Zce)/Ohm	Phase(Zwe-ce)/deg	|Zwe-ce|/Ohm	Re(Zwe-ce)/Ohm	-Im(Zwe-ce)/Ohm	Re(Y)/Ohm-1	Im(Y)/Ohm-1	|Y|/Ohm-1	Phase(Y)/deg	Re(C)/nF	Im(C)/nF	|C|/nF	Phase(C)/deg	Re(M)	Im(M)	|M|	Phase(M)/deg	Re(Permittivity)	Im(Permittivity)	|Permittivity|	Phase(Permittivity)/deg	Re(Resistivity)/Ohm.cm	Im(Resistivity)/Ohm.cm	|Resistivity|/Ohm.cm	Phase(Resistivity)/deg	Re(Conductivity)/mS/cm	Im(Conductivity)/mS/cm	|Conductivity|/mS/cm	Phase(Conductivity)/deg	Tan(Delta)	Loss Angle(Delta)/deg	dq/mA.h	Pwe/W	Pce/W	Pwe-ce/W	<Ewe-Ece>/V	Rwe/Ohm	Rce/Ohm	Rwe-ce/Ohm		Ewe-Ece/V
100004	0.923938	0.332923	0.982089	-19.8156	1.91152	0.211	0.079161	4.78036	0.549346	1	9	0.00483229	0.00492042	0	1.22486e-05	0.000231267	4.26405e-05	99.9398	0.00866602	-0.00149586	-0.00853594	-19.3748	0.977817	0.922442	0.324387	0.957946	0.345177	1.01824	19.8156	549.346	1524.56	1620.51	-70.1844	0.0000000E+000	0.0000000E+000	0.0000000E+000	70.1844	0.0000000E+000	0.0000000E+000	0.0000000E+000	-70.1844	0.0000000E+000	0.0000000E+000	0.0000000E+000	-19.8156	0.0000000E+000	0.0000000E+000	0.0000000E+000	19.8156	2.77523	70.1844	1.22486e-05	1.6703e-05	1.83073e-08	1.66847e-05	0.210769	2665.46	2.92148	2662.54
31621.1	1.19834	0.458821	1.28318	-20.9508	3.30851	0.211015	0.0825883	10.9698	1.40253	1	9	0.00507884	0.00395802	0	5.89185e-05	-9.30469e-05	1.21579e-05	67.2412	0.00307171	0.0011883	-0.00283255	-20.8138	1.28328	1.19953	0.455989	0.727793	0.278657	0.779315	20.9508	1402.53	3663.11	3922.44	-69.0492	0.0000000E+000	0.0000000E+000	0.0000000E+000	69.0492	0.0000000E+000	0.0000000E+000	0.0000000E+000	-69.0492	0.0000000E+000	0.0000000E+000	0.0000000E+000	-20.9508	0.0000000E+000	0.0000000E+000	0.0000000E+000	20.9508	2.61179	69.0492	3.47209e-05	1.74274e-05	-7.68459e-09	1.74351e-05	0.211108	2555.03	1.12664	2556.15
10002.2	1.53559	0.620687	1.65629	-22.0086	4.45953	0.211003	0.0723806	25.636	3.60019	1	9	0.00490683	0.00296255	0	8.11671e-05	5.95716e-05	7.9342e-06	151.018	0.00267817	-0.00234278	-0.00129768	-21.9974	1.65363	1.53325	0.61939	0.559763	0.226257	0.60376	22.0086	3600.19	8906.92	9607	-67.9914	0.0000000E+000	0.0000000E+000	0.0000000E+000	67.9914	0.0000000E+000	0.0000000E+000	0.0000000E+000	-67.9914	0.0000000E+000	0.0000000E+000	0.0000000E+000	-22.0086	0.0000000E+000	0.0000000E+000	0.0000000E+000	22.0086	2.47401	67.9914	6.34168e-06	1.52725e-05	4.31183e-09	1.52682e-05	0.210943	2915.18	0.823032	2914.36
3163.08	1.95054	0.97884	2.18237	-26.6489	5.48363	0.210736	-0.0517881	51.4042	10.3411	1	9	0.00483077	0.00221355	0	8.52367e-05	0.000116803	5.81658e-06	11.6531	0.00262772	0.00257356	-0.000530763	-26.6062	2.18443	1.95311	0.978309	0.409543	0.205521	0.458218	26.6489	10341.1	20606.7	23055.9	-63.3511	0.0000000E+000	0.0000000E+000	0.0000000E+000	63.3511	0.0000000E+000	0.0000000E+000	0.0000000E+000	-63.3511	0.0000000E+000	0.0000000E+000	0.0000000E+000	-26.6489	0.0000000E+000	0.0000000E+000	0.0000000E+000	26.6489	1.9927	63.3511	-5.85686e-06	-1.09136e-05	-6.04903e-09	-1.09076e-05	0.210619	4069.19	2.25541	4066.94
1000.32	2.59753	1.88294	3.20821	-35.9381	6.83684	0.210853	0.071412	84.4978	29.1065	1	9	0.00471421	0.00146942	0	0.000111877	0.000154958	9.49315e-06	24.994	0.00646047	0.00585546	-0.0027297	-35.8374	3.21136	2.60339	1.88021	0.252368	0.18294	0.3117	35.9381	29106.5	40152.8	49592.7	-54.0619	0.0000000E+000	0.0000000E+000	0.0000000E+000	54.0619	0.0000000E+000	0.0000000E+000	0.0000000E+000	-54.0619	0.0000000E+000	0.0000000E+000	0.0000000E+000	-35.9381	0.0000000E+000	0.0000000E+000	0.0000000E+000	35.9381	1.37951	54.0619	1.00682e-05	1.50574e-05	1.10659e-08	1.50464e-05	0.210698	2952.63	2.16992	2950.46
316.316	4.31753	3.79614	5.74907	-41.3232	8.43206	0.210903	-0.0234131	132.543	57.7892	1	10	0.00471016	0.000819291	0	0.000108387	0.000174035	4.82163e-06	-52.5828	0.00588512	0.00357588	0.00467416	-41.3346	5.75484	4.32111	3.80081	0.130629	0.114854	0.173941	41.3232	57789.2	65726.4	87518.9	-48.6768	0.0000000E+000	0.0000000E+000	0.0000000E+000	48.6768	0.0000000E+000	0.0000000E+000	0.0000000E+000	-48.6768	0.0000000E+000	0.0000000E+000	0.0000000E+000	-41.3232	0.0000000E+000	0.0000000E+000	0.0000000E+000	41.3232	1.13735	48.6768	-3.44491e-06	-4.9379e-06	-4.0747e-09	-4.93382e-06	0.210729	9007.93	7.43326	9000.5
100.032	8.71214	5.42361	10.2624	-31.9037	9.77884	0.210911	-0.0232976	293.354	81.9354	1	10	0.0047002	0.000458002	0	9.95872e-05	0.000193113	1.65131e-05	-37.7434	0.0360546	0.0285105	0.02207	-31.9241	10.2983	8.74065	5.44568	0.0827231	0.051498	0.0974431	31.9037	81935.4	131616	155036	-58.0963	0.0000000E+000	0.0000000E+000	0.0000000E+000	58.0963	0.0000000E+000	0.0000000E+000	0.0000000E+000	-58.0963	0.0000000E+000	0.0000000E+000	0.0000000E+000	-31.9037	0.0000000E+000	0.0000000E+000	0.0000000E+000	31.9037	1.60634	58.0963	-2.17296e-06	-4.91371e-06	-4.49905e-09	-4.90921e-06	0.210718	9052.93	8.28897	9044.64
[...]
1.00006	16.9927	1.63029	17.0707	-5.48022	19.8459	0.21095	-0.0119943	97617.5	890.334	1	12	0.00468854	0.000274654	0	6.99695e-05	-0.000245665	1.67579e-06	-63.3098	0.00610145	0.00274056	0.00545133	-5.49755	17.074	16.9954	1.63574	0.058312	0.00559449	0.0585798	5.48022	890334	9.28006e+06	9.32267e+06	-84.5198	0.0000000E+000	0.0000000E+000	0.0000000E+000	84.5198	0.0000000E+000	0.0000000E+000	0.0000000E+000	-84.5198	0.0000000E+000	0.0000000E+000	0.0000000E+000	-5.48022	0.0000000E+000	0.0000000E+000	0.0000000E+000	5.48022	10.4231	84.5198	-1.45747e-06	-2.53021e-06	2.94659e-09	-2.53315e-06	0.211196	17587.5	20.4818	17608
0.316193	17.9927	2.44008	18.1574	-7.72304	34.1888	0.210947	-0.0111878	206283	3725.32	1	12	0.00468735	0.000258151	0	3.27709e-05	0.000307577	2.27207e-06	-3.18325	0.00880132	0.00878774	0.000488734	-7.72084	18.1662	18.0015	2.44057	0.0545743	0.00740109	0.0550739	7.72304	3.72532e+06	2.74698e+07	2.77213e+07	-82.277	0.0000000E+000	0.0000000E+000	0.0000000E+000	82.277	0.0000000E+000	0.0000000E+000	0.0000000E+000	-82.277	0.0000000E+000	0.0000000E+000	0.0000000E+000	-7.72304	0.0000000E+000	0.0000000E+000	0.0000000E+000	7.72304	7.37382	82.277	-2.95475e-05	-2.36003e-06	-3.4411e-09	-2.35659e-06	0.21064	18855.1	27.4921	18827.6
0.0999041	19.6671	4.79594	20.2434	-13.7044	79.3968	0.21095	-0.0176015	332172	18644.2	1	12	0.00468625	0.000231495	0	-0.000274769	-0.000264743	2.51609e-06	-13.2221	0.0108689	0.0105808	0.00248599	-13.7042	20.2543	19.6777	4.79843	0.0479924	0.0117032	0.0493988	13.7044	1.86442e+07	7.64556e+07	7.86961e+07	-76.2956	0.0000000E+000	0.0000000E+000	0.0000000E+000	76.2956	0.0000000E+000	0.0000000E+000	0.0000000E+000	-76.2956	0.0000000E+000	0.0000000E+000	0.0000000E+000	-13.7044	0.0000000E+000	0.0000000E+000	0.0000000E+000	13.7044	4.10078	76.2956	-0.000139839	-3.71303e-06	4.65986e-09	-3.71769e-06	0.211214	11984.8	15.0409	11999.8
0.0315922	23.5422	10.2485	25.6762	-23.5246	222.28	0.210949	-0.0219143	491565	78313.8	1	12	0.00468798	0.000182581	0	-0.000840252	-5.48923e-05	2.80376e-06	-54.5075	0.0153563	0.0089158	0.0125029	-23.5423	25.6894	23.5511	10.261	0.0357097	0.0155453	0.0389466	23.5246	7.83138e+07	1.79898e+08	1.96205e+08	-66.4754	0.0000000E+000	0.0000000E+000	0.0000000E+000	66.4754	0.0000000E+000	0.0000000E+000	0.0000000E+000	-66.4754	0.0000000E+000	0.0000000E+000	0.0000000E+000	-23.5246	0.0000000E+000	0.0000000E+000	0.0000000E+000	23.5246	2.29714	66.4754	-0.000227332	-4.62279e-06	1.20292e-09	-4.62399e-06	0.211004	9626.11	2.50487	9628.61
0.0100092	31.3366	21.261	37.8683	-34.1558	673.501	0.210949	-0.023009	747892	235751	1	12	0.00468716	0.000123775	0	-0.00366552	5.95716e-05	3.06908e-06	8.26536	0.0247956	0.0245381	-0.00356457	-34.1305	37.8866	31.3611	21.2574	0.0218524	0.0148262	0.0264073	34.1558	2.35751e+08	3.47473e+08	4.199e+08	-55.8442	0.0000000E+000	0.0000000E+000	0.0000000E+000	55.8442	0.0000000E+000	0.0000000E+000	0.0000000E+000	-55.8442	0.0000000E+000	0.0000000E+000	0.0000000E+000	-34.1558	0.0000000E+000	0.0000000E+000	0.0000000E+000	34.1558	1.4739	55.8442	-0.00153801	-4.85373e-06	-1.37068e-09	-4.85235e-06	0.210889	9168.09	2.58905	9165.5

File: 18603_R301_UA696_SOC00_C02.mpt
EC-Lab ASCII FILE
Nb header lines : 65

Potentio Electrochemical Impedance Spectroscopy

Run on channel : 2 (SN 66139)
User :
CE vs. WE compliance from -10 V to 10 V
Electrode connection : standard
Potential control : Ewe
Ewe ctrl range : min = -10.00 V, max = 10.00 V
Safety Limits :
	Do not start on E overload
Acquisition started on : 10/27/2025 16:23:12.710
Technique started on : 10/27/2025 16:23:14.304
Loaded Setting File :  C:\Users\Celltest\OneDrive - store-dot.com\Documents\EC-Lab\Data\@Biologic Test Protocols\anode half cell EIS SOC00.mps
Saved on :
	File : 18603_R301_UA696_SOC00_C02.mpr
	Directory : C:\Users\Celltest\OneDrive - store-dot.com\Documents\EC-Lab\Data\Gyutae\
	Host : 169.254.61.224
Device : VMP-3e (SN .003165)
Address : USB
EC-LAB for windows v11.62 (software)
Internet server v27.00 (firmware)
Command interpretor v12.03 (firmware)
Electrode material :
Initial state :
Electrolyte :
Comments :
Electrode surface area : 0.001 cm²
Characteristic mass : 0.001 g
Equivalent Weight : 0.000 g/eq.
Density : 0.000 g/cm3
Volume (V) : 0.001 cm³
Record Ece
Cycle Definition : Charge/Discharge alternance
Mode                Single sine
E (V)               0.0000
vs.                 Eoc
tE (h:m:s)          0:00:0.0000
record              0
dI                  0.000
unit dI             mA
dt (s)              0.000
fi                  100.000
unit fi             kHz
ff                  10.000
unit ff             mHz
Nd                  6
Points              per decade
spacing             Logarithmic
Va (mV)             5.0
pw                  0.10
Na                  2
corr                0
E range min (V)     -10.000
E range max (V)     10.000
I Range             Auto
Bandwidth           5
nc cycles           0
goto Ns'            0
nr cycles           0
inc. cycle          0

freq/Hz	Re(Z)/Ohm	-Im(Z)/Ohm	|Z|/Ohm	Phase(Z)/deg	time/s	<Ewe>/V	<I>/mA	Cs/µF	Cp/µF	cycle number	I Range	|Ewe|/V	|I|/A	Ns	(Q-Qo)/mA.h	<Ece>/V	|Ece|/V	Phase(Zce)/deg	|Zce|/Ohm	Re(Zce)/Ohm	-Im(Zce)/Ohm	Phase(Zwe-ce)/deg	|Zwe-ce|/Ohm	Re(Zwe-ce)/Ohm	-Im(Zwe-ce)/Ohm	Re(Y)/Ohm-1	Im(Y)/Ohm-1	|Y|/Ohm-1	Phase(Y)/deg	Re(C)/nF	Im(C)/nF	|C|/nF	Phase(C)/deg	Re(M)	Im(M)	|M|	Phase(M)/deg	Re(Permittivity)	Im(Permittivity)	|Permittivity|	Phase(Permittivity)/deg	Re(Resistivity)/Ohm.cm	Im(Resistivity)/Ohm.cm	|Resistivity|/Ohm.cm	Phase(Resistivity)/deg	Re(Conductivity)/mS/cm	Im(Conductivity)/mS/cm	|Conductivity|/mS/cm	Phase(Conductivity)/deg	Tan(Delta)	Loss Angle(Delta)/deg	dq/mA.h	Pwe/W	Pce/W	Pwe-ce/W	<Ewe-Ece>/V	Rwe/Ohm	Rce/Ohm	Rwe-ce/Ohm		Ewe-Ece/V
100004	1.0375	0.351359	1.09538	-18.7092	1.59356	0.215086	0.0142303	4.52953	0.466045	1	9	0.0053804	0.00491192	0	1.65356e-06	0.000229433	2.42812e-05	22.4063	0.00494332	0.00457012	-0.00188426	-18.5397	1.09911	1.04207	0.349474	0.864688	0.292836	0.912928	18.7092	466.045	1376.14	1452.92	-71.2908	0.0000000E+000	0.0000000E+000	0.0000000E+000	71.2908	0.0000000E+000	0.0000000E+000	0.0000000E+000	-71.2908	0.0000000E+000	0.0000000E+000	0.0000000E+000	-18.7092	0.0000000E+000	0.0000000E+000	0.0000000E+000	18.7092	2.95281	71.2908	1.65356e-06	3.06074e-06	3.2649e-09	3.05747e-06	0.214856	15114.6	16.1228	15098.5
31621.1	1.32503	0.479233	1.40903	-19.884	2.99056	0.215035	0.00923929	10.5026	1.21493	1	9	0.0049939	0.00354422	0	5.76548e-06	3.85242e-05	6.74357e-06	31.1527	0.0019027	0.00162831	-0.000984305	-19.8238	1.41022	1.32665	0.478249	0.667399	0.241384	0.70971	19.884	1214.93	3359.14	3572.1	-70.116	0.0000000E+000	0.0000000E+000	0.0000000E+000	70.116	0.0000000E+000	0.0000000E+000	0.0000000E+000	-70.116	0.0000000E+000	0.0000000E+000	0.0000000E+000	-19.884	0.0000000E+000	0.0000000E+000	0.0000000E+000	19.884	2.76489	70.116	4.63807e-06	1.98677e-06	3.55936e-10	1.98642e-06	0.214997	23274	4.1696	23269.8
10002.2	1.6774	0.662376	1.80345	-21.5482	4.26355	0.215037	0.0126659	24.0225	3.24056	1	9	0.00519645	0.0028814	0	1.18798e-05	-1.87484e-05	7.07946e-06	27.5181	0.00245695	0.00217899	-0.00113518	-21.4892	1.80506	1.67958	0.661241	0.515739	0.203656	0.554493	21.5482	3240.56	8206.42	8823.07	-68.4518	0.0000000E+000	0.0000000E+000	0.0000000E+000	68.4518	0.0000000E+000	0.0000000E+000	0.0000000E+000	-68.4518	0.0000000E+000	0.0000000E+000	0.0000000E+000	-21.5482	0.0000000E+000	0.0000000E+000	0.0000000E+000	21.5482	2.5324	68.4518	5.63719e-06	2.72364e-06	-2.37465e-10	2.72388e-06	0.215056	16977.6	1.48022	16979.1
3163.08	2.1074	1.02816	2.34484	-26.0067	5.59062	0.215016	0.00257224	48.9385	9.40901	1	9	0.00519521	0.0022156	0	7.07672e-06	1.94333e-05	6.62467e-06	77.5681	0.00299001	0.000643688	-0.0029199	-25.9357	2.34414	2.10805	1.02524	0.383286	0.186997	0.426469	26.0067	9409.01	19285.6	21458.4	-63.9933	0.0000000E+000	0.0000000E+000	0.0000000E+000	63.9933	0.0000000E+000	0.0000000E+000	0.0000000E+000	-63.9933	0.0000000E+000	0.0000000E+000	0.0000000E+000	-26.0067	0.0000000E+000	0.0000000E+000	0.0000000E+000	26.0067	2.04969	63.9933	-3.06189e-06	5.53072e-07	4.99872e-11	5.53022e-07	0.214996	83590.7	7.55501	83583.1
1000.32	2.77566	2.00567	3.42447	-35.8517	7.18884	0.215014	-0.0182682	79.3269	27.2116	1	10	0.00514576	0.00150264	0	5.10251e-06	-3.78392e-05	1.58091e-05	107.988	0.0105208	-0.00324908	-0.0100066	-35.7475	3.41598	2.77241	1.99567	0.236689	0.17103	0.292016	35.8517	27211.6	37658.2	46460.9	-54.1483	0.0000000E+000	0.0000000E+000	0.0000000E+000	54.1483	0.0000000E+000	0.0000000E+000	0.0000000E+000	-54.1483	0.0000000E+000	0.0000000E+000	0.0000000E+000	-35.8517	0.0000000E+000	0.0000000E+000	0.0000000E+000	35.8517	1.3839	54.1483	-1.10716e-06	-3.92793e-06	6.91255e-10	-3.92862e-06	0.215052	11769.9	2.07131	11771.9
316.316	4.55537	4.16466	6.17218	-42.4346	8.53906	0.215016	-0.0190617	120.815	55.005	1	10	0.00485249	0.000786187	0	-2.5793e-06	0.000191251	7.61414e-06	45.093	0.0096849	0.00683713	-0.00685937	-42.3447	6.1726	4.5622	4.1578	0.119577	0.109321	0.162017	42.4346	55005	60165.2	81519.3	-47.5654	0.0000000E+000	0.0000000E+000	0.0000000E+000	47.5654	0.0000000E+000	0.0000000E+000	0.0000000E+000	-47.5654	0.0000000E+000	0.0000000E+000	0.0000000E+000	-42.4346	0.0000000E+000	0.0000000E+000	0.0000000E+000	42.4346	1.09381	47.5654	-2.78095e-06	-4.09857e-06	-3.64557e-09	-4.09493e-06	0.214825	11280	10.0333	11270
100.032	9.40181	6.34489	11.3425	-34.0138	9.88477	0.215018	-0.0197285	250.759	78.4675	1	10	0.00479834	0.000423042	0	-9.19239e-06	0.000363069	4.88013e-06	-28.3066	0.0115358	0.0101564	0.00547016	-34.008	11.3539	9.41197	6.35036	0.0730796	0.0493184	0.0881642	34.0138	78467.5	116273	140273	-55.9862	0.0000000E+000	0.0000000E+000	0.0000000E+000	55.9862	0.0000000E+000	0.0000000E+000	0.0000000E+000	-55.9862	0.0000000E+000	0.0000000E+000	0.0000000E+000	-34.0138	0.0000000E+000	0.0000000E+000	0.0000000E+000	34.0138	1.48179	55.9862	-2.02067e-06	-4.24199e-06	-7.1628e-09	-4.23483e-06	0.214655	10898.9	18.4032	10880.5
[...]
1.00006	19.4899	1.83767	19.5764	-5.3864	19.9339	0.215041	-0.0116402	86601.3	763.126	1	12	0.00479041	0.000244704	0	-4.01407e-05	0.000286705	2.46423e-06	8.14677	0.0100703	0.00996863	-0.00142705	-5.37951	19.5862	19.4999	1.83625	0.0508564	0.00479517	0.051082	5.3864	763126	8.09354e+06	8.12943e+06	-84.6136	0.0000000E+000	0.0000000E+000	0.0000000E+000	84.6136	0.0000000E+000	0.0000000E+000	0.0000000E+000	-84.6136	0.0000000E+000	0.0000000E+000	0.0000000E+000	-5.3864	0.0000000E+000	0.0000000E+000	0.0000000E+000	5.3864	10.6058	84.6136	-1.17329e-05	-2.50311e-06	-3.3373e-09	-2.49977e-06	0.214754	18474	24.6307	18449.4
0.316193	20.6279	2.59009	20.7898	-7.15675	34.2777	0.21504	-0.0147376	194336	3016.34	1	12	0.00479322	0.000230556	0	-0.000125765	0.000286705	2.29208e-06	4.8497	0.00994153	0.00990594	-0.000840478	-7.15105	20.7996	20.6378	2.58925	0.0477257	0.00599255	0.0481004	7.15675	3.01634e+06	2.40226e+07	2.42112e+07	-82.8433	0.0000000E+000	0.0000000E+000	0.0000000E+000	82.8433	0.0000000E+000	0.0000000E+000	0.0000000E+000	-82.8433	0.0000000E+000	0.0000000E+000	0.0000000E+000	-7.15675	0.0000000E+000	0.0000000E+000	0.0000000E+000	7.15675	7.96416	82.8433	-3.65058e-05	-3.16917e-06	-4.22534e-09	-3.16494e-06	0.214753	14591.2	19.454	14571.8
0.0999041	22.2999	5.09003	22.8734	-12.8577	79.4858	0.21504	-0.0172666	312980	15498.7	1	12	0.00479502	0.000209633	0	-0.000233289	0.000324887	2.87582e-06	-26.1023	0.0137184	0.0123192	0.00603574	-12.8655	22.8868	22.3122	5.09606	0.0426226	0.00972875	0.0437188	12.8577	1.54987e+07	6.79011e+07	6.96475e+07	-77.1423	0.0000000E+000	0.0000000E+000	0.0000000E+000	77.1423	0.0000000E+000	0.0000000E+000	0.0000000E+000	-77.1423	0.0000000E+000	0.0000000E+000	0.0000000E+000	-12.8577	0.0000000E+000	0.0000000E+000	0.0000000E+000	12.8577	4.3811	77.1423	-3.89491e-05	-3.713e-06	-5.60968e-09	-3.70739e-06	0.214715	12454.1	18.8159	12435.3
0.0315922	26.4763	11.2206	28.7558	-22.9673	222.368	0.215018	-0.0195661	448975	68360.9	1	12	0.00479186	0.00016664	0	-0.00096445	0.000153069	2.02903e-06	-23.4063	0.0121761	0.0111742	0.00483695	-22.9674	28.768	26.4874	11.2255	0.0320189	0.0135696	0.0347756	22.9673	6.83609e+07	1.61304e+08	1.75192e+08	-67.0327	0.0000000E+000	0.0000000E+000	0.0000000E+000	67.0327	0.0000000E+000	0.0000000E+000	0.0000000E+000	-67.0327	0.0000000E+000	0.0000000E+000	0.0000000E+000	-22.9673	0.0000000E+000	0.0000000E+000	0.0000000E+000	22.9673	2.3596	67.0327	-0.000439581	-4.20707e-06	-2.99497e-09	-4.20408e-06	0.214865	10989.3	7.82318	10981.5
0.0100092	35.3062	22.5967	41.9182	-32.6201	673.591	0.215019	-0.0227118	703683	204485	1	12	0.0047932	0.000114347	0	-0.00433423	0.000114888	3.36012e-06	46.6873	0.0293854	0.0201578	-0.0213814	-32.5806	41.9237	35.3263	22.5753	0.020093	0.01286	0.023856	32.6201	2.04485e+08	3.19497e+08	3.79332e+08	-57.3799	0.0000000E+000	0.0000000E+000	0.0000000E+000	57.3799	0.0000000E+000	0.0000000E+000	0.0000000E+000	-57.3799	0.0000000E+000	0.0000000E+000	0.0000000E+000	-32.6201	0.0000000E+000	0.0000000E+000	0.0000000E+000	32.6201	1.56245	57.3799	-0.00146891	-4.88348e-06	-2.60931e-09	-4.88087e-06	0.214904	9467.27	5.05849	9462.22