Folder: EIS/txt (part 160)

File: 19080_R307_UC93_28_SOC50_C04.mpt
EC-Lab ASCII FILE
Nb header lines : 65

Potentio Electrochemical Impedance Spectroscopy

Run on channel : 4 (SN 66756)
Grouped channel(s) : 1, 2, 3, 4, 5
User :
CE vs. WE compliance from -10 V to 10 V
Electrode connection : standard
Potential control : Ewe
Ewe ctrl range : min = -10.00 V, max = 10.00 V
Safety Limits :
	Do not start on E overload
Acquisition started on : 11/10/2025 15:44:01.793
Loaded Setting File :  C:\Users\Celltest\OneDrive - store-dot.com\Documents\EC-Lab\Data\@Biologic Test Protocols\cathode half cell EIS SOC50.mps
Saved on :
	File : 19077_R307_UC93_28_SOC50_C04.mpr
	Directory : C:\Users\Celltest\OneDrive - store-dot.com\Documents\EC-Lab\Data\Anna\
	Host : 169.254.61.224
Device : VMP-3e (SN .003165)
Address : USB
EC-LAB for windows v11.62 (software)
Internet server v27.00 (firmware)
Command interpretor v12.03 (firmware)
Electrode material :
Initial state :
Electrolyte :
Comments :
Electrode surface area : 0.001 cm²
Characteristic mass : 0.001 g
Equivalent Weight : 0.000 g/eq.
Density : 0.000 g/cm3
Volume (V) : 0.001 cm³
Record Ece
Cycle Definition : Charge/Discharge alternance
Mode                Multi sine
E (V)               0.0000
vs.                 Eoc
tE (h:m:s)          0:00:0.0000
record              0
dI                  0.000
unit dI             mA
dt (s)              0.000
fi                  1.000
unit fi             MHz
ff                  0.100
unit ff             mHz
Nd                  10
Points              per decade
spacing             Logarithmic
Va (mV)             5.0
pw                  0.10
Na                  2
corr                0
E range min (V)     -10.000
E range max (V)     10.000
I Range             Auto
Bandwidth           5
nc cycles           0
goto Ns'            0
nr cycles           0
inc. cycle          0

freq/Hz	Re(Z)/Ohm	-Im(Z)/Ohm	|Z|/Ohm	Phase(Z)/deg	time/s	<Ewe>/V	<I>/mA	Cs/µF	Cp/µF	cycle number	I Range	|Ewe|/V	|I|/A	Ns	(Q-Qo)/mA.h	<Ece>/V	|Ece|/V	Phase(Zce)/deg	|Zce|/Ohm	Re(Zce)/Ohm	-Im(Zce)/Ohm	Phase(Zwe-ce)/deg	|Zwe-ce|/Ohm	Re(Zwe-ce)/Ohm	-Im(Zwe-ce)/Ohm	Re(Y)/Ohm-1	Im(Y)/Ohm-1	|Y|/Ohm-1	Phase(Y)/deg	Re(C)/nF	Im(C)/nF	|C|/nF	Phase(C)/deg	Re(M)	Im(M)	|M|	Phase(M)/deg	Re(Permittivity)	Im(Permittivity)	|Permittivity|	Phase(Permittivity)/deg	Re(Resistivity)/Ohm.cm	Im(Resistivity)/Ohm.cm	|Resistivity|/Ohm.cm	Phase(Resistivity)/deg	Re(Conductivity)/mS/cm	Im(Conductivity)/mS/cm	|Conductivity|/mS/cm	Phase(Conductivity)/deg	Tan(Delta)	Loss Angle(Delta)/deg	dq/mA.h	Pwe/W	Pce/W	Pwe-ce/W	<Ewe-Ece>/V	Rwe/Ohm	Rce/Ohm	Rwe-ce/Ohm		Ewe-Ece/V
1.00002e+06	2.378	2.47391	3.43149	-46.1324	2.23452	3.97254	0.0243259	0.0643321	0.0334373	1	10	0.000215986	6.29423e-05	0	-8.21243e-07	-0.000144924	0.000187555	-66.3445	2.97979	1.1956	2.72942	-55.519	6.31231	3.5736	5.20333	0.201951	0.210096	0.291419	46.1324	33.4373	32.1409	46.3798	-43.8676	0.0000000E+000	0.0000000E+000	0.0000000E+000	43.8676	0.0000000E+000	0.0000000E+000	0.0000000E+000	-43.8676	0.0000000E+000	0.0000000E+000	0.0000000E+000	-46.1324	0.0000000E+000	0.0000000E+000	0.0000000E+000	46.1324	0.961231	43.8676	-8.21243e-07	9.66357e-05	-3.52541e-09	9.66392e-05	3.97268	163305	5.95758	163310
251206	1.58986	0.419415	1.64425	-14.7783	4.94154	3.97109	-0.0800626	1.51059	0.0982877	1	9	0.00416144	0.00253091	0	-4.8675e-05	4.61757e-05	4.56725e-05	90.7283	0.0180459	-0.000229379	-0.0180444	-14.1706	1.63952	1.58963	0.401371	0.588062	0.155135	0.608181	14.7783	98.2877	372.574	385.321	-75.2217	0.0000000E+000	0.0000000E+000	0.0000000E+000	75.2217	0.0000000E+000	0.0000000E+000	0.0000000E+000	-75.2217	0.0000000E+000	0.0000000E+000	0.0000000E+000	-14.7783	0.0000000E+000	0.0000000E+000	0.0000000E+000	14.7783	3.79065	75.2217	-8.393e-06	-0.000317936	-3.69695e-09	-0.000317933	3.97105	49599.9	0.576745	49599.3
63093.8	2.20912	1.01392	2.43068	-24.6538	7.24052	3.97101	-0.0605934	2.48788	0.432893	1	9	0.00539896	0.00222117	0	-8.8416e-05	-1.11541e-05	2.1401e-05	58.1836	0.00963501	0.00507957	-0.00818727	-24.4286	2.4319	2.2142	1.00573	0.373905	0.171612	0.411407	24.6538	432.893	943.18	1037.78	-65.3462	0.0000000E+000	0.0000000E+000	0.0000000E+000	65.3462	0.0000000E+000	0.0000000E+000	0.0000000E+000	-65.3462	0.0000000E+000	0.0000000E+000	0.0000000E+000	-24.6538	0.0000000E+000	0.0000000E+000	0.0000000E+000	24.6538	2.17878	65.3462	-5.34958e-06	-0.000240617	6.75867e-10	-0.000240618	3.97102	65535.3	0.184082	65535.5
15847.7	3.32969	1.6908	3.73439	-26.9212	9.41657	3.97102	-0.0583556	5.93968	1.21761	1	9	0.00514354	0.00137734	0	-0.00013724	0.000141726	9.03909e-06	-100.457	0.0065627	-0.0011911	0.0064537	-27.0177	3.73625	3.3285	1.69725	0.238762	0.121242	0.267782	26.9212	1217.61	2397.84	2689.27	-63.0788	0.0000000E+000	0.0000000E+000	0.0000000E+000	63.0788	0.0000000E+000	0.0000000E+000	0.0000000E+000	-63.0788	0.0000000E+000	0.0000000E+000	0.0000000E+000	-26.9212	0.0000000E+000	0.0000000E+000	0.0000000E+000	26.9212	1.9693	63.0788	-5.34392e-06	-0.000231731	-8.27048e-09	-0.000231723	3.97088	68048.7	2.42865	68046.2
3983.6	5.00482	2.66861	5.67183	-28.0669	11.1751	3.97098	-0.0449098	14.9713	3.31423	1	10	0.00496391	0.000875186	0	-0.000156785	8.43956e-05	8.27482e-06	-140.876	0.00945493	-0.00733499	0.00596604	-28.155	5.66818	4.99749	2.67458	0.155576	0.0829541	0.17631	28.0669	3314.23	6215.64	7044.02	-61.9331	0.0000000E+000	0.0000000E+000	0.0000000E+000	61.9331	0.0000000E+000	0.0000000E+000	0.0000000E+000	-61.9331	0.0000000E+000	0.0000000E+000	0.0000000E+000	-28.0669	0.0000000E+000	0.0000000E+000	0.0000000E+000	28.0669	1.87544	61.9331	-2.49183e-06	-0.000178336	-3.79019e-09	-0.000178332	3.9709	88421.2	1.87922	88419.3
1000.32	7.86194	4.34823	8.98427	-28.9458	13.8038	3.97096	-0.0351331	36.5905	8.57093	1	10	0.004686	0.000521578	0	-0.000178108	-4.9374e-05	1.01746e-05	-59.8277	0.0195073	0.00980441	0.0168644	-29.0096	9.00102	7.87174	4.36509	0.0974011	0.05387	0.111306	28.9458	8570.93	15496.9	17709.2	-61.0542	0.0000000E+000	0.0000000E+000	0.0000000E+000	61.0542	0.0000000E+000	0.0000000E+000	0.0000000E+000	-61.0542	0.0000000E+000	0.0000000E+000	0.0000000E+000	-28.9458	0.0000000E+000	0.0000000E+000	0.0000000E+000	28.9458	1.80808	61.0542	-4.14924e-06	-0.000139512	1.73466e-09	-0.000139514	3.97101	113026	1.40534	113028
251.044	13.184	5.55516	14.3066	-22.8484	16.5041	3.97096	-0.0300376	114.123	17.2066	1	10	0.00462301	0.000323139	0	-0.000199105	-0.000221364	1.27472e-05	26.861	0.0394479	0.0351917	-0.0178237	-22.7281	14.3321	13.2192	5.53733	0.0644135	0.027141	0.069898	22.8484	17206.6	40836.3	44313.4	-67.1516	0.0000000E+000	0.0000000E+000	0.0000000E+000	67.1516	0.0000000E+000	0.0000000E+000	0.0000000E+000	-67.1516	0.0000000E+000	0.0000000E+000	0.0000000E+000	-22.8484	0.0000000E+000	0.0000000E+000	0.0000000E+000	22.8484	2.37329	67.1516	-3.55285e-06	-0.000119278	6.64924e-09	-0.000119285	3.97118	132199	7.36954	132207
[...]
0.0602816	23.9276	3.44941	24.175	-8.20325	239.857	3.97098	-0.0156357	765404	15582.9	1	11	0.00508447	0.00021032	0	-0.00214178	-0.000125814	5.11527e-07	21.0084	0.00243214	0.00227047	-0.000871936	-8.20043	24.1771	23.9299	3.44854	0.0409418	0.00590217	0.0413651	8.20325	1.55829e+07	1.08094e+08	1.09212e+08	-81.7968	0.0000000E+000	0.0000000E+000	0.0000000E+000	81.7968	0.0000000E+000	0.0000000E+000	0.0000000E+000	-81.7968	0.0000000E+000	0.0000000E+000	0.0000000E+000	-8.20325	0.0000000E+000	0.0000000E+000	0.0000000E+000	8.20325	6.93674	81.7968	0.000000000000000E+000	-6.20889e-05	1.96718e-09	-6.20909e-05	3.9711	253969	8.04659	253977
0.00796479	32.3334	7.90432	33.2855	-13.7373	20328.8	3.97098	-0.00079237	2.52802e+06	142561	1	11	0.00507641	0.000152511	0	-0.0157721	-0.000527123	3.30561e-07	-16.3347	0.00216746	0.00207997	0.000609592	-13.7375	33.2877	32.3354	7.90493	0.0291837	0.00713435	0.0300431	13.7373	1.42561e+08	5.83159e+08	6.00331e+08	-76.2627	0.0000000E+000	0.0000000E+000	0.0000000E+000	76.2627	0.0000000E+000	0.0000000E+000	0.0000000E+000	-76.2627	0.0000000E+000	0.0000000E+000	0.0000000E+000	-13.7373	0.0000000E+000	0.0000000E+000	0.0000000E+000	13.7373	4.09059	76.2627	-0.0136303	-3.14649e-06	4.17676e-10	-3.1469e-06	3.97151	5.01153e+06	665.249	5.01219e+06
0.0019912	40.5564	11.7898	42.2353	-16.2091	20328.8	3.97098	-0.00079237	6.77956e+06	528274	1	11	0.00508904	0.000120493	0	-0.0157721	-0.000527123	3.73023e-07	90.7041	0.00309581	-3.8043e-05	-0.00309558	-16.2051	42.2344	40.5564	11.7867	0.0227357	0.00660926	0.0236769	16.2091	5.28274e+08	1.81725e+09	1.89247e+09	-73.7909	0.0000000E+000	0.0000000E+000	0.0000000E+000	73.7909	0.0000000E+000	0.0000000E+000	0.0000000E+000	-73.7909	0.0000000E+000	0.0000000E+000	0.0000000E+000	-16.2091	0.0000000E+000	0.0000000E+000	0.0000000E+000	16.2091	3.43997	73.7909	0.000000000000000E+000	-3.14649e-06	4.17676e-10	-3.1469e-06	3.97151	5.01153e+06	665.249	5.01219e+06
0.000497799	46.4953	17.0582	49.5257	-20.1471	20328.8	3.97098	-0.00079237	1.87427e+07	2.2235e+06	1	11	0.00509214	0.000102818	0	-0.0157721	-0.000527123	1.76781e-06	1.75867	0.0171936	0.0171855	-0.000527665	-20.1396	49.5417	46.5125	17.0577	0.018956	0.00695459	0.0201915	20.1471	2.2235e+09	6.06057e+09	6.45558e+09	-69.8529	0.0000000E+000	0.0000000E+000	0.0000000E+000	69.8529	0.0000000E+000	0.0000000E+000	0.0000000E+000	-69.8529	0.0000000E+000	0.0000000E+000	0.0000000E+000	-20.1471	0.0000000E+000	0.0000000E+000	0.0000000E+000	20.1471	2.72569	69.8529	0.000000000000000E+000	-3.14649e-06	4.17676e-10	-3.1469e-06	3.97151	5.01153e+06	665.249	5.01219e+06
9.95598e-05	55.5176	78.5613	96.1981	-54.752	20328.8	3.97098	-0.00079237	2.03483e+07	1.3571e+07	1	11	0.00508997	5.29113e-05	0	-0.0157721	-0.000527123	5.81976e-06	50.2642	0.109991	0.0703115	-0.084583	-54.6887	96.1697	55.5879	78.4767	0.00599926	0.00848937	0.0103952	54.752	1.3571e+10	9.59033e+09	1.66176e+10	-35.248	0.0000000E+000	0.0000000E+000	0.0000000E+000	35.248	0.0000000E+000	0.0000000E+000	0.0000000E+000	-35.248	0.0000000E+000	0.0000000E+000	0.0000000E+000	-54.752	0.0000000E+000	0.0000000E+000	0.0000000E+000	54.752	0.706679	35.248	0.000000000000000E+000	-3.14649e-06	4.17676e-10	-3.1469e-06	3.97151	5.01153e+06	665.249	5.01219e+06

File: 19081_R307_UC93_28_SOC50_C05.mpt
EC-Lab ASCII FILE
Nb header lines : 65

Potentio Electrochemical Impedance Spectroscopy

Run on channel : 5 (SN 65912)
Grouped channel(s) : 1, 2, 3, 4, 5
User :
CE vs. WE compliance from -10 V to 10 V
Electrode connection : standard
Potential control : Ewe
Ewe ctrl range : min = -10.00 V, max = 10.00 V
Safety Limits :
	Do not start on E overload
Acquisition started on : 11/10/2025 15:44:01.793
Loaded Setting File :  C:\Users\Celltest\OneDrive - store-dot.com\Documents\EC-Lab\Data\@Biologic Test Protocols\cathode half cell EIS SOC50.mps
Saved on :
	File : 19077_R307_UC93_28_SOC50_C05.mpr
	Directory : C:\Users\Celltest\OneDrive - store-dot.com\Documents\EC-Lab\Data\Anna\
	Host : 169.254.61.224
Device : VMP-3e (SN .003165)
Address : USB
EC-LAB for windows v11.62 (software)
Internet server v27.00 (firmware)
Command interpretor v12.03 (firmware)
Electrode material :
Initial state :
Electrolyte :
Comments :
Electrode surface area : 0.001 cm²
Characteristic mass : 0.001 g
Equivalent Weight : 0.000 g/eq.
Density : 0.000 g/cm3
Volume (V) : 0.001 cm³
Record Ece
Cycle Definition : Charge/Discharge alternance
Mode                Multi sine
E (V)               0.0000
vs.                 Eoc
tE (h:m:s)          0:00:0.0000
record              0
dI                  0.000
unit dI             mA
dt (s)              0.000
fi                  1.000
unit fi             MHz
ff                  0.100
unit ff             mHz
Nd                  10
Points              per decade
spacing             Logarithmic
Va (mV)             5.0
pw                  0.10
Na                  2
corr                0
E range min (V)     -10.000
E range max (V)     10.000
I Range             Auto
Bandwidth           5
nc cycles           0
goto Ns'            0
nr cycles           0
inc. cycle          0

freq/Hz	Re(Z)/Ohm	-Im(Z)/Ohm	|Z|/Ohm	Phase(Z)/deg	time/s	<Ewe>/V	<I>/mA	Cs/µF	Cp/µF	cycle number	I Range	|Ewe|/V	|I|/A	Ns	(Q-Qo)/mA.h	<Ece>/V	|Ece|/V	Phase(Zce)/deg	|Zce|/Ohm	Re(Zce)/Ohm	-Im(Zce)/Ohm	Phase(Zwe-ce)/deg	|Zwe-ce|/Ohm	Re(Zwe-ce)/Ohm	-Im(Zwe-ce)/Ohm	Re(Y)/Ohm-1	Im(Y)/Ohm-1	|Y|/Ohm-1	Phase(Y)/deg	Re(C)/nF	Im(C)/nF	|C|/nF	Phase(C)/deg	Re(M)	Im(M)	|M|	Phase(M)/deg	Re(Permittivity)	Im(Permittivity)	|Permittivity|	Phase(Permittivity)/deg	Re(Resistivity)/Ohm.cm	Im(Resistivity)/Ohm.cm	|Resistivity|/Ohm.cm	Phase(Resistivity)/deg	Re(Conductivity)/mS/cm	Im(Conductivity)/mS/cm	|Conductivity|/mS/cm	Phase(Conductivity)/deg	Tan(Delta)	Loss Angle(Delta)/deg	dq/mA.h	Pwe/W	Pce/W	Pwe-ce/W	<Ewe-Ece>/V	Rwe/Ohm	Rce/Ohm	Rwe-ce/Ohm		Ewe-Ece/V
1.00002e+06	0.962322	-0.426112	1.05244	23.8835	2.69355	3.97052	0.0380375	-0.373498	-0.0612264	1	9	0.000230351	0.000218872	0	5.02839e-06	-0.000211513	0.000194818	6.00534	0.890097	0.885212	-0.0931229	15.6976	1.91911	1.84753	-0.519235	0.868808	-0.384704	0.95017	-23.8835	-61.2264	138.272	151.222	-113.884	0.0000000E+000	0.0000000E+000	0.0000000E+000	113.884	0.0000000E+000	0.0000000E+000	0.0000000E+000	-113.884	0.0000000E+000	0.0000000E+000	0.0000000E+000	23.8835	0.0000000E+000	0.0000000E+000	0.0000000E+000	-23.8835	2.25838	66.1165	5.02839e-06	0.000151029	-8.04542e-09	0.000151037	3.97074	104385	5.56064	104390
251206	1.45988	0.391516	1.51146	-15.0126	4.99455	3.96891	-0.0351759	1.61823	0.108579	1	9	0.00395304	0.00261537	0	-7.3089e-06	3.66729e-05	4.91838e-05	92.702	0.0188056	-0.000886531	-0.0187847	-14.331	1.50585	1.45899	0.372732	0.639029	0.171378	0.66161	15.0126	108.579	404.865	419.172	-74.9874	0.0000000E+000	0.0000000E+000	0.0000000E+000	74.9874	0.0000000E+000	0.0000000E+000	0.0000000E+000	-74.9874	0.0000000E+000	0.0000000E+000	0.0000000E+000	-15.0126	0.0000000E+000	0.0000000E+000	0.0000000E+000	15.0126	3.72877	74.9874	-5.81875e-06	-0.00013961	-1.29e-09	-0.000139609	3.96887	112830	1.04256	112829
63093.8	2.05656	0.965852	2.27207	-25.1568	7.29455	3.96863	-0.0295527	2.6117	0.471954	1	9	0.00533708	0.002349	0	-2.42137e-05	0.000113038	2.67833e-05	56.1491	0.011402	0.00635132	-0.00946928	-24.8728	2.27382	2.06291	0.956383	0.39838	0.187097	0.440127	25.1568	471.954	1004.92	1110.23	-64.8432	0.0000000E+000	0.0000000E+000	0.0000000E+000	64.8432	0.0000000E+000	0.0000000E+000	0.0000000E+000	-64.8432	0.0000000E+000	0.0000000E+000	0.0000000E+000	-25.1568	0.0000000E+000	0.0000000E+000	0.0000000E+000	25.1568	2.12927	64.8432	3.63504e-06	-0.000117284	-3.34057e-09	-0.00011728	3.96851	134290	3.82496	134286
15847.7	3.12361	1.63777	3.52693	-27.6689	9.59653	3.96861	-0.0218068	6.13198	1.32225	1	9	0.00501917	0.0014231	0	-3.95393e-05	0.000170311	4.31682e-06	11.0269	0.00303339	0.00297739	-0.000580199	-27.6381	3.5293	3.12659	1.63719	0.251109	0.131662	0.283532	27.6689	1322.25	2521.84	2847.46	-62.3311	0.0000000E+000	0.0000000E+000	0.0000000E+000	62.3311	0.0000000E+000	0.0000000E+000	0.0000000E+000	-62.3311	0.0000000E+000	0.0000000E+000	0.0000000E+000	-27.6689	0.0000000E+000	0.0000000E+000	0.0000000E+000	27.6689	1.90723	62.3311	-3.07694e-06	-8.65428e-05	-3.71395e-09	-8.65391e-05	3.96844	181989	7.81	181982
3983.6	4.70472	2.67144	5.41026	-29.5889	11.3531	3.96858	-0.0332857	14.9554	3.64631	1	10	0.00517347	0.000956232	0	-5.34314e-05	-1.50951e-06	5.65162e-06	52.9812	0.0059103	0.00355846	-0.00471901	-29.5268	5.41103	4.70827	2.66672	0.16073	0.091266	0.184834	29.5889	3646.31	6421.56	7384.58	-60.4111	0.0000000E+000	0.0000000E+000	0.0000000E+000	60.4111	0.0000000E+000	0.0000000E+000	0.0000000E+000	-60.4111	0.0000000E+000	0.0000000E+000	0.0000000E+000	-29.5889	0.0000000E+000	0.0000000E+000	0.0000000E+000	29.5889	1.76111	60.4111	-1.81564e-06	-0.000132097	5.02452e-11	-0.000132097	3.96859	119228	0.0453502	119228
1000.32	7.61353	4.54983	8.86943	-30.8625	13.9818	3.96855	-0.0212777	34.9692	9.20206	1	10	0.00483847	0.000545522	0	-6.93476e-05	-9.69656e-05	7.85598e-06	52.4759	0.0144008	0.00877148	-0.0114213	-30.7701	8.87111	7.6223	4.53841	0.096782	0.0578368	0.112747	30.8625	9202.06	15398.4	17938.5	-59.1375	0.0000000E+000	0.0000000E+000	0.0000000E+000	59.1375	0.0000000E+000	0.0000000E+000	0.0000000E+000	-59.1375	0.0000000E+000	0.0000000E+000	0.0000000E+000	-30.8625	0.0000000E+000	0.0000000E+000	0.0000000E+000	30.8625	1.67336	59.1375	-2.88124e-06	-8.44417e-05	2.06321e-09	-8.44438e-05	3.96865	186512	4.55714	186517
251.044	13.3101	6.12168	14.6504	-24.699	16.6831	3.96855	-0.0237166	103.562	18.0818	1	10	0.00477065	0.000325633	0	-8.60233e-05	0.00015122	6.10182e-06	84.4528	0.0187384	0.00181135	-0.0186506	-24.6297	14.6443	13.3119	6.10303	0.0620131	0.0285215	0.0682576	24.699	18081.8	39314.5	43273.3	-65.301	0.0000000E+000	0.0000000E+000	0.0000000E+000	65.301	0.0000000E+000	0.0000000E+000	0.0000000E+000	-65.301	0.0000000E+000	0.0000000E+000	0.0000000E+000	-24.699	0.0000000E+000	0.0000000E+000	0.0000000E+000	24.699	2.17426	65.301	-2.99366e-06	-9.41204e-05	-3.58642e-09	-9.41168e-05	3.9684	167333	6.37615	167326
[...]
0.0602816	25.2353	3.59862	25.4906	-8.11581	240.034	3.96857	-0.0139205	733667	14622.1	1	11	0.00509373	0.000199828	0	-0.00187645	-1.50951e-06	5.81689e-07	-0.776113	0.00291095	0.00291068	3.94297e-05	-8.11497	25.4935	25.2382	3.59866	0.0388372	0.00553829	0.0392301	8.11581	1.46222e+07	1.02538e+08	1.03575e+08	-81.8842	0.0000000E+000	0.0000000E+000	0.0000000E+000	81.8842	0.0000000E+000	0.0000000E+000	0.0000000E+000	-81.8842	0.0000000E+000	0.0000000E+000	0.0000000E+000	-8.11581	0.0000000E+000	0.0000000E+000	0.0000000E+000	8.11581	7.01249	81.8842	0.000000000000000E+000	-5.52444e-05	2.10131e-11	-5.52444e-05	3.96857	285089	0.108438	285089
0.00796479	34.0844	8.4794	35.1233	-13.9703	20328.9	3.96859	-0.000947586	2.35657e+06	137347	1	11	0.00508931	0.000144898	0	-0.0149257	3.66729e-05	3.53717e-07	-115.523	0.00244114	-0.00105182	0.00220292	-13.9742	35.1228	34.0834	8.48161	0.027629	0.00687344	0.0284711	13.9703	1.37347e+08	5.52091e+08	5.68919e+08	-76.0297	0.0000000E+000	0.0000000E+000	0.0000000E+000	76.0297	0.0000000E+000	0.0000000E+000	0.0000000E+000	-76.0297	0.0000000E+000	0.0000000E+000	0.0000000E+000	-13.9703	0.0000000E+000	0.0000000E+000	0.0000000E+000	13.9703	4.01967	76.0297	-0.0130493	-3.76058e-06	-3.47508e-11	-3.76054e-06	3.96855	4.1881e+06	38.7014	4.18806e+06
0.0019912	42.7623	12.4047	44.5251	-16.1766	20328.9	3.96859	-0.000947586	6.44348e+06	500128	1	11	0.0050999	0.00011454	0	-0.0149257	3.66729e-05	1.74509e-07	-69.9873	0.00152357	0.000521408	0.00143157	-16.1782	44.526	42.7628	12.4061	0.02157	0.00625713	0.0224592	16.1766	5.00128e+08	1.72408e+09	1.79515e+09	-73.8234	0.0000000E+000	0.0000000E+000	0.0000000E+000	73.8234	0.0000000E+000	0.0000000E+000	0.0000000E+000	-73.8234	0.0000000E+000	0.0000000E+000	0.0000000E+000	-16.1766	0.0000000E+000	0.0000000E+000	0.0000000E+000	16.1766	3.44727	73.8234	0.000000000000000E+000	-3.76058e-06	-3.47508e-11	-3.76054e-06	3.96855	4.1881e+06	38.7014	4.18806e+06
0.000497799	49.2812	18.0065	52.4678	-20.0714	20328.9	3.96859	-0.000947586	1.77557e+07	2.09126e+06	1	11	0.00510133	9.72278e-05	0	-0.0149257	3.66729e-05	6.54403e-07	23.3421	0.00673062	0.00617975	-0.00266681	-20.0663	52.4727	49.2874	18.0038	0.0179017	0.00654098	0.0190593	20.0714	2.09126e+09	5.7235e+09	6.09358e+09	-69.9286	0.0000000E+000	0.0000000E+000	0.0000000E+000	69.9286	0.0000000E+000	0.0000000E+000	0.0000000E+000	-69.9286	0.0000000E+000	0.0000000E+000	0.0000000E+000	-20.0714	0.0000000E+000	0.0000000E+000	0.0000000E+000	20.0714	2.73686	69.9286	0.000000000000000E+000	-3.76058e-06	-3.47508e-11	-3.76054e-06	3.96855	4.1881e+06	38.7014	4.18806e+06
9.95598e-05	59.2658	80.5135	99.9743	-53.6433	20328.9	3.96859	-0.000947586	1.98549e+07	1.28774e+07	1	11	0.00509885	5.10016e-05	0	-0.0149257	3.66729e-05	1.50647e-06	-6.57459	0.0295376	0.0293434	0.00338196	-53.6309	99.9944	59.2952	80.5169	0.00592963	0.00805549	0.0100026	53.6433	1.28774e+10	9.47902e+09	1.599e+10	-36.3567	0.0000000E+000	0.0000000E+000	0.0000000E+000	36.3567	0.0000000E+000	0.0000000E+000	0.0000000E+000	-36.3567	0.0000000E+000	0.0000000E+000	0.0000000E+000	-53.6433	0.0000000E+000	0.0000000E+000	0.0000000E+000	53.6433	0.736097	36.3567	0.000000000000000E+000	-3.76058e-06	-3.47508e-11	-3.76054e-06	3.96855	4.1881e+06	38.7014	4.18806e+06