Folder: EIS/txt (part 48)

File: 17611_R291_UC85_SOC50_C06.mpt
EC-Lab ASCII FILE
Nb header lines : 64

Potentio Electrochemical Impedance Spectroscopy

Run on channel : 6 (SN 65795)
User :
CE vs. WE compliance from -10 V to 10 V
Electrode connection : standard
Potential control : Ewe
Ewe ctrl range : min = -10.00 V, max = 10.00 V
Safety Limits :
	Do not start on E overload
Acquisition started on : 09/17/2025 17:34:42.000
Loaded Setting File :  C:\Users\Celltest\OneDrive - store-dot.com\Documents\EC-Lab\Data\Michael\R290\17544_R290_UC82_50SOC.mps
Saved on :
	File : 17611_R291_UC85_SOC50_C06.mpr
	Directory : C:\Users\Celltest\OneDrive - store-dot.com\Documents\EC-Lab\Data\Gyutae\
	Host : 169.254.61.224
Device : VMP-3e (SN .003165)
Address : USB
EC-LAB for windows v11.62 (software)
Internet server v27.00 (firmware)
Command interpretor v12.03 (firmware)
Electrode material :
Initial state :
Electrolyte :
Comments :
Electrode surface area : 0.001 cm²
Characteristic mass : 0.001 g
Equivalent Weight : 0.000 g/eq.
Density : 0.000 g/cm3
Volume (V) : 0.001 cm³
Record Ece
Cycle Definition : Charge/Discharge alternance
Mode                Multi sine
E (V)               0.0000
vs.                 Eoc
tE (h:m:s)          0:00:0.0000
record              0
dI                  0.000
unit dI             mA
dt (s)              0.000
fi                  1.000
unit fi             MHz
ff                  0.100
unit ff             mHz
Nd                  10
Points              per decade
spacing             Logarithmic
Va (mV)             5.0
pw                  0.10
Na                  2
corr                0
E range min (V)     -10.000
E range max (V)     10.000
I Range             Auto
Bandwidth           5
nc cycles           0
goto Ns'            0
nr cycles           0
inc. cycle          0

freq/Hz	Re(Z)/Ohm	-Im(Z)/Ohm	|Z|/Ohm	Phase(Z)/deg	time/s	<Ewe>/V	<I>/mA	Cs/µF	Cp/µF	cycle number	I Range	|Ewe|/V	|I|/A	Ns	(Q-Qo)/mA.h	<Ece>/V	|Ece|/V	Phase(Zce)/deg	|Zce|/Ohm	Re(Zce)/Ohm	-Im(Zce)/Ohm	Phase(Zwe-ce)/deg	|Zwe-ce|/Ohm	Re(Zwe-ce)/Ohm	-Im(Zwe-ce)/Ohm	Re(Y)/Ohm-1	Im(Y)/Ohm-1	|Y|/Ohm-1	Phase(Y)/deg	Re(C)/nF	Im(C)/nF	|C|/nF	Phase(C)/deg	Re(M)	Im(M)	|M|	Phase(M)/deg	Re(Permittivity)	Im(Permittivity)	|Permittivity|	Phase(Permittivity)/deg	Re(Resistivity)/Ohm.cm	Im(Resistivity)/Ohm.cm	|Resistivity|/Ohm.cm	Phase(Resistivity)/deg	Re(Conductivity)/mS/cm	Im(Conductivity)/mS/cm	|Conductivity|/mS/cm	Phase(Conductivity)/deg	Tan(Delta)	Loss Angle(Delta)/deg	dq/mA.h	Pwe/W	Pce/W	Pwe-ce/W	<Ewe-Ece>/V	Rwe/Ohm	Rce/Ohm	Rwe-ce/Ohm		Ewe-Ece/V
1.00002e+06	2.08073	2.91343	3.58015	-54.4661	2.23453	3.78299	0.00188122	0.054627	0.0361754	1	10	0.000213024	5.95013e-05	0	-1.07753e-05	-3.85071e-05	0.000197402	-61.5861	3.31761	1.57864	2.91795	-57.8905	6.88447	3.65937	5.83138	0.162335	0.227301	0.279318	54.4661	36.1754	25.8359	44.454	-35.5339	0.0000000E+000	0.0000000E+000	0.0000000E+000	35.5339	0.0000000E+000	0.0000000E+000	0.0000000E+000	-35.5339	0.0000000E+000	0.0000000E+000	0.0000000E+000	-54.4661	0.0000000E+000	0.0000000E+000	0.0000000E+000	54.4661	0.714185	35.5339	-1.07753e-05	7.11665e-06	-7.24403e-11	7.11672e-06	3.78303	2.01092e+06	20.4692	2.01094e+06
251206	1.20088	0.325014	1.24408	-15.1441	4.93652	3.78281	0.0304264	1.94934	0.133044	1	9	0.00295924	0.00237866	0	1.08932e-05	1.87871e-05	6.99055e-05	68.5839	0.0293887	0.0107309	-0.0273595	-13.8025	1.24763	1.21161	0.297654	0.775892	0.209993	0.803807	15.1441	133.044	491.576	509.262	-74.8559	0.0000000E+000	0.0000000E+000	0.0000000E+000	74.8559	0.0000000E+000	0.0000000E+000	0.0000000E+000	-74.8559	0.0000000E+000	0.0000000E+000	0.0000000E+000	-15.1441	0.0000000E+000	0.0000000E+000	0.0000000E+000	15.1441	3.69484	74.8559	2.19938e-06	0.000115097	5.71622e-10	0.000115096	3.78279	124327	0.61746	124326
63093.8	1.77316	0.574661	1.86396	-17.9569	7.11052	3.78268	0.0275209	4.38957	0.417227	1	9	0.00537701	0.00288473	0	-2.42976e-07	0.000267062	2.39892e-05	70.5699	0.00831593	0.00276634	-0.00784232	-17.7014	1.86419	1.77593	0.566818	0.510359	0.165401	0.536493	17.9569	417.227	1287.39	1353.31	-72.0431	0.0000000E+000	0.0000000E+000	0.0000000E+000	72.0431	0.0000000E+000	0.0000000E+000	0.0000000E+000	-72.0431	0.0000000E+000	0.0000000E+000	0.0000000E+000	-17.9569	0.0000000E+000	0.0000000E+000	0.0000000E+000	17.9569	3.08558	72.0431	-2.24818e-06	0.000104103	7.34977e-09	0.000104095	3.78241	137448	9.70395	137438
15847.7	2.27498	0.546567	2.33971	-13.5094	9.29054	3.78269	0.0325496	18.3743	1.0027	1	9	0.00543095	0.0023212	0	3.13057e-06	0.000247963	5.69526e-05	-30.5233	0.0245358	0.0211357	0.0124614	-13.6834	2.36319	2.29611	0.559029	0.415577	0.0998431	0.427403	13.5094	1002.7	4173.56	4292.32	-76.4906	0.0000000E+000	0.0000000E+000	0.0000000E+000	76.4906	0.0000000E+000	0.0000000E+000	0.0000000E+000	-76.4906	0.0000000E+000	0.0000000E+000	0.0000000E+000	-13.5094	0.0000000E+000	0.0000000E+000	0.0000000E+000	13.5094	4.1623	76.4906	7.34317e-07	0.000123125	8.07112e-09	0.000123117	3.78244	116213	7.61802	116205
3983.6	2.69684	0.682667	2.7819	-14.2052	11.015	3.78253	-0.00142235	58.5242	3.52428	1	9	0.00519631	0.0018679	0	1.45309e-05	-0.000229487	5.36854e-06	-32.2503	0.0028741	0.0024307	0.00153367	-14.2236	2.78463	2.69927	0.684201	0.348475	0.0882117	0.359467	14.2052	3524.28	13922.5	14361.6	-75.7948	0.0000000E+000	0.0000000E+000	0.0000000E+000	75.7948	0.0000000E+000	0.0000000E+000	0.0000000E+000	-75.7948	0.0000000E+000	0.0000000E+000	0.0000000E+000	-14.2052	0.0000000E+000	0.0000000E+000	0.0000000E+000	14.2052	3.95044	75.7948	1.70115e-06	-5.38007e-06	3.26411e-10	-5.3804e-06	3.78276	2.65935e+06	161.344	2.65951e+06
1000.32	3.39398	1.12289	3.57491	-18.3067	13.8888	3.78264	-0.0304839	141.691	13.9794	1	10	0.00516043	0.00144351	0	2.97787e-05	0.000152473	3.05998e-06	-29.1122	0.00211982	0.00185202	0.00103134	-18.3131	3.577	3.39583	1.12392	0.26557	0.0878632	0.279727	18.3067	13979.4	42253.2	44505.7	-71.6933	0.0000000E+000	0.0000000E+000	0.0000000E+000	71.6933	0.0000000E+000	0.0000000E+000	0.0000000E+000	-71.6933	0.0000000E+000	0.0000000E+000	0.0000000E+000	-18.3067	0.0000000E+000	0.0000000E+000	0.0000000E+000	18.3067	3.02254	71.6933	-2.39039e-06	-0.00011531	-4.64798e-09	-0.000115305	3.78248	124086	5.00177	124081
251.044	4.8115	1.4639	5.02927	-16.9224	16.59	3.78262	-0.0312628	433.07	36.692	1	10	0.0050783	0.00100975	0	5.98333e-06	-0.000133997	7.13474e-06	-61.7973	0.00706585	0.00333926	0.006227	-16.9791	5.03428	4.81484	1.47013	0.190226	0.0578764	0.198836	16.9224	36692	120598	126056	-73.0776	0.0000000E+000	0.0000000E+000	0.0000000E+000	73.0776	0.0000000E+000	0.0000000E+000	0.0000000E+000	-73.0776	0.0000000E+000	0.0000000E+000	0.0000000E+000	-16.9224	0.0000000E+000	0.0000000E+000	0.0000000E+000	16.9224	3.28677	73.0776	-3.15495e-06	-0.000118255	4.18912e-09	-0.000118259	3.78275	120994	4.28616	120999
63.0823	6.09571	0.900057	6.1618	-8.39927	19.3089	3.78263	-0.0280579	2803.13	59.8091	1	10	0.00505724	0.00082074	0	-1.49234e-05	0.000228865	1.25194e-05	13.6129	0.0152538	0.0148253	-0.00359016	-8.34623	6.17595	6.11054	0.896467	0.16055	0.0237058	0.16229	8.39927	59809.2	405062	409454	-81.6007	0.0000000E+000	0.0000000E+000	0.0000000E+000	81.6007	0.0000000E+000	0.0000000E+000	0.0000000E+000	-81.6007	0.0000000E+000	0.0000000E+000	0.0000000E+000	-8.39927	0.0000000E+000	0.0000000E+000	0.0000000E+000	8.39927	6.77258	81.6007	-3.73036e-06	-0.000106133	-6.42149e-09	-0.000106126	3.7824	134815	8.15689	134807
[...]
0.0602816	7.65144	1.28405	7.75844	-9.52651	240.144	3.78264	-0.0133674	2.05614e+06	56320.9	1	11	0.00502472	0.000647646	0	-0.00364625	5.69831e-05	8.26762e-07	6.85343	0.00127656	0.00126744	-0.000152332	-9.52386	7.75966	7.65271	1.2839	0.127114	0.0213321	0.128892	9.52651	5.63209e+07	3.35606e+08	3.40299e+08	-80.4735	0.0000000E+000	0.0000000E+000	0.0000000E+000	80.4735	0.0000000E+000	0.0000000E+000	0.0000000E+000	-80.4735	0.0000000E+000	0.0000000E+000	0.0000000E+000	-9.52651	0.0000000E+000	0.0000000E+000	0.0000000E+000	9.52651	5.95882	80.4735	0.000000000000000E+000	-5.05641e-05	-7.61715e-10	-5.05633e-05	3.78259	282976	4.26285	282971
0.00796479	11.5321	3.24061	11.9787	-15.6958	20329	3.78266	0.00153185	6.16623e+06	451283	1	11	0.005018	0.000418908	0	-0.00640872	-9.58012e-05	2.00674e-07	-80.3023	0.00047904	8.06941e-05	0.000472195	-15.6979	11.979	11.5322	3.24108	0.0803683	0.0225841	0.0834812	15.6958	4.51283e+08	1.60595e+09	1.66815e+09	-74.3042	0.0000000E+000	0.0000000E+000	0.0000000E+000	74.3042	0.0000000E+000	0.0000000E+000	0.0000000E+000	-74.3042	0.0000000E+000	0.0000000E+000	0.0000000E+000	-15.6958	0.0000000E+000	0.0000000E+000	0.0000000E+000	15.6958	3.55862	74.3042	-0.00276247	5.79446e-06	-1.46753e-10	5.79461e-06	3.78276	2.46934e+06	62.5396	2.46941e+06
0.0019912	14.448	4.31505	15.0787	-16.6288	20329	3.78266	0.00153185	1.85234e+07	1.51693e+06	1	11	0.0050306	0.000333624	0	-0.00640872	-9.58012e-05	7.44101e-07	-41.1723	0.00223036	0.00167886	0.0014683	-16.6323	15.0807	14.4497	4.31651	0.0635454	0.0189784	0.0663189	16.6288	1.51693e+09	5.07914e+09	5.30083e+09	-73.3712	0.0000000E+000	0.0000000E+000	0.0000000E+000	73.3712	0.0000000E+000	0.0000000E+000	0.0000000E+000	-73.3712	0.0000000E+000	0.0000000E+000	0.0000000E+000	-16.6288	0.0000000E+000	0.0000000E+000	0.0000000E+000	16.6288	3.34829	73.3712	0.000000000000000E+000	5.79446e-06	-1.46753e-10	5.79461e-06	3.78276	2.46934e+06	62.5396	2.46941e+06
0.000497799	16.0212	7.53763	17.7058	-25.196	20329	3.78266	0.00153185	4.24161e+07	7.68726e+06	1	11	0.00503389	0.000284308	0	-0.00640872	-9.58012e-05	1.2493e-06	87.8512	0.00439419	0.000164757	-0.0043911	-25.1829	17.704	16.0213	7.53324	0.0511052	0.0240439	0.0564788	25.196	7.68726e+09	1.63392e+10	1.80572e+10	-64.804	0.0000000E+000	0.0000000E+000	0.0000000E+000	64.804	0.0000000E+000	0.0000000E+000	0.0000000E+000	-64.804	0.0000000E+000	0.0000000E+000	0.0000000E+000	-25.196	0.0000000E+000	0.0000000E+000	0.0000000E+000	25.196	2.12549	64.804	0.000000000000000E+000	5.79446e-06	-1.46753e-10	5.79461e-06	3.78276	2.46934e+06	62.5396	2.46941e+06
9.95598e-05	19.0894	34.0187	39.0087	-60.7013	20329	3.78266	0.00153185	4.69914e+07	3.57381e+07	1	11	0.00502169	0.000128733	0	-0.00640872	-9.58012e-05	1.1185e-05	-96.4194	0.0868854	-0.00971426	0.0863406	-60.7756	39.0793	19.0797	34.105	0.012545	0.0223561	0.0256353	60.7013	3.57381e+10	2.00542e+10	4.09803e+10	-29.2987	0.0000000E+000	0.0000000E+000	0.0000000E+000	29.2987	0.0000000E+000	0.0000000E+000	0.0000000E+000	-29.2987	0.0000000E+000	0.0000000E+000	0.0000000E+000	-60.7013	0.0000000E+000	0.0000000E+000	0.0000000E+000	60.7013	0.561144	29.2987	0.000000000000000E+000	5.79446e-06	-1.46753e-10	5.79461e-06	3.78276	2.46934e+06	62.5396	2.46941e+06

File: 17612_R291_UC85_SOC50_C07.mpt
EC-Lab ASCII FILE
Nb header lines : 64

Potentio Electrochemical Impedance Spectroscopy

Run on channel : 7 (SN 66126)
User :
CE vs. WE compliance from -10 V to 10 V
Electrode connection : standard
Potential control : Ewe
Ewe ctrl range : min = -10.00 V, max = 10.00 V
Safety Limits :
	Do not start on E overload
Acquisition started on : 09/17/2025 17:34:55.865
Loaded Setting File :  C:\Users\Celltest\OneDrive - store-dot.com\Documents\EC-Lab\Data\Michael\R290\17544_R290_UC82_50SOC.mps
Saved on :
	File : 17612_R291_UC85_SOC50_C07.mpr
	Directory : C:\Users\Celltest\OneDrive - store-dot.com\Documents\EC-Lab\Data\Gyutae\
	Host : 169.254.61.224
Device : VMP-3e (SN .003165)
Address : USB
EC-LAB for windows v11.62 (software)
Internet server v27.00 (firmware)
Command interpretor v12.03 (firmware)
Electrode material :
Initial state :
Electrolyte :
Comments :
Electrode surface area : 0.001 cm²
Characteristic mass : 0.001 g
Equivalent Weight : 0.000 g/eq.
Density : 0.000 g/cm3
Volume (V) : 0.001 cm³
Record Ece
Cycle Definition : Charge/Discharge alternance
Mode                Multi sine
E (V)               0.0000
vs.                 Eoc
tE (h:m:s)          0:00:0.0000
record              0
dI                  0.000
unit dI             mA
dt (s)              0.000
fi                  1.000
unit fi             MHz
ff                  0.100
unit ff             mHz
Nd                  10
Points              per decade
spacing             Logarithmic
Va (mV)             5.0
pw                  0.10
Na                  2
corr                0
E range min (V)     -10.000
E range max (V)     10.000
I Range             Auto
Bandwidth           5
nc cycles           0
goto Ns'            0
nr cycles           0
inc. cycle          0

freq/Hz	Re(Z)/Ohm	-Im(Z)/Ohm	|Z|/Ohm	Phase(Z)/deg	time/s	<Ewe>/V	<I>/mA	Cs/µF	Cp/µF	cycle number	I Range	|Ewe|/V	|I|/A	Ns	(Q-Qo)/mA.h	<Ece>/V	|Ece|/V	Phase(Zce)/deg	|Zce|/Ohm	Re(Zce)/Ohm	-Im(Zce)/Ohm	Phase(Zwe-ce)/deg	|Zwe-ce|/Ohm	Re(Zwe-ce)/Ohm	-Im(Zwe-ce)/Ohm	Re(Y)/Ohm-1	Im(Y)/Ohm-1	|Y|/Ohm-1	Phase(Y)/deg	Re(C)/nF	Im(C)/nF	|C|/nF	Phase(C)/deg	Re(M)	Im(M)	|M|	Phase(M)/deg	Re(Permittivity)	Im(Permittivity)	|Permittivity|	Phase(Permittivity)/deg	Re(Resistivity)/Ohm.cm	Im(Resistivity)/Ohm.cm	|Resistivity|/Ohm.cm	Phase(Resistivity)/deg	Re(Conductivity)/mS/cm	Im(Conductivity)/mS/cm	|Conductivity|/mS/cm	Phase(Conductivity)/deg	Tan(Delta)	Loss Angle(Delta)/deg	dq/mA.h	Pwe/W	Pce/W	Pwe-ce/W	<Ewe-Ece>/V	Rwe/Ohm	Rce/Ohm	Rwe-ce/Ohm		Ewe-Ece/V
1.00002e+06	2.5696	2.8939	3.87008	-48.397	2.23356	3.78294	-0.0709215	0.0549956	0.0307508	1	10	0.000229095	5.91965e-05	0	-3.00662e-05	-0.000441049	0.000197885	-63.0465	3.34285	1.5152	2.97973	-55.1834	7.15438	4.0848	5.87363	0.171564	0.193217	0.258393	48.397	30.7508	27.3047	41.1237	-41.603	0.0000000E+000	0.0000000E+000	0.0000000E+000	41.603	0.0000000E+000	0.0000000E+000	0.0000000E+000	-41.603	0.0000000E+000	0.0000000E+000	0.0000000E+000	-48.397	0.0000000E+000	0.0000000E+000	0.0000000E+000	48.397	0.887934	41.603	-3.00662e-05	-0.000268292	3.12799e-08	-0.000268323	3.78338	53339.8	6.21883	53346
251206	1.32599	0.356286	1.37303	-15.0398	4.93754	3.78308	0.0191467	1.77824	0.119738	1	9	0.0033475	0.00243805	0	-2.9699e-05	-0.000326596	4.89069e-05	101.308	0.0200599	-0.00393332	-0.0196704	-14.2848	1.36424	1.32206	0.336616	0.70337	0.188991	0.728318	15.0398	119.738	445.629	461.435	-74.9602	0.0000000E+000	0.0000000E+000	0.0000000E+000	74.9602	0.0000000E+000	0.0000000E+000	0.0000000E+000	-74.9602	0.0000000E+000	0.0000000E+000	0.0000000E+000	-15.0398	0.0000000E+000	0.0000000E+000	0.0000000E+000	15.0398	3.72171	74.9602	1.98917e-06	7.24334e-05	-6.25323e-09	7.24396e-05	3.78341	197584	17.0576	197601
63093.8	1.94743	0.694081	2.06742	-19.6165	7.23552	3.78316	0.0326261	3.63432	0.409623	1	9	0.005466	0.00264387	0	-3.63693e-05	-0.00026937	2.45767e-05	73.4585	0.00929573	0.00264659	-0.00891102	-19.3592	2.06695	1.95008	0.68517	0.455621	0.162387	0.483694	19.6165	409.623	1149.31	1220.12	-70.3835	0.0000000E+000	0.0000000E+000	0.0000000E+000	70.3835	0.0000000E+000	0.0000000E+000	0.0000000E+000	-70.3835	0.0000000E+000	0.0000000E+000	0.0000000E+000	-19.6165	0.0000000E+000	0.0000000E+000	0.0000000E+000	19.6165	2.80577	70.3835	1.8829e-06	0.00012343	-8.7885e-09	0.000123439	3.78343	115955	8.25627	115963
15847.7	2.57779	0.649443	2.65834	-14.1407	9.40953	3.78317	0.0366848	15.4637	0.922942	1	9	0.00490782	0.0018462	0	-1.64749e-05	-0.000250295	7.68182e-05	34.7891	0.0416089	0.0341717	-0.0237403	-13.4715	2.68586	2.61196	0.625703	0.364776	0.0919009	0.376175	14.1407	922.942	3663.37	3777.84	-75.8593	0.0000000E+000	0.0000000E+000	0.0000000E+000	75.8593	0.0000000E+000	0.0000000E+000	0.0000000E+000	-75.8593	0.0000000E+000	0.0000000E+000	0.0000000E+000	-14.1407	0.0000000E+000	0.0000000E+000	0.0000000E+000	14.1407	3.96923	75.8593	4.06563e-06	0.000138785	-9.18201e-09	0.000138794	3.78342	103126	6.82284	103133
3983.6	3.09032	0.791584	3.1901	-14.3674	11.1341	3.78289	-0.0495539	50.4716	3.10766	1	9	0.00469872	0.00147291	0	-5.65335e-06	-0.000193068	1.12448e-05	3.30218	0.00763442	0.00762174	-0.000439758	-14.3258	3.19737	3.09795	0.791144	0.303666	0.0777839	0.31347	14.3674	3107.66	12132.2	12523.9	-75.6326	0.0000000E+000	0.0000000E+000	0.0000000E+000	75.6326	0.0000000E+000	0.0000000E+000	0.0000000E+000	-75.6326	0.0000000E+000	0.0000000E+000	0.0000000E+000	-14.3674	0.0000000E+000	0.0000000E+000	0.0000000E+000	14.3674	3.90398	75.6326	-3.96865e-06	-0.000187457	9.56729e-09	-0.000187467	3.78308	76338.9	3.89612	76342.8
1000.32	3.89675	1.27529	4.10012	-18.1218	14.0069	3.78308	-0.032726	124.759	12.0697	1	10	0.00467951	0.00114131	0	-1.05535e-05	-0.000231219	5.80424e-06	-69.5328	0.00508559	0.00177828	0.00476455	-18.1773	4.1033	3.89853	1.28006	0.231797	0.0758606	0.243895	18.1218	12069.7	36879.9	38804.7	-71.8782	0.0000000E+000	0.0000000E+000	0.0000000E+000	71.8782	0.0000000E+000	0.0000000E+000	0.0000000E+000	-71.8782	0.0000000E+000	0.0000000E+000	0.0000000E+000	-18.1218	0.0000000E+000	0.0000000E+000	0.0000000E+000	18.1218	3.05557	71.8782	-4.00621e-06	-0.000123805	7.56688e-09	-0.000123813	3.78331	115599	7.0653	115606
251.044	5.47447	1.69278	5.73021	-17.1823	16.708	3.78307	-0.0324543	374.515	32.6836	1	10	0.00461446	0.000805286	0	-3.56133e-05	-0.000173993	1.01222e-05	3.10843	0.0125697	0.0125512	-0.000681598	-17.1388	5.742	5.48702	1.6921	0.166725	0.0515537	0.174514	17.1823	32683.6	105699	110637	-72.8177	0.0000000E+000	0.0000000E+000	0.0000000E+000	72.8177	0.0000000E+000	0.0000000E+000	0.0000000E+000	-72.8177	0.0000000E+000	0.0000000E+000	0.0000000E+000	-17.1823	0.0000000E+000	0.0000000E+000	0.0000000E+000	17.1823	3.23401	72.8177	-4.0905e-06	-0.000122777	5.64681e-09	-0.000122782	3.78325	116566	5.36117	116572
63.0823	7.01426	1.07737	7.09652	-8.73219	19.429	3.78309	-0.0275439	2341.8	53.9741	1	10	0.00460861	0.000649419	0	-5.97068e-05	-0.000154917	4.8922e-06	41.8725	0.0075332	0.00560946	-0.00502823	-8.68522	7.1013	7.01987	1.07234	0.139281	0.021393	0.140914	8.73219	53974.1	351402	355523	-81.2678	0.0000000E+000	0.0000000E+000	0.0000000E+000	81.2678	0.0000000E+000	0.0000000E+000	0.0000000E+000	-81.2678	0.0000000E+000	0.0000000E+000	0.0000000E+000	-8.73219	0.0000000E+000	0.0000000E+000	0.0000000E+000	8.73219	6.51057	81.2678	-3.30501e-06	-0.000104201	4.26704e-09	-0.000104205	3.78324	137347	5.62437	137353
[...]
0.0602816	8.84198	1.48642	8.96605	-9.54271	240.184	3.78308	-0.0117707	1.77621e+06	48817.3	1	11	0.0050764	0.00056618	0	-0.00328117	3.58368e-05	4.48051e-07	84.1352	0.000791358	8.0862e-05	-0.000787216	-9.53767	8.966	8.84206	1.48563	0.109988	0.0184901	0.111532	9.54271	4.88173e+07	2.9039e+08	2.94465e+08	-80.4573	0.0000000E+000	0.0000000E+000	0.0000000E+000	80.4573	0.0000000E+000	0.0000000E+000	0.0000000E+000	-80.4573	0.0000000E+000	0.0000000E+000	0.0000000E+000	-9.54271	0.0000000E+000	0.0000000E+000	0.0000000E+000	9.54271	5.94852	80.4573	0.000000000000000E+000	-4.45294e-05	-4.21823e-10	-4.4529e-05	3.78305	321399	3.04458	321396
0.00796479	13.5295	3.82521	14.0599	-15.7873	20329.1	3.78308	0.000540594	5.22385e+06	386669	1	11	0.00507164	0.000360717	0	-0.00722516	-0.000212144	3.76259e-07	-40.0186	0.00104309	0.000798833	0.000670742	-15.789	14.0608	13.5303	3.82588	0.0684416	0.0193506	0.0711245	15.7873	3.86669e+08	1.36762e+09	1.42123e+09	-74.2127	0.0000000E+000	0.0000000E+000	0.0000000E+000	74.2127	0.0000000E+000	0.0000000E+000	0.0000000E+000	-74.2127	0.0000000E+000	0.0000000E+000	0.0000000E+000	-15.7873	0.0000000E+000	0.0000000E+000	0.0000000E+000	15.7873	3.53693	74.2127	-0.00394399	2.04511e-06	-1.14684e-10	2.04523e-06	3.7833	6.99802e+06	392.427	6.99841e+06
0.0019912	17.0259	4.98203	17.7399	-16.3102	20329.1	3.78308	0.000540594	1.60435e+07	1.26535e+06	1	11	0.00508318	0.00028654	0	-0.00722516	-0.000212144	1.46479e-06	67.849	0.005112	0.00192747	-0.0047347	-16.2938	17.7404	17.0279	4.97729	0.0541016	0.0158309	0.0563702	16.3102	1.26535e+09	4.3243e+09	4.50563e+09	-73.6898	0.0000000E+000	0.0000000E+000	0.0000000E+000	73.6898	0.0000000E+000	0.0000000E+000	0.0000000E+000	-73.6898	0.0000000E+000	0.0000000E+000	0.0000000E+000	-16.3102	0.0000000E+000	0.0000000E+000	0.0000000E+000	16.3102	3.41747	73.6898	0.000000000000000E+000	2.04511e-06	-1.14684e-10	2.04523e-06	3.7833	6.99802e+06	392.427	6.99841e+06
0.000497799	19.0288	8.28753	20.7552	-23.5344	20329.1	3.78308	0.000540594	3.85781e+07	6.15088e+06	1	11	0.00508123	0.000244817	0	-0.00722516	-0.000212144	2.21852e-06	-80.0485	0.00906194	0.00156604	0.0089256	-23.5552	20.7602	19.0304	8.29645	0.0441731	0.0192385	0.0481807	23.5344	6.15088e+09	1.41229e+10	1.54042e+10	-66.4656	0.0000000E+000	0.0000000E+000	0.0000000E+000	66.4656	0.0000000E+000	0.0000000E+000	0.0000000E+000	-66.4656	0.0000000E+000	0.0000000E+000	0.0000000E+000	-23.5344	0.0000000E+000	0.0000000E+000	0.0000000E+000	23.5344	2.29608	66.4656	0.000000000000000E+000	2.04511e-06	-1.14684e-10	2.04523e-06	3.7833	6.99802e+06	392.427	6.99841e+06
9.95598e-05	22.5338	36.1969	42.6379	-58.0963	20329.1	3.78308	0.000540594	4.41636e+07	3.18285e+07	1	11	0.00508765	0.000119322	0	-0.00722516	-0.000212144	4.95815e-06	27.4618	0.0415527	0.0368704	-0.0191623	-58.0406	42.6412	22.5707	36.1778	0.0123949	0.0199104	0.0234533	58.0963	3.18285e+10	1.98143e+10	3.74921e+10	-31.9037	0.0000000E+000	0.0000000E+000	0.0000000E+000	31.9037	0.0000000E+000	0.0000000E+000	0.0000000E+000	-31.9037	0.0000000E+000	0.0000000E+000	0.0000000E+000	-58.0963	0.0000000E+000	0.0000000E+000	0.0000000E+000	58.0963	0.622535	31.9037	0.000000000000000E+000	2.04511e-06	-1.14684e-10	2.04523e-06	3.7833	6.99802e+06	392.427	6.99841e+06