Folder: EIS/txt (part 144)

File: 18948_R308_UA705_SOC00_C05.mpt
EC-Lab ASCII FILE
Nb header lines : 65

Potentio Electrochemical Impedance Spectroscopy

Run on channel : 5 (SN 65912)
Grouped channel(s) : 1, 2, 3, 4, 5
User :
CE vs. WE compliance from -10 V to 10 V
Electrode connection : standard
Potential control : Ewe
Ewe ctrl range : min = -10.00 V, max = 10.00 V
Safety Limits :
	Do not start on E overload
Acquisition started on : 11/04/2025 15:30:07.703
Loaded Setting File :  C:\Users\Celltest\OneDrive - store-dot.com\Documents\EC-Lab\Data\@Biologic Test Protocols\anode half cell EIS SOC00.mps
Saved on :
	File : 18944_R308_UA705_SOC00_C05.mpr
	Directory : C:\Users\Celltest\OneDrive - store-dot.com\Documents\EC-Lab\Data\Charmaine\
	Host : 169.254.61.224
Device : VMP-3e (SN .003165)
Address : USB
EC-LAB for windows v11.62 (software)
Internet server v27.00 (firmware)
Command interpretor v12.03 (firmware)
Electrode material :
Initial state :
Electrolyte :
Comments :
Electrode surface area : 0.001 cm²
Characteristic mass : 0.001 g
Equivalent Weight : 0.000 g/eq.
Density : 0.000 g/cm3
Volume (V) : 0.001 cm³
Record Ece
Cycle Definition : Charge/Discharge alternance
Mode                Single sine
E (V)               0.0000
vs.                 Eoc
tE (h:m:s)          0:00:0.0000
record              0
dI                  0.000
unit dI             mA
dt (s)              0.000
fi                  100.000
unit fi             kHz
ff                  10.000
unit ff             mHz
Nd                  6
Points              per decade
spacing             Logarithmic
Va (mV)             5.0
pw                  0.10
Na                  2
corr                0
E range min (V)     -10.000
E range max (V)     10.000
I Range             Auto
Bandwidth           5
nc cycles           0
goto Ns'            0
nr cycles           0
inc. cycle          0

freq/Hz	Re(Z)/Ohm	-Im(Z)/Ohm	|Z|/Ohm	Phase(Z)/deg	time/s	<Ewe>/V	<I>/mA	Cs/µF	Cp/µF	cycle number	I Range	|Ewe|/V	|I|/A	Ns	(Q-Qo)/mA.h	<Ece>/V	|Ece|/V	Phase(Zce)/deg	|Zce|/Ohm	Re(Zce)/Ohm	-Im(Zce)/Ohm	Phase(Zwe-ce)/deg	|Zwe-ce|/Ohm	Re(Zwe-ce)/Ohm	-Im(Zwe-ce)/Ohm	Re(Y)/Ohm-1	Im(Y)/Ohm-1	|Y|/Ohm-1	Phase(Y)/deg	Re(C)/nF	Im(C)/nF	|C|/nF	Phase(C)/deg	Re(M)	Im(M)	|M|	Phase(M)/deg	Re(Permittivity)	Im(Permittivity)	|Permittivity|	Phase(Permittivity)/deg	Re(Resistivity)/Ohm.cm	Im(Resistivity)/Ohm.cm	|Resistivity|/Ohm.cm	Phase(Resistivity)/deg	Re(Conductivity)/mS/cm	Im(Conductivity)/mS/cm	|Conductivity|/mS/cm	Phase(Conductivity)/deg	Tan(Delta)	Loss Angle(Delta)/deg	dq/mA.h	Pwe/W	Pce/W	Pwe-ce/W	<Ewe-Ece>/V	Rwe/Ohm	Rce/Ohm	Rwe-ce/Ohm		Ewe-Ece/V
100004	2.50524	1.74088	3.05072	-34.7952	2.18456	0.19797	-0.02851	0.914189	0.297693	1	9	0.00450821	0.00147775	0	-4.41963e-06	-3.90715e-05	3.37459e-05	66.8341	0.022836	0.00898354	-0.0209947	-34.3745	3.0462	2.51422	1.71988	0.269182	0.187053	0.327792	34.7952	297.693	428.4	521.677	-55.2048	0.0000000E+000	0.0000000E+000	0.0000000E+000	55.2048	0.0000000E+000	0.0000000E+000	0.0000000E+000	-55.2048	0.0000000E+000	0.0000000E+000	0.0000000E+000	-34.7952	0.0000000E+000	0.0000000E+000	0.0000000E+000	34.7952	1.43907	55.2048	-4.41963e-06	-5.64412e-06	1.11393e-09	-5.64524e-06	0.198009	6943.88	1.37045	6945.25
31621.1	4.1285	3.04699	5.13115	-36.4287	3.86252	0.198017	-0.0237612	1.65185	0.582485	1	10	0.00470269	0.000916499	0	-1.78139e-05	3.72934e-05	1.17948e-05	-33.6275	0.0128694	0.0107158	0.00712694	-36.4217	5.144	4.13922	3.05412	0.156806	0.115729	0.194888	36.4287	582.485	789.234	980.908	-53.5713	0.0000000E+000	0.0000000E+000	0.0000000E+000	53.5713	0.0000000E+000	0.0000000E+000	0.0000000E+000	-53.5713	0.0000000E+000	0.0000000E+000	0.0000000E+000	-36.4287	0.0000000E+000	0.0000000E+000	0.0000000E+000	36.4287	1.35494	53.5713	-3.54964e-06	-4.70511e-06	-8.86136e-10	-4.70423e-06	0.197979	8333.61	1.56951	8332.04
10002.2	6.8135	4.47252	8.15029	-33.2817	5.01055	0.197998	-0.0219032	3.55772	1.07135	1	10	0.00499894	0.000613345	0	-2.48999e-05	-5.81627e-05	9.94936e-06	-59.4485	0.0162215	0.00824558	0.0139695	-33.3319	8.16485	6.82174	4.48649	0.102571	0.0673297	0.122695	33.2817	1071.35	1632.1	1952.32	-56.7183	0.0000000E+000	0.0000000E+000	0.0000000E+000	56.7183	0.0000000E+000	0.0000000E+000	0.0000000E+000	-56.7183	0.0000000E+000	0.0000000E+000	0.0000000E+000	-33.2817	0.0000000E+000	0.0000000E+000	0.0000000E+000	33.2817	1.52341	56.7183	-2.84845e-06	-4.33681e-06	1.27395e-09	-4.33808e-06	0.198057	9039.69	2.65544	9042.34
3163.08	10.3816	6.1979	12.0909	-30.8376	5.90962	0.197877	-0.0143671	8.11831	2.13321	1	10	0.00467757	0.000386866	0	-2.91258e-05	0.000132749	4.68884e-06	-30.8372	0.0121201	0.0104066	0.00621275	-30.8376	12.1031	10.392	6.20411	0.0710138	0.042396	0.0827066	30.8376	2133.21	3573.16	4161.5	-59.1624	0.0000000E+000	0.0000000E+000	0.0000000E+000	59.1624	0.0000000E+000	0.0000000E+000	0.0000000E+000	-59.1624	0.0000000E+000	0.0000000E+000	0.0000000E+000	-30.8376	0.0000000E+000	0.0000000E+000	0.0000000E+000	30.8376	1.67501	59.1624	-1.77338e-06	-2.84291e-06	-1.90722e-09	-2.841e-06	0.197744	13772.9	9.23984	13763.7
1000.32	15.1154	9.07066	17.6281	-30.9677	7.26286	0.19795	0.000824446	17.5405	4.64415	1	10	0.00452982	0.000256965	0	-2.89162e-05	0.000132749	7.26537e-06	27.7734	0.0282738	0.0250166	-0.0131749	-30.8893	17.6428	15.1404	9.05748	0.0486414	0.0291894	0.0567275	30.9677	4644.15	7739.04	9025.57	-59.0323	0.0000000E+000	0.0000000E+000	0.0000000E+000	59.0323	0.0000000E+000	0.0000000E+000	0.0000000E+000	-59.0323	0.0000000E+000	0.0000000E+000	0.0000000E+000	-30.9677	0.0000000E+000	0.0000000E+000	0.0000000E+000	30.9677	1.6664	59.0323	2.66567e-07	1.63199e-07	1.09445e-10	1.6309e-07	0.197817	240101	161.016	239940
316.316	23.0305	14.0157	26.9601	-31.3235	8.82608	0.197948	6.85893e-05	35.8991	9.70225	1	10	0.00499697	0.000185347	0	-2.91603e-05	-0.000363622	7.34726e-06	-50.404	0.0396405	0.0252657	0.0305453	-31.351	26.9975	23.0558	14.0463	0.0316856	0.019283	0.0370919	31.3235	9702.25	15942.7	18662.9	-58.6765	0.0000000E+000	0.0000000E+000	0.0000000E+000	58.6765	0.0000000E+000	0.0000000E+000	0.0000000E+000	-58.6765	0.0000000E+000	0.0000000E+000	0.0000000E+000	-31.3235	0.0000000E+000	0.0000000E+000	0.0000000E+000	31.3235	1.64319	58.6765	-3.18415e-07	1.35771e-08	-2.49406e-11	1.3602e-08	0.198311	2.88598e+06	5301.44	2.89128e+06
100.032	37.2576	18.5509	41.6205	-26.4692	10.4189	0.197996	-0.00352608	85.7661	17.0386	1	11	0.00499533	0.000120021	0	-3.01724e-05	0.000247297	4.89911e-06	57.7234	0.0408188	0.0217976	-0.0345115	-26.4133	41.6246	37.2794	18.5164	0.021508	0.0107091	0.0240266	26.4692	17038.6	34220.1	38227.4	-63.5308	0.0000000E+000	0.0000000E+000	0.0000000E+000	63.5308	0.0000000E+000	0.0000000E+000	0.0000000E+000	-63.5308	0.0000000E+000	0.0000000E+000	0.0000000E+000	-26.4692	0.0000000E+000	0.0000000E+000	0.0000000E+000	26.4692	2.00839	63.5308	-5.71379e-07	-6.98151e-07	-8.71989e-10	-6.97279e-07	0.197749	56151.9	70.1335	56081.7
[...]
1.00006	64.1463	4.50177	64.304	-4.01442	19.6968	0.198	-0.00197376	35351.6	173.26	1	12	0.00499025	7.76039e-05	0	-3.82316e-05	0.000170932	2.54331e-06	-56.3124	0.0327729	0.018178	0.0272695	-4.03752	64.3241	64.1644	4.52904	0.015513	0.0010887	0.0155511	4.01442	173261	2.46881e+06	2.47488e+06	-85.9856	0.0000000E+000	0.0000000E+000	0.0000000E+000	85.9856	0.0000000E+000	0.0000000E+000	0.0000000E+000	-85.9856	0.0000000E+000	0.0000000E+000	0.0000000E+000	-4.01442	0.0000000E+000	0.0000000E+000	0.0000000E+000	4.01442	14.2491	85.9856	-3.69868e-07	-3.90803e-07	-3.37378e-10	-3.90465e-07	0.197829	100316	86.6023	100230
0.316193	67.6119	5.80864	67.8609	-4.91031	34.0399	0.197984	-0.00179077	86655	634.896	1	12	0.00499198	7.3562e-05	0	-3.47523e-05	-3.90715e-05	1.79019e-06	-67.4713	0.0243358	0.00932417	0.0224787	-4.92854	67.8721	67.6212	5.83111	0.0146819	0.00126135	0.014736	4.91031	634896	7.39011e+06	7.41734e+06	-85.0897	0.0000000E+000	0.0000000E+000	0.0000000E+000	85.0897	0.0000000E+000	0.0000000E+000	0.0000000E+000	-85.0897	0.0000000E+000	0.0000000E+000	0.0000000E+000	-4.91031	0.0000000E+000	0.0000000E+000	0.0000000E+000	4.91031	11.6399	85.0897	1.88365e-07	-3.54544e-07	6.99681e-11	-3.54614e-07	0.198023	110558	21.8183	110580
0.0999041	71.3054	8.23823	71.7798	-6.59041	79.2478	0.197988	-0.00151292	193376	2547.22	1	12	0.00499341	6.95657e-05	0	-8.35426e-05	0.000113658	2.43693e-06	-15.528	0.0350307	0.033752	0.00937801	-6.59475	71.8144	71.3392	8.24761	0.0138394	0.00159893	0.0139315	6.59041	2.54722e+06	2.20473e+07	2.2194e+07	-83.4096	0.0000000E+000	0.0000000E+000	0.0000000E+000	83.4096	0.0000000E+000	0.0000000E+000	0.0000000E+000	-83.4096	0.0000000E+000	0.0000000E+000	0.0000000E+000	-6.59041	0.0000000E+000	0.0000000E+000	0.0000000E+000	6.59041	8.65543	83.4096	-2.79957e-05	-2.9954e-07	-1.71956e-10	-2.99368e-07	0.197875	130865	75.1251	130790
0.0315922	76.1773	16.5724	77.9591	-12.2735	222.131	0.197996	-0.0026856	303986	13737	1	12	0.00499756	6.41049e-05	0	-0.000195922	0.000285479	1.75112e-06	25.9506	0.0273165	0.0245622	-0.0119536	-12.2611	77.9805	76.2018	16.5605	0.0125341	0.0027268	0.0128272	12.2735	1.3737e+07	6.3144e+07	6.4621e+07	-77.7265	0.0000000E+000	0.0000000E+000	0.0000000E+000	77.7265	0.0000000E+000	0.0000000E+000	0.0000000E+000	-77.7265	0.0000000E+000	0.0000000E+000	0.0000000E+000	-12.2735	0.0000000E+000	0.0000000E+000	0.0000000E+000	12.2735	4.59663	77.7265	-2.96985e-05	-5.31738e-07	-7.66682e-10	-5.30971e-07	0.197711	73725.2	106.3	73618.9
0.0100092	88.4813	37.1897	95.9792	-22.7976	673.354	0.197991	-0.00297898	427562	64193.4	1	12	0.00499441	5.20363e-05	0	-0.000271191	0.000151841	2.53273e-06	16.2747	0.0486724	0.046722	-0.0136401	-22.7793	96.017	88.528	37.1761	0.00960499	0.00403709	0.0104189	22.7976	6.41934e+07	1.52728e+08	1.6567e+08	-67.2024	0.0000000E+000	0.0000000E+000	0.0000000E+000	67.2024	0.0000000E+000	0.0000000E+000	0.0000000E+000	-67.2024	0.0000000E+000	0.0000000E+000	0.0000000E+000	-22.7976	0.0000000E+000	0.0000000E+000	0.0000000E+000	22.7976	2.37919	67.2024	-7.32174e-05	-5.89813e-07	-4.52331e-10	-5.89361e-07	0.19784	66462.7	50.9706	66411.8

File: 18949_R308_UA706_SOC00_C06.mpt
EC-Lab ASCII FILE
Nb header lines : 65

Potentio Electrochemical Impedance Spectroscopy

Run on channel : 6 (SN 65795)
User :
CE vs. WE compliance from -10 V to 10 V
Electrode connection : standard
Potential control : Ewe
Ewe ctrl range : min = -10.00 V, max = 10.00 V
Safety Limits :
	Do not start on E overload
Acquisition started on : 11/04/2025 15:30:36.441
Technique started on : 11/04/2025 15:30:38.352
Loaded Setting File :  C:\Users\Celltest\OneDrive - store-dot.com\Documents\EC-Lab\Data\@Biologic Test Protocols\anode half cell EIS SOC00.mps
Saved on :
	File : 18949_R308_UA706_SOC00_C06.mpr
	Directory : C:\Users\Celltest\OneDrive - store-dot.com\Documents\EC-Lab\Data\Charmaine\
	Host : 169.254.61.224
Device : VMP-3e (SN .003165)
Address : USB
EC-LAB for windows v11.62 (software)
Internet server v27.00 (firmware)
Command interpretor v12.03 (firmware)
Electrode material :
Initial state :
Electrolyte :
Comments :
Electrode surface area : 0.001 cm²
Characteristic mass : 0.001 g
Equivalent Weight : 0.000 g/eq.
Density : 0.000 g/cm3
Volume (V) : 0.001 cm³
Record Ece
Cycle Definition : Charge/Discharge alternance
Mode                Single sine
E (V)               0.0000
vs.                 Eoc
tE (h:m:s)          0:00:0.0000
record              0
dI                  0.000
unit dI             mA
dt (s)              0.000
fi                  100.000
unit fi             kHz
ff                  10.000
unit ff             mHz
Nd                  6
Points              per decade
spacing             Logarithmic
Va (mV)             5.0
pw                  0.10
Na                  2
corr                0
E range min (V)     -10.000
E range max (V)     10.000
I Range             Auto
Bandwidth           5
nc cycles           0
goto Ns'            0
nr cycles           0
inc. cycle          0

freq/Hz	Re(Z)/Ohm	-Im(Z)/Ohm	|Z|/Ohm	Phase(Z)/deg	time/s	<Ewe>/V	<I>/mA	Cs/µF	Cp/µF	cycle number	I Range	|Ewe|/V	|I|/A	Ns	(Q-Qo)/mA.h	<Ece>/V	|Ece|/V	Phase(Zce)/deg	|Zce|/Ohm	Re(Zce)/Ohm	-Im(Zce)/Ohm	Phase(Zwe-ce)/deg	|Zwe-ce|/Ohm	Re(Zwe-ce)/Ohm	-Im(Zwe-ce)/Ohm	Re(Y)/Ohm-1	Im(Y)/Ohm-1	|Y|/Ohm-1	Phase(Y)/deg	Re(C)/nF	Im(C)/nF	|C|/nF	Phase(C)/deg	Re(M)	Im(M)	|M|	Phase(M)/deg	Re(Permittivity)	Im(Permittivity)	|Permittivity|	Phase(Permittivity)/deg	Re(Resistivity)/Ohm.cm	Im(Resistivity)/Ohm.cm	|Resistivity|/Ohm.cm	Phase(Resistivity)/deg	Re(Conductivity)/mS/cm	Im(Conductivity)/mS/cm	|Conductivity|/mS/cm	Phase(Conductivity)/deg	Tan(Delta)	Loss Angle(Delta)/deg	dq/mA.h	Pwe/W	Pce/W	Pwe-ce/W	<Ewe-Ece>/V	Rwe/Ohm	Rce/Ohm	Rwe-ce/Ohm		Ewe-Ece/V
100004	2.01465	0.965501	2.23406	-25.6056	1.91052	0.212835	0.0128071	1.64836	0.307871	1	9	0.00459901	0.00205859	0	-5.31178e-07	0.000129508	3.33509e-05	80.1555	0.0162008	0.00276992	-0.0159623	-25.205	2.22971	2.01742	0.949539	0.403656	0.193448	0.447616	25.6056	307.871	642.415	712.377	-64.3944	0.0000000E+000	0.0000000E+000	0.0000000E+000	64.3944	0.0000000E+000	0.0000000E+000	0.0000000E+000	-64.3944	0.0000000E+000	0.0000000E+000	0.0000000E+000	-25.6056	0.0000000E+000	0.0000000E+000	0.0000000E+000	25.6056	2.08664	64.3944	-5.31178e-07	2.72581e-06	1.65863e-09	2.72415e-06	0.212706	16618.5	10.1122	16608.4
31621.1	3.01252	1.51238	3.37084	-26.658	3.30754	0.212805	0.00308489	3.328	0.669925	1	9	0.00534453	0.00158552	0	-3.02041e-07	7.22138e-05	8.3163e-06	-0.874393	0.00524516	0.00524455	8.00434e-05	-26.6193	3.37556	3.01776	1.51246	0.265127	0.133102	0.296662	26.658	669.925	1334.43	1493.15	-63.342	0.0000000E+000	0.0000000E+000	0.0000000E+000	63.342	0.0000000E+000	0.0000000E+000	0.0000000E+000	-63.342	0.0000000E+000	0.0000000E+000	0.0000000E+000	-26.658	0.0000000E+000	0.0000000E+000	0.0000000E+000	26.658	1.99191	63.342	1.66029e-06	6.56478e-07	2.22771e-10	6.56255e-07	0.212732	68983	23.4089	68959.6
10002.2	4.31931	1.71927	4.64891	-21.7046	4.49055	0.212852	-0.0148883	9.25507	1.2658	1	10	0.00492375	0.00105912	0	-4.03928e-07	-0.000176061	6.59133e-06	-47.4874	0.00622341	0.00420548	0.00458745	-21.7379	4.65451	4.32352	1.72386	0.199854	0.0795502	0.215104	21.7046	1265.8	3180.07	3422.73	-68.2954	0.0000000E+000	0.0000000E+000	0.0000000E+000	68.2954	0.0000000E+000	0.0000000E+000	0.0000000E+000	-68.2954	0.0000000E+000	0.0000000E+000	0.0000000E+000	-21.7046	0.0000000E+000	0.0000000E+000	0.0000000E+000	21.7046	2.5123	68.2954	-1.65519e-06	-3.169e-06	2.62124e-09	-3.17162e-06	0.213028	14296.7	11.8255	14308.5
3163.08	5.50024	1.94494	5.83399	-19.4741	5.38868	0.212746	-0.0171503	25.8705	2.87531	1	10	0.00510245	0.000874607	0	-4.3374e-06	5.31158e-05	7.71474e-06	-22.4754	0.00882081	0.00815082	0.00337208	-19.4786	5.8428	5.50839	1.94831	0.161603	0.0571444	0.171409	19.4741	2875.3	8131.31	8624.71	-70.5259	0.0000000E+000	0.0000000E+000	0.0000000E+000	70.5259	0.0000000E+000	0.0000000E+000	0.0000000E+000	-70.5259	0.0000000E+000	0.0000000E+000	0.0000000E+000	-19.4741	0.0000000E+000	0.0000000E+000	0.0000000E+000	19.4741	2.82798	70.5259	-1.36313e-06	-3.64865e-06	-9.10951e-10	-3.64774e-06	0.212693	12404.8	3.09708	12401.7
1000.32	6.74298	2.78348	7.2949	-22.4307	6.74283	0.212797	-0.00122299	57.1601	8.32205	1	10	0.0049941	0.000684602	0	-4.20083e-06	0.000167704	7.92272e-06	96.9358	0.0115727	-0.00139749	-0.0114881	-22.3514	7.28923	6.74158	2.77199	0.126711	0.0523057	0.137082	22.4307	8322.05	20160.2	21810.3	-67.5693	0.0000000E+000	0.0000000E+000	0.0000000E+000	67.5693	0.0000000E+000	0.0000000E+000	0.0000000E+000	-67.5693	0.0000000E+000	0.0000000E+000	0.0000000E+000	-22.4307	0.0000000E+000	0.0000000E+000	0.0000000E+000	22.4307	2.4225	67.5693	2.55234e-07	-2.60248e-07	-2.051e-10	-2.60043e-07	0.212629	173998	137.127	173861
316.316	8.96331	4.93801	10.2335	-28.851	8.09304	0.212812	-0.000339793	101.894	23.7247	1	10	0.00494569	0.000483284	0	-3.67049e-06	0.000167704	1.04083e-05	-53.9685	0.0215366	0.0126685	0.0174165	-28.9021	10.253	8.97598	4.95543	0.0855891	0.0471522	0.0977181	28.851	23724.7	43064.3	49167	-61.149	0.0000000E+000	0.0000000E+000	0.0000000E+000	61.149	0.0000000E+000	0.0000000E+000	0.0000000E+000	-61.149	0.0000000E+000	0.0000000E+000	0.0000000E+000	-28.851	0.0000000E+000	0.0000000E+000	0.0000000E+000	28.851	1.81517	61.149	2.21769e-07	-7.2312e-08	-5.69847e-11	-7.2255e-08	0.212644	626298	493.547	625804
100.032	14.4407	7.44319	16.2461	-27.268	9.44085	0.212807	-0.000157198	213.758	44.8688	1	10	0.00493516	0.000303776	0	-3.39265e-06	5.31158e-05	6.84681e-06	-13.1758	0.022539	0.0219457	0.00513751	-27.2487	16.2679	14.4626	7.44833	0.0547132	0.0282009	0.0615534	27.268	44868.8	87050.8	97933.9	-62.732	0.0000000E+000	0.0000000E+000	0.0000000E+000	62.732	0.0000000E+000	0.0000000E+000	0.0000000E+000	-62.732	0.0000000E+000	0.0000000E+000	0.0000000E+000	-27.268	0.0000000E+000	0.0000000E+000	0.0000000E+000	27.268	1.94012	62.732	-6.12467e-08	-3.34528e-08	-8.3497e-12	-3.34445e-08	0.212754	1.35375e+06	337.891	1.35341e+06
[...]
1.00006	25.3206	1.08477	25.3438	-2.45313	19.497	0.21284	-0.00249451	146709	268.774	1	12	0.00493456	0.000194705	0	-2.49964e-06	0.000167704	3.04263e-06	60.175	0.0156269	0.00777205	-0.0135571	-2.42177	25.351	25.3283	1.07121	0.0394213	0.00168886	0.0394574	2.45313	268774	6.27369e+06	6.27944e+06	-87.5469	0.0000000E+000	0.0000000E+000	0.0000000E+000	87.5469	0.0000000E+000	0.0000000E+000	0.0000000E+000	-87.5469	0.0000000E+000	0.0000000E+000	0.0000000E+000	-2.45313	0.0000000E+000	0.0000000E+000	0.0000000E+000	2.45313	23.3419	87.5469	4.55619e-06	-5.30932e-07	-4.1834e-10	-5.30513e-07	0.212672	85323.3	67.2292	85256
0.316193	25.8393	1.69421	25.8947	-3.75136	33.8419	0.212843	-0.000607756	297099	1271.78	1	12	0.0049329	0.000190498	0	-2.31663e-05	-0.000156963	3.47303e-06	11.4878	0.0182313	0.0178661	-0.00363095	-3.74076	25.9123	25.8571	1.69058	0.0385351	0.00252664	0.0386179	3.75136	1.27178e+06	1.93966e+07	1.94382e+07	-86.2486	0.0000000E+000	0.0000000E+000	0.0000000E+000	86.2486	0.0000000E+000	0.0000000E+000	0.0000000E+000	-86.2486	0.0000000E+000	0.0000000E+000	0.0000000E+000	-3.75136	0.0000000E+000	0.0000000E+000	0.0000000E+000	3.75136	15.2515	86.2486	-1.67416e-05	-1.29357e-07	9.53949e-11	-1.29452e-07	0.213	350211	258.266	350470
0.0999041	26.902	3.60427	27.1424	-7.63091	79.0498	0.212848	-0.00332005	441997	7793.95	1	12	0.00492899	0.000181597	0	-9.95442e-05	7.22138e-05	1.36441e-06	17.6727	0.00751337	0.00715878	-0.00228091	-7.62414	27.1492	26.9092	3.60199	0.0365164	0.00489239	0.0368427	7.63091	7.79395e+06	5.81735e+07	5.86933e+07	-82.3691	0.0000000E+000	0.0000000E+000	0.0000000E+000	82.3691	0.0000000E+000	0.0000000E+000	0.0000000E+000	-82.3691	0.0000000E+000	0.0000000E+000	0.0000000E+000	-7.63091	0.0000000E+000	0.0000000E+000	0.0000000E+000	7.63091	7.46393	82.3691	-1.80759e-05	-7.06666e-07	-2.39754e-10	-7.06426e-07	0.212776	64109.8	21.7508	64088
0.0315922	28.8867	8.42682	30.0908	-16.263	221.933	0.212843	-0.00205121	597828	46885.4	1	12	0.00493135	0.000163883	0	7.76569e-05	0.000320488	1.68782e-06	-14.2921	0.010299	0.00998021	0.00254247	-16.2623	30.1011	28.8967	8.42937	0.031903	0.00930674	0.0332328	16.263	4.68854e+07	1.60721e+08	1.6742e+08	-73.737	0.0000000E+000	0.0000000E+000	0.0000000E+000	73.737	0.0000000E+000	0.0000000E+000	0.0000000E+000	-73.737	0.0000000E+000	0.0000000E+000	0.0000000E+000	-16.263	0.0000000E+000	0.0000000E+000	0.0000000E+000	16.263	3.42795	73.737	9.85239e-05	-4.36586e-07	-6.57388e-10	-4.35929e-07	0.212523	103765	156.244	103609
0.0100092	34.2413	20.8749	40.1028	-31.3682	673.156	0.212837	-0.00254956	761723	206395	1	12	0.00493036	0.000122943	0	-0.000560096	-0.000137865	6.87753e-07	-48.2019	0.00559407	0.00372849	0.00417037	-31.3705	40.1081	34.2451	20.8791	0.0212913	0.0129801	0.0249359	31.3682	2.06395e+08	3.38551e+08	3.96504e+08	-58.6318	0.0000000E+000	0.0000000E+000	0.0000000E+000	58.6318	0.0000000E+000	0.0000000E+000	0.0000000E+000	-58.6318	0.0000000E+000	0.0000000E+000	0.0000000E+000	-31.3682	0.0000000E+000	0.0000000E+000	0.0000000E+000	31.3682	1.64031	58.6318	-0.000481476	-5.4264e-07	3.51494e-10	-5.42991e-07	0.212975	83479.9	54.0739	83534