Folder: EIS/txt (part 175)

File: 19161_R306_UA713_SOC00_C01.mpt
EC-Lab ASCII FILE
Nb header lines : 65

Potentio Electrochemical Impedance Spectroscopy

Run on channel : 1 (SN 66354)
User :
CE vs. WE compliance from -10 V to 10 V
Electrode connection : standard
Potential control : Ewe
Ewe ctrl range : min = -10.00 V, max = 10.00 V
Safety Limits :
	Do not start on E overload
Acquisition started on : 11/12/2025 15:31:56.562
Technique started on : 11/12/2025 15:31:58.474
Loaded Setting File :  C:\Users\Celltest\OneDrive - store-dot.com\Documents\EC-Lab\Data\@Biologic Test Protocols\anode half cell EIS SOC00.mps
Saved on :
	File : 19161_R306_UA713_SOC00_C01.mpr
	Directory : C:\Users\Celltest\OneDrive - store-dot.com\Documents\EC-Lab\Data\Charmaine\
	Host : 169.254.61.224
Device : VMP-3e (SN .003165)
Address : USB
EC-LAB for windows v11.62 (software)
Internet server v27.00 (firmware)
Command interpretor v12.03 (firmware)
Electrode material :
Initial state :
Electrolyte :
Comments :
Electrode surface area : 0.001 cm²
Characteristic mass : 0.001 g
Equivalent Weight : 0.000 g/eq.
Density : 0.000 g/cm3
Volume (V) : 0.001 cm³
Record Ece
Cycle Definition : Charge/Discharge alternance
Mode                Single sine
E (V)               0.0000
vs.                 Eoc
tE (h:m:s)          0:00:0.0000
record              0
dI                  0.000
unit dI             mA
dt (s)              0.000
fi                  100.000
unit fi             kHz
ff                  10.000
unit ff             mHz
Nd                  6
Points              per decade
spacing             Logarithmic
Va (mV)             5.0
pw                  0.10
Na                  2
corr                0
E range min (V)     -10.000
E range max (V)     10.000
I Range             Auto
Bandwidth           5
nc cycles           0
goto Ns'            0
nr cycles           0
inc. cycle          0

freq/Hz	Re(Z)/Ohm	-Im(Z)/Ohm	|Z|/Ohm	Phase(Z)/deg	time/s	<Ewe>/V	<I>/mA	Cs/µF	Cp/µF	cycle number	I Range	|Ewe|/V	|I|/A	Ns	(Q-Qo)/mA.h	<Ece>/V	|Ece|/V	Phase(Zce)/deg	|Zce|/Ohm	Re(Zce)/Ohm	-Im(Zce)/Ohm	Phase(Zwe-ce)/deg	|Zwe-ce|/Ohm	Re(Zwe-ce)/Ohm	-Im(Zwe-ce)/Ohm	Re(Y)/Ohm-1	Im(Y)/Ohm-1	|Y|/Ohm-1	Phase(Y)/deg	Re(C)/nF	Im(C)/nF	|C|/nF	Phase(C)/deg	Re(M)	Im(M)	|M|	Phase(M)/deg	Re(Permittivity)	Im(Permittivity)	|Permittivity|	Phase(Permittivity)/deg	Re(Resistivity)/Ohm.cm	Im(Resistivity)/Ohm.cm	|Resistivity|/Ohm.cm	Phase(Resistivity)/deg	Re(Conductivity)/mS/cm	Im(Conductivity)/mS/cm	|Conductivity|/mS/cm	Phase(Conductivity)/deg	Tan(Delta)	Loss Angle(Delta)/deg	dq/mA.h	Pwe/W	Pce/W	Pwe-ce/W	<Ewe-Ece>/V	Rwe/Ohm	Rce/Ohm	Rwe-ce/Ohm		Ewe-Ece/V
100004	2.21173	0.927244	2.39824	-22.7453	1.91156	0.289479	0.0536417	1.71637	0.256575	1	9	0.00457673	0.00190838	0	8.56013e-06	0.00012515	4.15281e-05	91.708	0.021761	-0.000648606	-0.0217513	-22.2703	2.38931	2.21108	0.905493	0.384546	0.161217	0.416973	22.7453	256.575	612.002	663.609	-67.2547	0.0000000E+000	0.0000000E+000	0.0000000E+000	67.2547	0.0000000E+000	0.0000000E+000	0.0000000E+000	-67.2547	0.0000000E+000	0.0000000E+000	0.0000000E+000	-22.7453	0.0000000E+000	0.0000000E+000	0.0000000E+000	22.7453	2.38527	67.2547	8.56013e-06	1.55281e-05	6.71323e-09	1.55214e-05	0.289354	5396.53	2.33307	5394.2
31621.1	3.10966	1.31757	3.37727	-22.9625	3.30854	0.289465	0.052524	3.82005	0.581413	1	9	0.00506338	0.00149925	0	2.86779e-05	6.79177e-05	1.35299e-05	-22.8703	0.0090244	0.00831496	0.0035073	-22.9622	3.38629	3.11797	1.32108	0.272635	0.115516	0.296097	22.9625	581.413	1372.22	1490.31	-67.0375	0.0000000E+000	0.0000000E+000	0.0000000E+000	67.0375	0.0000000E+000	0.0000000E+000	0.0000000E+000	-67.0375	0.0000000E+000	0.0000000E+000	0.0000000E+000	-22.9625	0.0000000E+000	0.0000000E+000	0.0000000E+000	22.9625	2.36015	67.0375	6.59103e-06	1.52039e-05	3.56731e-09	1.52003e-05	0.289397	5511.1	1.29308	5509.81
10002.2	4.19127	1.59116	4.48314	-20.7886	4.48955	0.289523	-0.00995509	10.0002	1.25972	1	10	0.0046517	0.0010376	0	4.30616e-05	0.000163304	8.557e-06	6.66693	0.00824692	0.00819115	-0.000957447	-20.7401	4.49046	4.19946	1.5902	0.208536	0.0791678	0.223058	20.7886	1259.72	3318.21	3549.29	-69.2114	0.0000000E+000	0.0000000E+000	0.0000000E+000	69.2114	0.0000000E+000	0.0000000E+000	0.0000000E+000	-69.2114	0.0000000E+000	0.0000000E+000	0.0000000E+000	-20.7886	0.0000000E+000	0.0000000E+000	0.0000000E+000	20.7886	2.6341	69.2114	1.12692e-06	-2.88222e-06	-1.62571e-09	-2.8806e-06	0.289359	29082.9	16.4041	29066.5
3163.08	5.38593	2.05337	5.76408	-20.8692	5.38668	0.28944	-0.0103874	24.5044	3.10969	1	10	0.00471969	0.000818811	0	4.18501e-05	0.000296845	1.63134e-05	-66.4624	0.0199233	0.00795641	0.0182657	-21.0103	5.77804	5.39389	2.07163	0.162107	0.0618026	0.173488	20.8692	3109.69	8156.64	8729.31	-69.1308	0.0000000E+000	0.0000000E+000	0.0000000E+000	69.1308	0.0000000E+000	0.0000000E+000	0.0000000E+000	-69.1308	0.0000000E+000	0.0000000E+000	0.0000000E+000	-20.8692	0.0000000E+000	0.0000000E+000	0.0000000E+000	20.8692	2.62298	69.1308	-4.37811e-07	-3.00653e-06	-3.08346e-09	-3.00345e-06	0.289143	27864.5	28.5774	27835.9
1000.32	6.95257	2.8669	7.52046	-22.4088	6.73978	0.28946	-0.00139805	55.4969	8.06499	1	10	0.00461472	0.000613621	0	4.13626e-05	0.000106072	5.96497e-06	-14.3926	0.00972094	0.00941585	0.00241629	-22.3985	7.53009	6.96199	2.86931	0.12293	0.0506901	0.132971	22.4088	8064.99	19558.6	21156.1	-67.5912	0.0000000E+000	0.0000000E+000	0.0000000E+000	67.5912	0.0000000E+000	0.0000000E+000	0.0000000E+000	-67.5912	0.0000000E+000	0.0000000E+000	0.0000000E+000	-22.4088	0.0000000E+000	0.0000000E+000	0.0000000E+000	22.4088	2.42512	67.5912	-2.82091e-07	-4.04679e-07	-1.48294e-10	-4.0453e-07	0.289354	207046	75.8718	206970
316.316	9.16142	4.259	10.103	-24.9329	8.09006	0.289463	-0.0013347	118.139	20.9945	1	10	0.00457668	0.000453002	0	4.14333e-05	0.000220536	8.16e-06	-33.4386	0.0180132	0.0150316	0.00992603	-24.948	10.1208	9.17646	4.26892	0.0897556	0.0417259	0.0989804	24.9329	20994.5	45160.7	49802.2	-65.067	0.0000000E+000	0.0000000E+000	0.0000000E+000	65.067	0.0000000E+000	0.0000000E+000	0.0000000E+000	-65.067	0.0000000E+000	0.0000000E+000	0.0000000E+000	-24.9329	0.0000000E+000	0.0000000E+000	0.0000000E+000	24.9329	2.15108	65.067	2.01007e-07	-3.86345e-07	-2.94349e-10	-3.86051e-07	0.289242	216876	165.233	216710
100.032	13.0202	6.52138	14.5621	-26.6048	9.43684	0.289464	-0.000850199	243.973	48.9299	1	10	0.00458017	0.000314527	0	4.12993e-05	-0.000199165	2.93028e-05	37.4355	0.0931645	0.0739762	-0.0566317	-26.2761	14.6031	13.0942	6.46475	0.0614004	0.0307534	0.0686716	26.6048	48929.9	97690.5	109259	-63.3952	0.0000000E+000	0.0000000E+000	0.0000000E+000	63.3952	0.0000000E+000	0.0000000E+000	0.0000000E+000	-63.3952	0.0000000E+000	0.0000000E+000	0.0000000E+000	-26.6048	0.0000000E+000	0.0000000E+000	0.0000000E+000	26.6048	1.99654	63.3952	-4.83157e-07	-2.46102e-07	1.6933e-10	-2.46271e-07	0.289663	340466	234.256	340700
[...]
1.00006	32.528	3.14553	32.6798	-5.52344	19.495	0.289516	-0.00211392	50594	468.735	1	12	0.00456324	0.000139635	0	3.7555e-05	6.79177e-05	2.8878e-06	-45.9763	0.020681	0.0143724	0.0148708	-5.54696	32.6955	32.5424	3.1604	0.0304579	0.00294534	0.0306	5.52344	468736	4.84722e+06	4.86983e+06	-84.4766	0.0000000E+000	0.0000000E+000	0.0000000E+000	84.4766	0.0000000E+000	0.0000000E+000	0.0000000E+000	-84.4766	0.0000000E+000	0.0000000E+000	0.0000000E+000	-5.52344	0.0000000E+000	0.0000000E+000	0.0000000E+000	5.52344	10.341	84.4766	2.75013e-06	-6.12015e-07	-1.43573e-10	-6.11871e-07	0.289448	136957	32.1287	136925
0.316193	34.1064	2.81545	34.2224	-4.71902	33.84	0.289524	-0.000512876	178780	1210.03	1	12	0.00456214	0.000133309	0	3.65406e-05	-8.3915e-06	3.26546e-06	59.5955	0.0244955	0.0123972	-0.0211267	-4.68207	34.233	34.1188	2.79432	0.0291216	0.00240396	0.0292206	4.71902	1.21003e+06	1.46583e+07	1.47081e+07	-85.281	0.0000000E+000	0.0000000E+000	0.0000000E+000	85.281	0.0000000E+000	0.0000000E+000	0.0000000E+000	-85.281	0.0000000E+000	0.0000000E+000	0.0000000E+000	-4.71902	0.0000000E+000	0.0000000E+000	0.0000000E+000	4.71902	12.114	85.281	-5.90115e-06	-1.4849e-07	4.3038e-12	-1.48494e-07	0.289532	564511	16.3617	564527
0.0999041	35.8635	4.26594	36.1163	-6.78343	79.0491	0.289513	-0.00128715	373441	5210.1	1	12	0.00456727	0.00012646	0	-3.72222e-05	0.000277768	2.12437e-06	-28.9647	0.0167987	0.0146975	0.00813514	-6.79349	36.1318	35.8782	4.27408	0.0274945	0.00327046	0.0276883	6.78343	5.2101e+06	4.38009e+07	4.41097e+07	-83.2166	0.0000000E+000	0.0000000E+000	0.0000000E+000	83.2166	0.0000000E+000	0.0000000E+000	0.0000000E+000	-83.2166	0.0000000E+000	0.0000000E+000	0.0000000E+000	-6.78343	0.0000000E+000	0.0000000E+000	0.0000000E+000	6.78343	8.40693	83.2166	-2.98123e-05	-3.72645e-07	-3.57528e-10	-3.72288e-07	0.289235	224926	215.802	224710
0.0315922	38.7952	8.86029	39.7941	-12.8649	221.932	0.28952	-0.000985256	568581	28187.1	1	12	0.00456577	0.000114735	0	4.09287e-05	8.6995e-05	2.46952e-06	11.444	0.0215237	0.0210958	-0.00427054	-12.8522	39.8137	38.8162	8.85602	0.0244986	0.00559514	0.0251294	12.8649	2.81871e+07	1.23419e+08	1.26597e+08	-77.1351	0.0000000E+000	0.0000000E+000	0.0000000E+000	77.1351	0.0000000E+000	0.0000000E+000	0.0000000E+000	-77.1351	0.0000000E+000	0.0000000E+000	0.0000000E+000	-12.8649	0.0000000E+000	0.0000000E+000	0.0000000E+000	12.8649	4.37854	77.1351	7.8963e-05	-2.85251e-07	-8.57124e-11	-2.85165e-07	0.289433	293852	88.2969	293764
0.0100092	44.5647	20.2559	48.9521	-24.4431	673.154	0.289519	0.000320991	785001	134410	1	12	0.00456518	9.3258e-05	0	0.00020931	0.000239613	2.51802e-06	-3.34111	0.0270006	0.0269547	0.0015736	-24.4318	48.9773	44.5916	20.2575	0.0185972	0.00845295	0.0204281	24.4431	1.3441e+08	2.95712e+08	3.24826e+08	-65.5569	0.0000000E+000	0.0000000E+000	0.0000000E+000	65.5569	0.0000000E+000	0.0000000E+000	0.0000000E+000	-65.5569	0.0000000E+000	0.0000000E+000	0.0000000E+000	-24.4431	0.0000000E+000	0.0000000E+000	0.0000000E+000	24.4431	2.20008	65.5569	-5.41696e-05	9.2933e-08	7.69137e-11	9.28561e-08	0.28928	901956	746.482	901210

File: 19187_R297_UC94_SOC50_C05.mpt
EC-Lab ASCII FILE
Nb header lines : 66

Potentio Electrochemical Impedance Spectroscopy

Run on channel : 5 (SN 65912)
Grouped channel(s) : 5, 6, 7, 8
User :
CE vs. WE compliance from -10 V to 10 V
Electrode connection : standard
Potential control : Ewe
Ewe ctrl range : min = -10.00 V, max = 10.00 V
Safety Limits :
	Do not start on E overload
Acquisition started on : 11/11/2025 16:20:58.367
Loaded Setting File :  C:\Users\Celltest\OneDrive - store-dot.com\Documents\EC-Lab\Data\@Biologic Test Protocols\cathode half cell EIS SOC50.mps
Saved on :
	File : 19187_R297_UC94_SOC50_C05.mpr
	Directory : C:\Users\Celltest\OneDrive - store-dot.com\Documents\EC-Lab\Data\Michael\
	Host : 169.254.61.224
Device : VMP-3e (SN .003165)
Address : USB
EC-LAB for windows v11.62 (software)
Internet server v27.00 (firmware)
Command interpretor v12.03 (firmware)
Electrode material :
Initial state :
Electrolyte :
Comments :
Electrode surface area : 0.001 cm²
Characteristic mass : 0.001 g
Equivalent Weight : 0.000 g/eq.
Density : 0.000 g/cm3
Volume (V) : 0.001 cm³
Record Ece
Cycle Definition : Charge/Discharge alternance
Mode                Multi sine
E (V)               0.0000
vs.                 Eoc
tE (h:m:s)          0:00:0.0000
record              0
dI                  0.000
unit dI             mA
dt (s)              0.000
fi                  1.000
unit fi             MHz
ff                  0.100
unit ff             mHz
Nd                  10
Points              per decade
spacing             Logarithmic
Va (mV)             5.0
pw                  0.10
Na                  2
corr                0
E range min (V)     -10.000
E range max (V)     10.000
I Range             Auto
Bandwidth           5
nc cycles           0
goto Ns'            0
nr cycles           0
inc. cycle          0

freq/Hz	Re(Z)/Ohm	-Im(Z)/Ohm	|Z|/Ohm	Phase(Z)/deg	time/s	<Ewe>/V	<I>/mA	Cs/µF	Cp/µF	cycle number	I Range	|Ewe|/V	|I|/A	Ns	(Q-Qo)/mA.h	<Ece>/V	|Ece|/V	Phase(Zce)/deg	|Zce|/Ohm	Re(Zce)/Ohm	-Im(Zce)/Ohm	Phase(Zwe-ce)/deg	|Zwe-ce|/Ohm	Re(Zwe-ce)/Ohm	-Im(Zwe-ce)/Ohm	Re(Y)/Ohm-1	Im(Y)/Ohm-1	|Y|/Ohm-1	Phase(Y)/deg	Re(C)/nF	Im(C)/nF	|C|/nF	Phase(C)/deg	Re(M)	Im(M)	|M|	Phase(M)/deg	Re(Permittivity)	Im(Permittivity)	|Permittivity|	Phase(Permittivity)/deg	Re(Resistivity)/Ohm.cm	Im(Resistivity)/Ohm.cm	|Resistivity|/Ohm.cm	Phase(Resistivity)/deg	Re(Conductivity)/mS/cm	Im(Conductivity)/mS/cm	|Conductivity|/mS/cm	Phase(Conductivity)/deg	Tan(Delta)	Loss Angle(Delta)/deg	dq/mA.h	Pwe/W	Pce/W	Pwe-ce/W	<Ewe-Ece>/V	Rwe/Ohm	Rce/Ohm	Rwe-ce/Ohm		Ewe-Ece/V
1.00002e+06	0.961846	-0.175076	0.97765	10.3161	2.69452	3.88212	0.074607	-0.909047	-0.0291522	1	9	0.000216172	0.000221114	0	2.38754e-05	0.000237322	0.000182726	-1.0247	0.826389	0.826257	0.0147787	5.12266	1.79527	1.7881	-0.160297	1.00633	-0.183172	1.02286	-10.3161	-29.1522	160.159	162.79	-100.316	0.0000000E+000	0.0000000E+000	0.0000000E+000	100.316	0.0000000E+000	0.0000000E+000	0.0000000E+000	-100.316	0.0000000E+000	0.0000000E+000	0.0000000E+000	10.3161	0.0000000E+000	0.0000000E+000	0.0000000E+000	-10.3161	5.49389	79.6839	2.38754e-05	0.000289633	1.77058e-08	0.000289615	3.88188	52034.3	3.18096	52031.1
251206	0.695077	0.190458	0.720698	-15.3235	4.99656	3.88051	-0.0429963	3.32653	0.232317	1	9	0.00197395	0.00273895	0	9.85929e-06	-0.000220868	6.32399e-05	112.28	0.0230891	-0.00875373	-0.0213654	-13.8406	0.706846	0.686323	0.169092	1.33822	0.366684	1.38754	15.3235	232.317	847.843	879.096	-74.6765	0.0000000E+000	0.0000000E+000	0.0000000E+000	74.6765	0.0000000E+000	0.0000000E+000	0.0000000E+000	-74.6765	0.0000000E+000	0.0000000E+000	0.0000000E+000	-15.3235	0.0000000E+000	0.0000000E+000	0.0000000E+000	15.3235	3.64951	74.6765	-6.47726e-06	-0.000166848	9.49648e-09	-0.000166857	3.88073	90252.3	5.1369	90257.5
63093.8	0.998633	0.464551	1.1014	-24.9472	7.29454	3.88025	-0.0316753	5.43	0.966004	1	9	0.00531022	0.00482135	0	-4.89233e-05	-6.81378e-05	2.21897e-05	94.3568	0.00460238	-0.000349628	-0.00458908	-24.738	1.09915	0.998283	0.459962	0.823224	0.382953	0.907938	24.9472	966.004	2076.59	2290.28	-65.0528	0.0000000E+000	0.0000000E+000	0.0000000E+000	65.0528	0.0000000E+000	0.0000000E+000	0.0000000E+000	-65.0528	0.0000000E+000	0.0000000E+000	0.0000000E+000	-24.9472	0.0000000E+000	0.0000000E+000	0.0000000E+000	24.9472	2.14967	65.0528	5.85136e-06	-0.000122908	2.15829e-09	-0.00012291	3.88032	122501	2.15113	122503
15847.7	1.49964	0.832531	1.71523	-29.0371	9.59255	3.88023	-0.0294782	12.063	2.84191	1	9	0.00498236	0.00290478	0	-8.68454e-05	0.000160957	5.69725e-06	-57.5895	0.00196134	0.00105124	0.00165582	-29.0684	1.71695	1.50069	0.834187	0.509731	0.28298	0.583012	29.0371	2841.91	5119.12	5855.07	-60.9629	0.0000000E+000	0.0000000E+000	0.0000000E+000	60.9629	0.0000000E+000	0.0000000E+000	0.0000000E+000	-60.9629	0.0000000E+000	0.0000000E+000	0.0000000E+000	-29.0371	0.0000000E+000	0.0000000E+000	0.0000000E+000	29.0371	1.8013	60.9629	-3.07775e-06	-0.000114382	-4.74472e-09	-0.000114378	3.88007	131631	5.46019	131625
3983.6	2.35831	1.42144	2.75356	-31.079	11.5671	3.88009	-0.125855	28.107	7.49002	1	9	0.0049222	0.00178758	0	-0.000106123	0.000141866	2.14426e-06	-14.596	0.00119954	0.00116082	0.000302286	-31.0719	2.75472	2.35947	1.42174	0.311036	0.187473	0.363166	31.079	7490.02	12426.7	14509.4	-58.921	0.0000000E+000	0.0000000E+000	0.0000000E+000	58.921	0.0000000E+000	0.0000000E+000	0.0000000E+000	-58.921	0.0000000E+000	0.0000000E+000	0.0000000E+000	-31.079	0.0000000E+000	0.0000000E+000	0.0000000E+000	31.079	1.6591	58.921	-8.27869e-06	-0.000488328	-1.78545e-08	-0.00048831	3.87995	30829.9	1.12722	30828.7
1000.32	3.8488	2.45978	4.56769	-32.5828	14.4408	3.88014	-0.0335277	64.6822	18.7579	1	10	0.00486003	0.001064	0	-0.000116437	-6.81378e-05	1.00307e-05	-79.4414	0.00942735	0.00172748	0.00926773	-32.6689	4.57414	3.85053	2.46905	0.184473	0.117897	0.218929	32.5828	18757.9	29350.4	34832.5	-57.4172	0.0000000E+000	0.0000000E+000	0.0000000E+000	57.4172	0.0000000E+000	0.0000000E+000	0.0000000E+000	-57.4172	0.0000000E+000	0.0000000E+000	0.0000000E+000	-32.5828	0.0000000E+000	0.0000000E+000	0.0000000E+000	32.5828	1.56469	57.4172	-3.29082e-06	-0.000130092	2.28451e-09	-0.000130095	3.88021	115729	2.03228	115731
251.044	7.05024	3.53223	7.88559	-26.6113	17.142	3.88014	-0.0332485	179.482	36.0123	1	10	0.00476355	0.000604083	0	-0.000141395	0.000122774	4.45785e-06	-53.92	0.00737955	0.00434592	0.00596411	-26.6359	7.89215	7.05458	3.5382	0.11338	0.0568043	0.126814	26.6113	36012.3	71879.5	80396.2	-63.3887	0.0000000E+000	0.0000000E+000	0.0000000E+000	63.3887	0.0000000E+000	0.0000000E+000	0.0000000E+000	-63.3887	0.0000000E+000	0.0000000E+000	0.0000000E+000	-26.6113	0.0000000E+000	0.0000000E+000	0.0000000E+000	26.6113	1.99597	63.3887	-3.80778e-06	-0.000129009	-4.08206e-09	-0.000129005	3.88002	116701	3.69263	116698
[...]
0.00796479	19.3529	4.43942	19.8555	-12.9198	20329.4	3.88018	-0.00133721	4.50111e+06	225014	1	11	0.00508788	0.000256245	0	-0.035904	4.64095e-05	1.38813e-07	96.271	0.000541719	-5.91731e-05	-0.000538477	-12.9183	19.8554	19.3528	4.43888	0.0490888	0.0112606	0.0503638	12.9198	2.25014e+08	9.80908e+08	1.00639e+09	-77.0802	0.0000000E+000	0.0000000E+000	0.0000000E+000	77.0802	0.0000000E+000	0.0000000E+000	0.0000000E+000	-77.0802	0.0000000E+000	0.0000000E+000	0.0000000E+000	-12.9198	0.0000000E+000	0.0000000E+000	0.0000000E+000	12.9198	4.35932	77.0802	-0.0334447	-5.18861e-06	-6.2059e-11	-5.18854e-06	3.88014	2.90171e+06	34.7063	2.90167e+06
0.0019912	22.1583	7.87157	23.5149	-19.5572	20329.5	3.88018	-0.00133721	1.01542e+07	1.13784e+06	1	11	0.00510123	0.000216936	0	-0.035904	4.64095e-05	6.11734e-07	-61.1175	0.00281988	0.00136204	0.00246912	-19.5618	23.517	22.1596	7.87403	0.0400728	0.0142356	0.0425263	19.5572	1.13784e+09	3.20299e+09	3.39909e+09	-70.4428	0.0000000E+000	0.0000000E+000	0.0000000E+000	70.4428	0.0000000E+000	0.0000000E+000	0.0000000E+000	-70.4428	0.0000000E+000	0.0000000E+000	0.0000000E+000	-19.5572	0.0000000E+000	0.0000000E+000	0.0000000E+000	19.5572	2.81497	70.4428	0.000000000000000E+000	-5.18861e-06	-6.2059e-11	-5.18854e-06	3.88014	2.90171e+06	34.7063	2.90167e+06
0.000497799	24.0649	21.8692	32.5174	-42.2633	20329.5	3.88018	-0.00133721	1.46195e+07	6.61253e+06	1	11	0.00510154	0.000156886	0	-0.035904	4.64095e-05	5.06569e-07	-134.871	0.00322889	-0.00227801	0.00228832	-42.269	32.5173	24.0626	21.8715	0.0227589	0.0206824	0.0307528	42.2633	6.61253e+09	7.27643e+09	9.83219e+09	-47.7367	0.0000000E+000	0.0000000E+000	0.0000000E+000	47.7367	0.0000000E+000	0.0000000E+000	0.0000000E+000	-47.7367	0.0000000E+000	0.0000000E+000	0.0000000E+000	-42.2633	0.0000000E+000	0.0000000E+000	0.0000000E+000	42.2633	1.1004	47.7367	0.000000000000000E+000	-5.18861e-06	-6.2059e-11	-5.18854e-06	3.88014	2.90171e+06	34.7063	2.90167e+06
0.00019912	21.5725	50.6607	55.0625	-66.9346	20329.5	3.88018	-0.00133721	1.57774e+07	1.33557e+07	1	11	0.0051022	9.2662e-05	0	-0.035904	4.64095e-05	1.60931e-06	-77.2356	0.0173675	0.0038372	0.0169383	-66.9378	55.0796	21.5763	50.6776	0.00711522	0.0167094	0.0181612	66.9346	1.33557e+10	5.68715e+09	1.45161e+10	-23.0654	0.0000000E+000	0.0000000E+000	0.0000000E+000	23.0654	0.0000000E+000	0.0000000E+000	0.0000000E+000	-23.0654	0.0000000E+000	0.0000000E+000	0.0000000E+000	-66.9346	0.0000000E+000	0.0000000E+000	0.0000000E+000	66.9346	0.425822	23.0654	0.000000000000000E+000	-5.18861e-06	-6.2059e-11	-5.18854e-06	3.88014	2.90171e+06	34.7063	2.90167e+06

9.95598e-05	26.3288	137.971	140.461	-79.1963	20329.5	3.88018	-0.00133721	1.15864e+07	1.11793e+07	1	11	0.00509945	3.63051e-05	0	-0.035904	4.64095e-05	1.34577e-06	-38.5077	0.0370685	0.029007	0.0230796	-79.1864	140.489	26.3578	137.994	0.0013345	0.00699322	0.00711941	79.1963	1.11793e+10	2.13332e+09	1.1381e+10	-10.8037	0.0000000E+000	0.0000000E+000	0.0000000E+000	10.8037	0.0000000E+000	0.0000000E+000	0.0000000E+000	-10.8037	0.0000000E+000	0.0000000E+000	0.0000000E+000	-79.1963	0.0000000E+000	0.0000000E+000	0.0000000E+000	79.1963	0.190828	10.8037	0.000000000000000E+000	-5.18861e-06	-6.2059e-11	-5.18854e-06	3.88014	2.90171e+06	34.7063	2.90167e+06