Folder: EIS/txt (part 21)

File: 17417_R282_UA652_SOC00_C02.mpt
EC-Lab ASCII FILE
Nb header lines : 63

Potentio Electrochemical Impedance Spectroscopy

Run on channel : 2 (SN 66139)
User :
CE vs. WE compliance from -10 V to 10 V
Electrode connection : standard
Potential control : Ewe
Ewe ctrl range : min = -10.00 V, max = 10.00 V
Safety Limits :
	Do not start on E overload
Acquisition started on : 09/08/2025 17:23:55.952
Loaded Setting File :  C:\Users\Celltest\OneDrive - store-dot.com\Documents\EC-Lab\Data\Gyutae\R270\17153_C01.mpr
Saved on :
	File : 17417_C02.mpr
	Directory : C:\Users\Celltest\OneDrive - store-dot.com\Documents\EC-Lab\Data\Gyutae\R282\
	Host : 169.254.61.224
Device : VMP-3e (SN .003165)
Address : USB
EC-LAB for windows v11.62 (software)
Internet server v27.00 (firmware)
Command interpretor v12.03 (firmware)
Electrode material :
Initial state :
Electrolyte :
Comments :
Electrode surface area : 0.001 cm²
Characteristic mass : 0.001 g
Equivalent Weight : 0.000 g/eq.
Density : 0.000 g/cm3
Volume (V) : 0.001 cm³
Cycle Definition : Charge/Discharge alternance
Mode                Single sine
E (V)               0.0000
vs.                 Eoc
tE (h:m:s)          0:00:0.0000
record              0
dI                  0.000
unit dI             mA
dt (s)              0.000
fi                  100.000
unit fi             kHz
ff                  10.000
unit ff             mHz
Nd                  6
Points              per decade
spacing             Logarithmic
Va (mV)             5.0
pw                  0.10
Na                  2
corr                0
E range min (V)     -10.000
E range max (V)     10.000
I Range             Auto
Bandwidth           5
nc cycles           0
goto Ns'            0
nr cycles           0
inc. cycle          0

freq/Hz	Re(Z)/Ohm	-Im(Z)/Ohm	|Z|/Ohm	Phase(Z)/deg	time/s	<Ewe>/V	<I>/mA	Cs/µF	Cp/µF	cycle number	I Range	|Ewe|/V	|I|/A	Ns	(Q-Qo)/mA.h	Re(Y)/Ohm-1	Im(Y)/Ohm-1	|Y|/Ohm-1	Phase(Y)/deg	Re(C)/nF	Im(C)/nF	|C|/nF	Phase(C)/deg	Re(M)	Im(M)	|M|	Phase(M)/deg	Re(Permittivity)	Im(Permittivity)	|Permittivity|	Phase(Permittivity)/deg	Re(Resistivity)/Ohm.cm	Im(Resistivity)/Ohm.cm	|Resistivity|/Ohm.cm	Phase(Resistivity)/deg	Re(Conductivity)/mS/cm	Im(Conductivity)/mS/cm	|Conductivity|/mS/cm	Phase(Conductivity)/deg	Tan(Delta)	Loss Angle(Delta)/deg	dq/mA.h	Pwe/W	Rwe/Ohm
100004	1.2334	0.217462	1.25243	-9.99906	2.02549	0.274066	-0.000966089	7.31849	0.220638	1	9	0.00483077	0.00385712	0	-1.42761e-05	0.786321	0.138636	0.798449	9.99906	220.638	1251.42	1270.72	-80.0009	0.0000000E+000	0.0000000E+000	0.0000000E+000	80.0009	0.0000000E+000	0.0000000E+000	0.0000000E+000	-80.0009	0.0000000E+000	0.0000000E+000	0.0000000E+000	-9.99906	0.0000000E+000	0.0000000E+000	0.0000000E+000	9.99906	5.67183	80.0009	-1.42761e-05	-2.64772e-07	283686
46420.4	1.34858	0.301086	1.38178	-12.5855	3.04148	0.274049	-0.00199035	11.3873	0.540659	1	9	0.00510768	0.00369645	0	-1.0411e-05	0.706315	0.157693	0.723704	12.5855	540.659	2421.64	2481.26	-77.4145	0.0000000E+000	0.0000000E+000	0.0000000E+000	77.4145	0.0000000E+000	0.0000000E+000	0.0000000E+000	-77.4145	0.0000000E+000	0.0000000E+000	0.0000000E+000	-12.5855	0.0000000E+000	0.0000000E+000	0.0000000E+000	12.5855	4.47905	77.4145	1.24018e-06	-5.45453e-07	137689
21544.7	1.49962	0.392023	1.55001	-14.6501	4.05649	0.274046	0.00136178	18.8438	1.20537	1	9	0.00508183	0.00327858	0	-6.44106e-06	0.624182	0.163171	0.645157	14.6501	1205.37	4610.96	4765.9	-75.3499	0.0000000E+000	0.0000000E+000	0.0000000E+000	75.3499	0.0000000E+000	0.0000000E+000	0.0000000E+000	-75.3499	0.0000000E+000	0.0000000E+000	0.0000000E+000	-14.6501	0.0000000E+000	0.0000000E+000	0.0000000E+000	14.6501	3.82533	75.3499	-1.57766e-06	3.7319e-07	201241
10002.2	1.69708	0.513707	1.77312	-16.8411	5.07248	0.274037	-0.00321947	30.9748	2.59992	1	9	0.00507321	0.00286117	0	-7.26463e-06	0.539788	0.163394	0.563976	16.8411	2599.92	8589.09	8973.96	-73.1589	0.0000000E+000	0.0000000E+000	0.0000000E+000	73.1589	0.0000000E+000	0.0000000E+000	0.0000000E+000	-73.1589	0.0000000E+000	0.0000000E+000	0.0000000E+000	-16.8411	0.0000000E+000	0.0000000E+000	0.0000000E+000	16.8411	3.30359	73.1589	-5.13564e-06	-8.82253e-07	85118.6
4641.49	1.95236	0.672184	2.06483	-18.9982	6.32171	0.274043	-0.00502591	51.0123	5.40606	1	9	0.00532077	0.00257685	0	-9.00608e-06	0.45792	0.157659	0.484301	18.9982	5406.06	15701.9	16606.5	-71.0018	0.0000000E+000	0.0000000E+000	0.0000000E+000	71.0018	0.0000000E+000	0.0000000E+000	0.0000000E+000	-71.0018	0.0000000E+000	0.0000000E+000	0.0000000E+000	-18.9982	0.0000000E+000	0.0000000E+000	0.0000000E+000	18.9982	2.9045	71.0018	-5.47782e-06	-1.37731e-06	54526.1
2155.69	2.28421	0.879617	2.44772	-21.061	7.70169	0.274041	0.00151072	83.9344	10.8394	1	9	0.00505772	0.0020663	0	-8.49716e-06	0.381252	0.146815	0.408544	21.061	10839.4	28147.9	30162.9	-68.939	0.0000000E+000	0.0000000E+000	0.0000000E+000	68.939	0.0000000E+000	0.0000000E+000	0.0000000E+000	-68.939	0.0000000E+000	0.0000000E+000	0.0000000E+000	-21.061	0.0000000E+000	0.0000000E+000	0.0000000E+000	21.061	2.59682	68.939	-1.31005e-06	4.14e-07	181397
1000.32	2.72856	1.14806	2.96025	-22.8192	8.63771	0.274041	-0.00258633	138.585	20.8444	1	9	0.00503259	0.00170006	0	-1.00588e-05	0.31137	0.131011	0.33781	22.8192	20844.4	49540.2	53746.9	-67.1808	0.0000000E+000	0.0000000E+000	0.0000000E+000	67.1808	0.0000000E+000	0.0000000E+000	0.0000000E+000	-67.1808	0.0000000E+000	0.0000000E+000	0.0000000E+000	-22.8192	0.0000000E+000	0.0000000E+000	0.0000000E+000	22.8192	2.37667	67.1808	-5.48986e-08	-7.0876e-07	105957
463.961	3.29507	1.4981	3.61964	-24.4488	9.82621	0.274047	-0.0258695	228.98	39.2237	1	10	0.00494515	0.0013662	0	-1.74056e-05	0.251498	0.114343	0.276271	24.4488	39223.7	86272.6	94770.6	-65.5512	0.0000000E+000	0.0000000E+000	0.0000000E+000	65.5512	0.0000000E+000	0.0000000E+000	0.0000000E+000	-65.5512	0.0000000E+000	0.0000000E+000	0.0000000E+000	-24.4488	0.0000000E+000	0.0000000E+000	0.0000000E+000	24.4488	2.1995	65.5512	-2.79151e-06	-7.08947e-06	10593.4
215.345	4.05539	2.00979	4.52609	-26.3624	10.7604	0.274044	-0.0258546	367.735	72.509	1	10	0.00485088	0.00107176	0	-2.29865e-05	0.197964	0.0981083	0.220941	26.3624	72509	146310	163291	-63.6376	0.0000000E+000	0.0000000E+000	0.0000000E+000	63.6376	0.0000000E+000	0.0000000E+000	0.0000000E+000	-63.6376	0.0000000E+000	0.0000000E+000	0.0000000E+000	-26.3624	0.0000000E+000	0.0000000E+000	0.0000000E+000	26.3624	2.01781	63.6376	-3.12466e-06	-7.08531e-06	10599.4
100.032	5.19509	2.64319	5.82885	-26.9663	11.6917	0.27405	-0.0246849	601.94	123.778	1	10	0.00481149	0.000825462	0	-3.021e-05	0.152907	0.077797	0.171561	26.9663	123778	243282	272960	-63.0337	0.0000000E+000	0.0000000E+000	0.0000000E+000	63.0337	0.0000000E+000	0.0000000E+000	0.0000000E+000	-63.0337	0.0000000E+000	0.0000000E+000	0.0000000E+000	-26.9663	0.0000000E+000	0.0000000E+000	0.0000000E+000	26.9663	1.96547	63.0337	-3.6989e-06	-6.76491e-06	11101.9
46.4415	6.84512	3.14027	7.53107	-24.6438	12.6256	0.274044	-0.0259329	1091.31	189.744	1	10	0.00479773	0.000637059	0	-3.74545e-05	0.120689	0.0553674	0.132783	24.6438	189744	413601	455048	-65.3562	0.0000000E+000	0.0000000E+000	0.0000000E+000	65.3562	0.0000000E+000	0.0000000E+000	0.0000000E+000	-65.3562	0.0000000E+000	0.0000000E+000	0.0000000E+000	-24.6438	0.0000000E+000	0.0000000E+000	0.0000000E+000	24.6438	2.17979	65.3562	-3.70205e-06	-7.10674e-06	10567.4
[...]
1.00006	13.107	1.41517	13.1832	-6.16239	20.8632	0.274068	-0.0182174	112456	1295.87	1	11	0.00479274	0.00036355	0	-9.81409e-05	0.075416	0.00814271	0.0758543	6.16239	1.29587e+06	1.20021e+07	1.20718e+07	-83.8376	0.0000000E+000	0.0000000E+000	0.0000000E+000	83.8376	0.0000000E+000	0.0000000E+000	0.0000000E+000	-83.8376	0.0000000E+000	0.0000000E+000	0.0000000E+000	-6.16239	0.0000000E+000	0.0000000E+000	0.0000000E+000	6.16239	9.26177	83.8376	-2.37578e-05	-4.99281e-06	15044.3
0.464091	13.6566	1.27083	13.7156	-5.31641	28.5479	0.27407	-0.0184663	269855	2316.73	1	11	0.00479338	0.000349485	0	-0.000153653	0.0725962	0.00675552	0.0729099	5.31641	2.31674e+06	2.48961e+07	2.50037e+07	-84.6836	0.0000000E+000	0.0000000E+000	0.0000000E+000	84.6836	0.0000000E+000	0.0000000E+000	0.0000000E+000	-84.6836	0.0000000E+000	0.0000000E+000	0.0000000E+000	-5.31641	0.0000000E+000	0.0000000E+000	0.0000000E+000	5.31641	10.7462	84.6836	-2.63871e-05	-5.06107e-06	14841.6
0.215268	14.1062	1.38895	14.1744	-5.62345	45.028	0.274059	-0.0175738	532297	5111.17	1	11	0.00479268	0.000338123	0	-0.000173296	0.0702104	0.0069132	0.0705499	5.62345	5.11117e+06	5.19089e+07	5.216e+07	-84.3765	0.0000000E+000	0.0000000E+000	0.0000000E+000	84.3765	0.0000000E+000	0.0000000E+000	0.0000000E+000	-84.3765	0.0000000E+000	0.0000000E+000	0.0000000E+000	-5.62345	0.0000000E+000	0.0000000E+000	0.0000000E+000	5.62345	10.156	84.3765	-4.12118e-06	-4.81627e-06	15594.7
0.0999041	14.72	1.85994	14.8371	-7.20141	80.4346	0.274063	-0.0125366	856521	13459.8	1	11	0.00479257	0.000323013	0	-0.00021363	0.0668671	0.00844895	0.0673988	7.20141	1.34598e+07	1.06525e+08	1.07372e+08	-82.7986	0.0000000E+000	0.0000000E+000	0.0000000E+000	82.7986	0.0000000E+000	0.0000000E+000	0.0000000E+000	-82.7986	0.0000000E+000	0.0000000E+000	0.0000000E+000	-7.20141	0.0000000E+000	0.0000000E+000	0.0000000E+000	7.20141	7.91425	82.7986	-3.58636e-05	-3.43581e-06	21861.1
0.0464052	15.546	2.881	15.8107	-10.499	156.67	0.274053	-0.0106799	1.19045e+06	39526.9	1	11	0.00479377	0.000303197	0	-0.000595289	0.0621893	0.011525	0.0632482	10.499	3.95269e+07	2.13289e+08	2.16921e+08	-79.501	0.0000000E+000	0.0000000E+000	0.0000000E+000	79.501	0.0000000E+000	0.0000000E+000	0.0000000E+000	-79.501	0.0000000E+000	0.0000000E+000	0.0000000E+000	-10.499	0.0000000E+000	0.0000000E+000	0.0000000E+000	10.499	5.39606	79.501	-0.000270213	-2.92687e-06	25660.6
0.0215268	16.8822	4.57371	17.4908	-15.1587	352.636	0.27405	-0.0133466	1.61649e+06	110533	1	12	0.00479254	0.000274004	0	-0.00183322	0.0551837	0.0149504	0.057173	15.1587	1.10533e+08	4.07992e+08	4.227e+08	-74.8413	0.0000000E+000	0.0000000E+000	0.0000000E+000	74.8413	0.0000000E+000	0.0000000E+000	0.0000000E+000	-74.8413	0.0000000E+000	0.0000000E+000	0.0000000E+000	-15.1587	0.0000000E+000	0.0000000E+000	0.0000000E+000	15.1587	3.69113	74.8413	-0.000653294	-3.65763e-06	20533.4
0.0100092	18.6916	7.88587	20.287	-22.8746	705.852	0.274048	-0.0147752	2.01638e+06	304674	1	12	0.00479424	0.000236321	0	-0.00307001	0.0454162	0.0191608	0.0492926	22.8746	3.04674e+08	7.22158e+08	7.83798e+08	-67.1254	0.0000000E+000	0.0000000E+000	0.0000000E+000	67.1254	0.0000000E+000	0.0000000E+000	0.0000000E+000	-67.1254	0.0000000E+000	0.0000000E+000	0.0000000E+000	-22.8746	0.0000000E+000	0.0000000E+000	0.0000000E+000	22.8746	2.37026	67.1254	-0.000545759	-4.04913e-06	18547.8

File: 17418_C03.mpt
EC-Lab ASCII FILE
Nb header lines : 64

Potentio Electrochemical Impedance Spectroscopy

Run on channel : 3 (SN 65921)
User :
CE vs. WE compliance from -10 V to 10 V
Electrode connection : standard
Potential control : Ewe
Ewe ctrl range : min = -10.00 V, max = 10.00 V
Safety Limits :
	Do not start on E overload
Acquisition started on : 09/08/2025 17:24:03.900
Technique started on : 09/08/2025 17:24:05.765
Loaded Setting File :  C:\Users\Celltest\OneDrive - store-dot.com\Documents\EC-Lab\Data\Gyutae\R270\17154_C02.mpr
Saved on :
	File : 17418_C03.mpr
	Directory : C:\Users\Celltest\OneDrive - store-dot.com\Documents\EC-Lab\Data\Gyutae\R282\
	Host : 169.254.61.224
Device : VMP-3e (SN .003165)
Address : USB
EC-LAB for windows v11.62 (software)
Internet server v27.00 (firmware)
Command interpretor v12.03 (firmware)
Electrode material :
Initial state :
Electrolyte :
Comments :
Electrode surface area : 0.001 cm²
Characteristic mass : 0.001 g
Equivalent Weight : 0.000 g/eq.
Density : 0.000 g/cm3
Volume (V) : 0.001 cm³
Cycle Definition : Charge/Discharge alternance
Mode                Single sine
E (V)               0.0000
vs.                 Eoc
tE (h:m:s)          0:00:0.0000
record              0
dI                  0.000
unit dI             mA
dt (s)              0.000
fi                  100.000
unit fi             kHz
ff                  10.000
unit ff             mHz
Nd                  6
Points              per decade
spacing             Logarithmic
Va (mV)             5.0
pw                  0.10
Na                  2
corr                0
E range min (V)     -10.000
E range max (V)     10.000
I Range             Auto
Bandwidth           5
nc cycles           0
goto Ns'            0
nr cycles           0
inc. cycle          0

freq/Hz	Re(Z)/Ohm	-Im(Z)/Ohm	|Z|/Ohm	Phase(Z)/deg	time/s	<Ewe>/V	<I>/mA	Cs/µF	Cp/µF	cycle number	I Range	|Ewe|/V	|I|/A	Ns	(Q-Qo)/mA.h	Re(Y)/Ohm-1	Im(Y)/Ohm-1	|Y|/Ohm-1	Phase(Y)/deg	Re(C)/nF	Im(C)/nF	|C|/nF	Phase(C)/deg	Re(M)	Im(M)	|M|	Phase(M)/deg	Re(Permittivity)	Im(Permittivity)	|Permittivity|	Phase(Permittivity)/deg	Re(Resistivity)/Ohm.cm	Im(Resistivity)/Ohm.cm	|Resistivity|/Ohm.cm	Phase(Resistivity)/deg	Re(Conductivity)/mS/cm	Im(Conductivity)/mS/cm	|Conductivity|/mS/cm	Phase(Conductivity)/deg	Tan(Delta)	Loss Angle(Delta)/deg	dq/mA.h	Pwe/W	Rwe/Ohm
100004	1.52759	0.289142	1.55472	-10.7181	1.8655	0.281872	0.0585818	5.50417	0.190377	1	9	0.00461385	0.00296765	0	1.36928e-05	0.631983	0.119622	0.643205	10.7181	190.377	1005.8	1023.65	-79.2819	0.0000000E+000	0.0000000E+000	0.0000000E+000	79.2819	0.0000000E+000	0.0000000E+000	0.0000000E+000	-79.2819	0.0000000E+000	0.0000000E+000	0.0000000E+000	-10.7181	0.0000000E+000	0.0000000E+000	0.0000000E+000	10.7181	5.28318	79.2819	1.36928e-05	1.65126e-05	4811.6
46420.4	1.67196	0.347218	1.70764	-11.7319	3.02249	0.281873	0.0559713	9.87438	0.408246	1	9	0.00508555	0.00297812	0	3.39748e-05	0.573371	0.119072	0.585604	11.7319	408.246	1965.84	2007.78	-78.2681	0.0000000E+000	0.0000000E+000	0.0000000E+000	78.2681	0.0000000E+000	0.0000000E+000	0.0000000E+000	-78.2681	0.0000000E+000	0.0000000E+000	0.0000000E+000	-11.7319	0.0000000E+000	0.0000000E+000	0.0000000E+000	11.7319	4.81532	78.2681	1.05191e-05	1.57768e-05	5036.02
21544.7	1.84184	0.433776	1.89224	-13.2523	3.89747	0.28187	0.0591412	17.03	0.894943	1	9	0.00536592	0.00283576	0	5.13858e-05	0.514402	0.121148	0.528476	13.2523	894.943	3799.99	3903.96	-76.7477	0.0000000E+000	0.0000000E+000	0.0000000E+000	76.7477	0.0000000E+000	0.0000000E+000	0.0000000E+000	-76.7477	0.0000000E+000	0.0000000E+000	0.0000000E+000	-13.2523	0.0000000E+000	0.0000000E+000	0.0000000E+000	13.2523	4.24607	76.7477	4.72191e-06	1.66701e-05	4766.04
10002.2	2.04618	0.552399	2.11943	-15.1078	4.4905	0.281872	0.0531183	28.8052	1.95676	1	9	0.00504621	0.00238093	0	6.12988e-05	0.455517	0.122974	0.471825	15.1078	1956.76	7248.17	7507.65	-74.8922	0.0000000E+000	0.0000000E+000	0.0000000E+000	74.8922	0.0000000E+000	0.0000000E+000	0.0000000E+000	-74.8922	0.0000000E+000	0.0000000E+000	0.0000000E+000	-15.1078	0.0000000E+000	0.0000000E+000	0.0000000E+000	15.1078	3.70417	74.8922	6.13526e-06	1.49726e-05	5306.5
4641.49	2.31914	0.726406	2.43024	-17.3917	5.33971	0.281902	0.0944582	47.2045	4.21739	1	9	0.00476627	0.00196123	0	7.34117e-05	0.39267	0.122993	0.411482	17.3917	4217.39	13464.5	14109.6	-72.6083	0.0000000E+000	0.0000000E+000	0.0000000E+000	72.6083	0.0000000E+000	0.0000000E+000	0.0000000E+000	-72.6083	0.0000000E+000	0.0000000E+000	0.0000000E+000	-17.3917	0.0000000E+000	0.0000000E+000	0.0000000E+000	17.3917	3.19262	72.6083	1.19865e-05	2.6628e-05	2984.41
2155.69	2.67136	0.960401	2.83876	-19.7744	6.27368	0.281899	0.0928359	76.8743	8.79892	1	9	0.004662	0.00164227	0	9.72272e-05	0.331494	0.119178	0.352266	19.7744	8798.92	24474.3	26007.9	-70.2256	0.0000000E+000	0.0000000E+000	0.0000000E+000	70.2256	0.0000000E+000	0.0000000E+000	0.0000000E+000	-70.2256	0.0000000E+000	0.0000000E+000	0.0000000E+000	-19.7744	0.0000000E+000	0.0000000E+000	0.0000000E+000	19.7744	2.78151	70.2256	1.31128e-05	2.61703e-05	3036.53
1000.32	3.12972	1.28666	3.38388	-22.348	7.46471	0.281867	0.0142717	123.657	17.8778	1	10	0.00471123	0.00139226	0	0.000115801	0.273323	0.112365	0.295519	22.348	17877.8	43486.7	47018.2	-67.652	0.0000000E+000	0.0000000E+000	0.0000000E+000	67.652	0.0000000E+000	0.0000000E+000	0.0000000E+000	-67.652	0.0000000E+000	0.0000000E+000	0.0000000E+000	-22.348	0.0000000E+000	0.0000000E+000	0.0000000E+000	22.348	2.43245	67.652	6.44738e-06	4.02272e-06	19750.1
463.961	3.74063	1.7618	4.13476	-25.2199	8.39918	0.281872	0.0138839	194.708	35.3504	1	10	0.00465565	0.00112598	0	0.000119078	0.218798	0.103052	0.241852	25.2199	35350.4	75055.6	82963.8	-64.7801	0.0000000E+000	0.0000000E+000	0.0000000E+000	64.7801	0.0000000E+000	0.0000000E+000	0.0000000E+000	-64.7801	0.0000000E+000	0.0000000E+000	0.0000000E+000	-25.2199	0.0000000E+000	0.0000000E+000	0.0000000E+000	25.2199	2.12319	64.7801	2.43472e-06	3.91347e-06	20302.1
215.345	4.60801	2.49467	5.23996	-28.4301	9.33343	0.281862	0.0132835	296.26	67.1497	1	10	0.00462516	0.000882672	0	0.000122148	0.167826	0.0908568	0.190841	28.4301	67149.7	124035	141045	-61.5699	0.0000000E+000	0.0000000E+000	0.0000000E+000	61.5699	0.0000000E+000	0.0000000E+000	0.0000000E+000	-61.5699	0.0000000E+000	0.0000000E+000	0.0000000E+000	-28.4301	0.0000000E+000	0.0000000E+000	0.0000000E+000	28.4301	1.84714	61.5699	1.14739e-06	3.74411e-06	21218.9
100.032	5.97754	3.4441	6.89875	-29.9494	10.2647	0.281872	0.0128398	461.961	115.137	1	10	0.00460464	0.00066746	0	0.000126004	0.125598	0.072366	0.144954	29.9494	115137	199831	230627	-60.0506	0.0000000E+000	0.0000000E+000	0.0000000E+000	60.0506	0.0000000E+000	0.0000000E+000	0.0000000E+000	-60.0506	0.0000000E+000	0.0000000E+000	0.0000000E+000	-29.9494	0.0000000E+000	0.0000000E+000	0.0000000E+000	29.9494	1.73559	60.0506	1.96506e-06	3.61918e-06	21953.1
46.4415	8.10261	4.39846	9.21947	-28.4951	11.1985	0.281866	0.0109101	779.135	177.338	1	10	0.00460745	0.000499752	0	0.000129539	0.0953263	0.0517474	0.108466	28.4951	177338	326683	371713	-61.5049	0.0000000E+000	0.0000000E+000	0.0000000E+000	61.5049	0.0000000E+000	0.0000000E+000	0.0000000E+000	-61.5049	0.0000000E+000	0.0000000E+000	0.0000000E+000	-28.4951	0.0000000E+000	0.0000000E+000	0.0000000E+000	28.4951	1.84215	61.5049	1.33379e-06	3.07518e-06	25835.4
[...]
1.00006	18.478	2.48723	18.6447	-7.66619	20.5361	0.2819	0.0115447	63984.9	1138.67	1	12	0.00460165	0.000246808	0	0.000155738	0.0531553	0.00715494	0.0536347	7.66619	1.13867e+06	8.45939e+06	8.53568e+06	-82.3338	0.0000000E+000	0.0000000E+000	0.0000000E+000	82.3338	0.0000000E+000	0.0000000E+000	0.0000000E+000	-82.3338	0.0000000E+000	0.0000000E+000	0.0000000E+000	-7.66619	0.0000000E+000	0.0000000E+000	0.0000000E+000	7.66619	7.42917	82.3338	1.05728e-06	3.25445e-06	24418.2
0.464091	19.46	2.0782	19.5706	-6.09572	28.2196	0.281905	0.00907109	165017	1860.78	1	12	0.00460701	0.000235404	0	0.000167756	0.050808	0.00542597	0.0510969	6.09572	1.86078e+06	1.74241e+07	1.75232e+07	-83.9043	0.0000000E+000	0.0000000E+000	0.0000000E+000	83.9043	0.0000000E+000	0.0000000E+000	0.0000000E+000	-83.9043	0.0000000E+000	0.0000000E+000	0.0000000E+000	-6.09572	0.0000000E+000	0.0000000E+000	0.0000000E+000	6.09572	9.36386	83.9043	1.11464e-05	2.55719e-06	31077.3
0.215268	20.271	1.99731	20.3692	-5.6272	44.6978	0.281904	0.0050487	370166	3559.09	1	12	0.00460741	0.000226195	0	0.000240438	0.0488572	0.00481391	0.0490938	5.6272	3.55909e+06	3.61218e+07	3.62967e+07	-84.3728	0.0000000E+000	0.0000000E+000	0.0000000E+000	84.3728	0.0000000E+000	0.0000000E+000	0.0000000E+000	-84.3728	0.0000000E+000	0.0000000E+000	0.0000000E+000	-5.6272	0.0000000E+000	0.0000000E+000	0.0000000E+000	5.6272	10.1492	84.3728	4.53065e-05	1.42325e-06	55836.9
0.0999041	21.2172	2.45395	21.3586	-6.59744	80.1032	0.281903	0.00301527	649189	8569.52	1	12	0.00460715	0.000215705	0	0.000335729	0.0465095	0.00537923	0.0468195	6.59744	8.56952e+06	7.40932e+07	7.45871e+07	-83.4026	0.0000000E+000	0.0000000E+000	0.0000000E+000	83.4026	0.0000000E+000	0.0000000E+000	0.0000000E+000	-83.4026	0.0000000E+000	0.0000000E+000	0.0000000E+000	-6.59744	0.0000000E+000	0.0000000E+000	0.0000000E+000	6.59744	8.64613	83.4026	4.28672e-05	8.50013e-07	93491.6
0.0464052	22.2967	3.54713	22.5771	-9.03928	156.339	0.281899	0.000411038	966889	23866.7	1	12	0.00460848	0.000204121	0	0.000237117	0.0437425	0.00695888	0.0442926	9.03928	2.38667e+07	1.50023e+08	1.51909e+08	-80.9607	0.0000000E+000	0.0000000E+000	0.0000000E+000	80.9607	0.0000000E+000	0.0000000E+000	0.0000000E+000	-80.9607	0.0000000E+000	0.0000000E+000	0.0000000E+000	-9.03928	0.0000000E+000	0.0000000E+000	0.0000000E+000	9.03928	6.28586	80.9607	-9.2527e-05	1.15871e-07	685823
0.0215268	24.0578	5.4305	24.6631	-12.72	320.569	0.281904	-0.00558585	1.36145e+06	66006.4	1	12	0.00460625	0.000186767	0	-0.000304713	0.0395513	0.00892781	0.0405464	12.72	6.60064e+07	2.92417e+08	2.99774e+08	-77.28	0.0000000E+000	0.0000000E+000	0.0000000E+000	77.28	0.0000000E+000	0.0000000E+000	0.0000000E+000	-77.28	0.0000000E+000	0.0000000E+000	0.0000000E+000	-12.72	0.0000000E+000	0.0000000E+000	0.0000000E+000	12.72	4.43013	77.28	-0.000326259	-1.57467e-06	50467.6
0.0100092	26.3325	9.13239	27.8711	-19.1271	673.782	0.281902	-0.00901458	1.74116e+06	186938	1	12	0.00460824	0.000165341	0	-0.000952694	0.0338987	0.0117564	0.0358794	19.1271	1.86938e+08	5.3902e+08	5.70516e+08	-70.8729	0.0000000E+000	0.0000000E+000	0.0000000E+000	70.8729	0.0000000E+000	0.0000000E+000	0.0000000E+000	-70.8729	0.0000000E+000	0.0000000E+000	0.0000000E+000	-19.1271	0.0000000E+000	0.0000000E+000	0.0000000E+000	19.1271	2.88342	70.8729	-0.000287454	-2.54123e-06	31271.7