Folder: EIS/txt (part 29)

File: 17463_C05.mpt
EC-Lab ASCII FILE
Nb header lines : 64

Potentio Electrochemical Impedance Spectroscopy

Run on channel : 5 (SN 65912)
User :
CE vs. WE compliance from -10 V to 10 V
Electrode connection : standard
Potential control : Ewe
Ewe ctrl range : min = -10.00 V, max = 10.00 V
Safety Limits :
	Do not start on E overload
Acquisition started on : 09/12/2025 09:49:02.392
Technique started on : 09/12/2025 09:49:04.416
Loaded Setting File :  C:\Users\Celltest\OneDrive - store-dot.com\Documents\EC-Lab\Data\Charmaine\R279\17382_C01.mpr
Saved on :
	File : 17463_C05.mpr
	Directory : C:\Users\Celltest\OneDrive - store-dot.com\Documents\EC-Lab\Data\Gyutae\R277\
	Host : 169.254.61.224
Device : VMP-3e (SN .003165)
Address : USB
EC-LAB for windows v11.62 (software)
Internet server v27.00 (firmware)
Command interpretor v12.03 (firmware)
Electrode material :
Initial state :
Electrolyte :
Comments :
Electrode surface area : 0.001 cm²
Characteristic mass : 0.001 g
Equivalent Weight : 0.000 g/eq.
Density : 0.000 g/cm3
Volume (V) : 0.001 cm³
Cycle Definition : Charge/Discharge alternance
Mode                Single sine
E (V)               0.0000
vs.                 Eoc
tE (h:m:s)          0:00:0.0000
record              0
dI                  0.000
unit dI             mA
dt (s)              0.000
fi                  100.000
unit fi             kHz
ff                  10.000
unit ff             mHz
Nd                  6
Points              per decade
spacing             Logarithmic
Va (mV)             5.0
pw                  0.10
Na                  2
corr                0
E range min (V)     -10.000
E range max (V)     10.000
I Range             Auto
Bandwidth           5
nc cycles           0
goto Ns'            0
nr cycles           0
inc. cycle          0

freq/Hz	Re(Z)/Ohm	-Im(Z)/Ohm	|Z|/Ohm	Phase(Z)/deg	time/s	<Ewe>/V	<I>/mA	Cs/µF	Cp/µF	cycle number	I Range	|Ewe|/V	|I|/A	Ns	(Q-Qo)/mA.h	Re(Y)/Ohm-1	Im(Y)/Ohm-1	|Y|/Ohm-1	Phase(Y)/deg	Re(C)/nF	Im(C)/nF	|C|/nF	Phase(C)/deg	Re(M)	Im(M)	|M|	Phase(M)/deg	Re(Permittivity)	Im(Permittivity)	|Permittivity|	Phase(Permittivity)/deg	Re(Resistivity)/Ohm.cm	Im(Resistivity)/Ohm.cm	|Resistivity|/Ohm.cm	Phase(Resistivity)/deg	Re(Conductivity)/mS/cm	Im(Conductivity)/mS/cm	|Conductivity|/mS/cm	Phase(Conductivity)/deg	Tan(Delta)	Loss Angle(Delta)/deg	dq/mA.h	Pwe/W	Rwe/Ohm
100004	1.84154	0.336195	1.87197	-10.3461	2.02449	0.274899	-0.0391047	4.73383	0.152685	1	9	0.00493794	0.00263783	0	-7.8499e-06	0.52551	0.0959384	0.534196	10.3461	152.685	836.344	850.167	-79.6539	0.0000000E+000	0.0000000E+000	0.0000000E+000	79.6539	0.0000000E+000	0.0000000E+000	0.0000000E+000	-79.6539	0.0000000E+000	0.0000000E+000	0.0000000E+000	-10.3461	0.0000000E+000	0.0000000E+000	0.0000000E+000	10.3461	5.47758	79.6539	-7.8499e-06	-1.07498e-05	7029.82
46420.4	2.02305	0.446863	2.07182	-12.4558	2.89949	0.274888	-0.0394957	7.67251	0.35693	1	9	0.00545586	0.00263337	0	-2.00835e-05	0.471307	0.104105	0.482668	12.4558	356.93	1615.91	1654.86	-77.5442	0.0000000E+000	0.0000000E+000	0.0000000E+000	77.5442	0.0000000E+000	0.0000000E+000	0.0000000E+000	-77.5442	0.0000000E+000	0.0000000E+000	0.0000000E+000	-12.4558	0.0000000E+000	0.0000000E+000	0.0000000E+000	12.4558	4.52723	77.5442	-4.92901e-06	-1.08569e-05	6959.95
21544.7	2.24503	0.564744	2.31498	-14.1199	3.7745	0.274884	-0.0431452	13.0806	0.778464	1	9	0.00530712	0.00229252	0	-3.1313e-05	0.418919	0.10538	0.43197	14.1199	778.464	3094.64	3191.05	-75.8801	0.0000000E+000	0.0000000E+000	0.0000000E+000	75.8801	0.0000000E+000	0.0000000E+000	0.0000000E+000	-75.8801	0.0000000E+000	0.0000000E+000	0.0000000E+000	-14.1199	0.0000000E+000	0.0000000E+000	0.0000000E+000	14.1199	3.97531	75.8801	-4.96598e-06	-1.18599e-05	6371.12
10002.2	2.52585	0.71004	2.62375	-15.7012	4.64849	0.274888	-0.0424563	22.4099	1.6412	1	9	0.00516488	0.00196851	0	-3.80503e-05	0.366913	0.103143	0.381134	15.7012	1641.2	5838.3	6064.59	-74.2988	0.0000000E+000	0.0000000E+000	0.0000000E+000	74.2988	0.0000000E+000	0.0000000E+000	0.0000000E+000	-74.2988	0.0000000E+000	0.0000000E+000	0.0000000E+000	-15.7012	0.0000000E+000	0.0000000E+000	0.0000000E+000	15.7012	3.55733	74.2988	-4.34822e-06	-1.16707e-05	6474.61
4641.49	2.87585	0.919145	3.01916	-17.7243	5.67467	0.274929	-0.0173194	37.306	3.4576	1	9	0.00519072	0.00171926	0	-5.24492e-05	0.315496	0.100835	0.331218	17.7243	3457.6	10818.2	11357.4	-72.2757	0.0000000E+000	0.0000000E+000	0.0000000E+000	72.2757	0.0000000E+000	0.0000000E+000	0.0000000E+000	-72.2757	0.0000000E+000	0.0000000E+000	0.0000000E+000	-17.7243	0.0000000E+000	0.0000000E+000	0.0000000E+000	17.7243	3.12883	72.2757	-1.76177e-06	-4.76162e-06	15874
2155.69	3.32682	1.19904	3.53631	-19.82	6.60767	0.274929	-0.0203359	61.5744	7.07893	1	9	0.00513339	0.00145163	0	-5.72404e-05	0.26603	0.0958813	0.282781	19.82	7078.93	19641	20877.8	-70.18	0.0000000E+000	0.0000000E+000	0.0000000E+000	70.18	0.0000000E+000	0.0000000E+000	0.0000000E+000	-70.18	0.0000000E+000	0.0000000E+000	0.0000000E+000	-19.82	0.0000000E+000	0.0000000E+000	0.0000000E+000	19.82	2.77457	70.18	-1.81867e-06	-5.59093e-06	13519.4
1000.32	3.93963	1.57093	4.24128	-21.7397	7.79768	0.274931	-0.0153277	101.28	13.8945	1	10	0.0051279	0.00120904	0	-6.24742e-05	0.219008	0.0873299	0.235778	21.7397	13894.5	34845.1	37513.2	-68.2603	0.0000000E+000	0.0000000E+000	0.0000000E+000	68.2603	0.0000000E+000	0.0000000E+000	0.0000000E+000	-68.2603	0.0000000E+000	0.0000000E+000	0.0000000E+000	-21.7397	0.0000000E+000	0.0000000E+000	0.0000000E+000	21.7397	2.50783	68.2603	-2.62812e-06	-4.21406e-06	17936.9
463.961	4.73191	2.03931	5.15264	-23.3145	8.73222	0.274923	-0.0151862	168.212	26.3488	1	10	0.00504804	0.000979699	0	-6.63127e-05	0.178228	0.0768108	0.194075	23.3145	26348.8	61138.6	66574.7	-66.6855	0.0000000E+000	0.0000000E+000	0.0000000E+000	66.6855	0.0000000E+000	0.0000000E+000	0.0000000E+000	-66.6855	0.0000000E+000	0.0000000E+000	0.0000000E+000	-23.3145	0.0000000E+000	0.0000000E+000	0.0000000E+000	23.3145	2.32035	66.6855	-2.16201e-06	-4.17503e-06	18103.5
215.345	5.77292	2.66857	6.35987	-24.8091	9.66645	0.274925	-0.0151769	276.954	48.7606	1	10	0.00501127	0.000787953	0	-7.0957e-05	0.142725	0.0659755	0.157236	24.8091	48760.6	105484	116209	-65.1909	0.0000000E+000	0.0000000E+000	0.0000000E+000	65.1909	0.0000000E+000	0.0000000E+000	0.0000000E+000	-65.1909	0.0000000E+000	0.0000000E+000	0.0000000E+000	-24.8091	0.0000000E+000	0.0000000E+000	0.0000000E+000	24.8091	2.1633	65.1909	-2.1686e-06	-4.17251e-06	18114.7
100.032	7.26643	3.42212	8.03193	-25.2181	10.5977	0.274922	-0.0148269	464.928	84.3989	1	10	0.00499711	0.000622155	0	-7.37308e-05	0.112637	0.0530463	0.124503	25.2181	84398.9	179210	198089	-64.7819	0.0000000E+000	0.0000000E+000	0.0000000E+000	64.7819	0.0000000E+000	0.0000000E+000	0.0000000E+000	-64.7819	0.0000000E+000	0.0000000E+000	0.0000000E+000	-25.2181	0.0000000E+000	0.0000000E+000	0.0000000E+000	25.2181	2.12337	64.7819	-1.30336e-06	-4.07624e-06	18542.1
46.4415	9.37467	4.01337	10.1976	-23.1761	11.5315	0.274922	-0.0155772	853.895	132.259	1	10	0.00499566	0.000489885	0	-7.66084e-05	0.0901484	0.0385932	0.0980621	23.1761	132259	308938	336058	-66.8239	0.0000000E+000	0.0000000E+000	0.0000000E+000	66.8239	0.0000000E+000	0.0000000E+000	0.0000000E+000	-66.8239	0.0000000E+000	0.0000000E+000	0.0000000E+000	-23.1761	0.0000000E+000	0.0000000E+000	0.0000000E+000	23.1761	2.33586	66.8239	-1.46193e-06	-4.28251e-06	17649
[...]
1.00006	16.8135	1.62452	16.8918	-5.51878	20.8662	0.274947	-0.00708106	97964	906.075	1	12	0.00499238	0.00029555	0	-9.01026e-05	0.0589258	0.0056934	0.0592002	5.51878	906075	9.37773e+06	9.4214e+06	-84.4812	0.0000000E+000	0.0000000E+000	0.0000000E+000	84.4812	0.0000000E+000	0.0000000E+000	0.0000000E+000	-84.4812	0.0000000E+000	0.0000000E+000	0.0000000E+000	-5.51878	0.0000000E+000	0.0000000E+000	0.0000000E+000	5.51878	10.3498	84.4812	-5.6171e-08	-1.94691e-06	38828.4
0.464091	17.374	1.56255	17.4441	-5.13913	28.5509	0.274953	-0.00478366	219475	1760.97	1	12	0.00499193	0.000286167	0	-0.000124359	0.0570955	0.00513494	0.0573259	5.13913	1.76097e+06	1.95803e+07	1.96593e+07	-84.8609	0.0000000E+000	0.0000000E+000	0.0000000E+000	84.8609	0.0000000E+000	0.0000000E+000	0.0000000E+000	-84.8609	0.0000000E+000	0.0000000E+000	0.0000000E+000	-5.13913	0.0000000E+000	0.0000000E+000	0.0000000E+000	5.13913	11.119	84.8609	-2.41298e-05	-1.31528e-06	57477.6
0.215268	17.9742	1.84695	18.0689	-5.86687	45.031	0.27495	-0.00552956	400300	4182.49	1	12	0.00499505	0.000276445	0	-0.000190114	0.0550539	0.0056571	0.0553438	5.86687	4.18249e+06	4.07033e+07	4.09176e+07	-84.1331	0.0000000E+000	0.0000000E+000	0.0000000E+000	84.1331	0.0000000E+000	0.0000000E+000	0.0000000E+000	-84.1331	0.0000000E+000	0.0000000E+000	0.0000000E+000	-5.86687	0.0000000E+000	0.0000000E+000	0.0000000E+000	5.86687	9.73183	84.1331	-3.22077e-05	-1.52035e-06	49723.6
0.0999041	18.665	2.65986	18.8535	-8.11036	80.4375	0.274953	-0.00541702	598933	11920.9	1	12	0.00499435	0.000264903	0	-0.000177464	0.05251	0.00748296	0.0530405	8.11036	1.19209e+07	8.36524e+07	8.44976e+07	-81.8896	0.0000000E+000	0.0000000E+000	0.0000000E+000	81.8896	0.0000000E+000	0.0000000E+000	0.0000000E+000	-81.8896	0.0000000E+000	0.0000000E+000	0.0000000E+000	-8.11036	0.0000000E+000	0.0000000E+000	0.0000000E+000	8.11036	7.01727	81.8896	2.51774e-05	-1.48942e-06	50757.3
0.0464052	19.7081	3.98432	20.1068	-11.4292	156.674	0.274955	-0.00159476	860795	33800.3	1	12	0.00499215	0.000248281	0	-9.33649e-06	0.0487481	0.00985523	0.0497344	11.4292	3.38003e+07	1.6719e+08	1.70573e+08	-78.5708	0.0000000E+000	0.0000000E+000	0.0000000E+000	78.5708	0.0000000E+000	0.0000000E+000	0.0000000E+000	-78.5708	0.0000000E+000	0.0000000E+000	0.0000000E+000	-11.4292	0.0000000E+000	0.0000000E+000	0.0000000E+000	11.4292	4.94642	78.5708	0.000103178	-4.38486e-07	172412
0.0215268	21.1404	6.68837	22.1732	-17.5563	320.902	0.274955	0.000320394	1.1054e+06	100578	1	12	0.00499105	0.000225094	0	-5.66336e-05	0.0429988	0.0136039	0.0450995	17.5563	1.00578e+08	3.17905e+08	3.33436e+08	-72.4437	0.0000000E+000	0.0000000E+000	0.0000000E+000	72.4437	0.0000000E+000	0.0000000E+000	0.0000000E+000	-72.4437	0.0000000E+000	0.0000000E+000	0.0000000E+000	-17.5563	0.0000000E+000	0.0000000E+000	0.0000000E+000	17.5563	3.16077	72.4437	-0.000107749	8.80939e-08	858175
0.0100092	23.2138	11.1531	25.7541	-25.662	674.117	0.274951	-0.000629659	1.42569e+06	267378	1	12	0.00499257	0.000193856	0	-0.00102851	0.0349989	0.0168153	0.0388288	25.662	2.67378e+08	5.56515e+08	6.17414e+08	-64.338	0.0000000E+000	0.0000000E+000	0.0000000E+000	64.338	0.0000000E+000	0.0000000E+000	0.0000000E+000	-64.338	0.0000000E+000	0.0000000E+000	0.0000000E+000	-25.662	0.0000000E+000	0.0000000E+000	0.0000000E+000	25.662	2.08137	64.338	-0.000596328	-1.73125e-07	436667

File: 17464_R277_UA656_SOC00_C01.mpt
EC-Lab ASCII FILE
Nb header lines : 63

Potentio Electrochemical Impedance Spectroscopy

Run on channel : 1 (SN 66354)
User :
CE vs. WE compliance from -10 V to 10 V
Electrode connection : standard
Potential control : Ewe
Ewe ctrl range : min = -10.00 V, max = 10.00 V
Safety Limits :
	Do not start on E overload
Acquisition started on : 09/12/2025 10:00:37.767
Loaded Setting File :  C:\Users\Celltest\OneDrive - store-dot.com\Documents\EC-Lab\Data\Gyutae\EIS_SOC0_C01.mpr
Saved on :
	File : 17464_C01.mpr
	Directory : C:\Users\Celltest\OneDrive - store-dot.com\Documents\EC-Lab\Data\Gyutae\R277\
	Host : 169.254.61.224
Device : VMP-3e (SN .003165)
Address : USB
EC-LAB for windows v11.62 (software)
Internet server v27.00 (firmware)
Command interpretor v12.03 (firmware)
Electrode material :
Initial state :
Electrolyte :
Comments :
Electrode surface area : 0.001 cm²
Characteristic mass : 0.001 g
Equivalent Weight : 0.000 g/eq.
Density : 0.000 g/cm3
Volume (V) : 0.001 cm³
Cycle Definition : Charge/Discharge alternance
Mode                Single sine
E (V)               0.0000
vs.                 Eoc
tE (h:m:s)          0:00:0.0000
record              0
dI                  0.000
unit dI             mA
dt (s)              0.000
fi                  100.000
unit fi             kHz
ff                  10.000
unit ff             mHz
Nd                  6
Points              per decade
spacing             Logarithmic
Va (mV)             5.0
pw                  0.10
Na                  2
corr                0
E range min (V)     -10.000
E range max (V)     10.000
I Range             Auto
Bandwidth           5
nc cycles           0
goto Ns'            0
nr cycles           0
inc. cycle          0

freq/Hz	Re(Z)/Ohm	-Im(Z)/Ohm	|Z|/Ohm	Phase(Z)/deg	time/s	<Ewe>/V	<I>/mA	Cs/µF	Cp/µF	cycle number	I Range	|Ewe|/V	|I|/A	Ns	(Q-Qo)/mA.h	Re(Y)/Ohm-1	Im(Y)/Ohm-1	|Y|/Ohm-1	Phase(Y)/deg	Re(C)/nF	Im(C)/nF	|C|/nF	Phase(C)/deg	Re(M)	Im(M)	|M|	Phase(M)/deg	Re(Permittivity)	Im(Permittivity)	|Permittivity|	Phase(Permittivity)/deg	Re(Resistivity)/Ohm.cm	Im(Resistivity)/Ohm.cm	|Resistivity|/Ohm.cm	Phase(Resistivity)/deg	Re(Conductivity)/mS/cm	Im(Conductivity)/mS/cm	|Conductivity|/mS/cm	Phase(Conductivity)/deg	Tan(Delta)	Loss Angle(Delta)/deg	dq/mA.h	Pwe/W	Rwe/Ohm
100004	0.907819	0.196725	0.92889	-12.227	1.86448	0.267022	0.0701827	8.08992	0.362857	1	9	0.0045212	0.00486731	0	1.28222e-06	1.05213	0.227998	1.07655	12.227	362.857	1674.46	1713.33	-77.773	0.0000000E+000	0.0000000E+000	0.0000000E+000	77.773	0.0000000E+000	0.0000000E+000	0.0000000E+000	-77.773	0.0000000E+000	0.0000000E+000	0.0000000E+000	-12.227	0.0000000E+000	0.0000000E+000	0.0000000E+000	12.227	4.61465	77.773	1.28222e-06	1.87403e-05	3804.68
46420.4	1.00936	0.247832	1.03934	-13.7952	2.8795	0.267033	0.0713003	13.8342	0.786605	1	9	0.00504518	0.00485424	0	1.97762e-05	0.934399	0.229427	0.962153	13.7952	786.605	3203.64	3298.8	-76.2048	0.0000000E+000	0.0000000E+000	0.0000000E+000	76.2048	0.0000000E+000	0.0000000E+000	0.0000000E+000	-76.2048	0.0000000E+000	0.0000000E+000	0.0000000E+000	-13.7952	0.0000000E+000	0.0000000E+000	0.0000000E+000	13.7952	4.07274	76.2048	1.13078e-05	1.90395e-05	3745.19
21544.7	1.13548	0.322903	1.1805	-15.8745	4.03548	0.267034	0.0823648	22.8775	1.71168	1	9	0.00519488	0.00440059	0	3.01379e-05	0.814795	0.231708	0.847101	15.8745	1711.68	6019.05	6257.7	-74.1255	0.0000000E+000	0.0000000E+000	0.0000000E+000	74.1255	0.0000000E+000	0.0000000E+000	0.0000000E+000	-74.1255	0.0000000E+000	0.0000000E+000	0.0000000E+000	-15.8745	0.0000000E+000	0.0000000E+000	0.0000000E+000	15.8745	3.51647	74.1255	7.13437e-06	2.19942e-05	3242.08
10002.2	1.2883	0.418372	1.35453	-17.9911	4.7685	0.267029	0.0726787	38.033	3.62835	1	9	0.00479762	0.00354191	0	4.78898e-05	0.702167	0.228027	0.738264	17.9911	3628.35	11172.8	11747.2	-72.0089	0.0000000E+000	0.0000000E+000	0.0000000E+000	72.0089	0.0000000E+000	0.0000000E+000	0.0000000E+000	-72.0089	0.0000000E+000	0.0000000E+000	0.0000000E+000	-17.9911	0.0000000E+000	0.0000000E+000	0.0000000E+000	17.9911	3.07931	72.0089	9.21409e-06	1.94073e-05	3674.11
4641.49	1.49933	0.553234	1.59814	-20.2535	5.7927	0.266947	0.0560073	61.9804	7.42752	1	9	0.00479653	0.00300133	0	5.45505e-05	0.58704	0.216611	0.625728	20.2535	7427.52	20129.4	21456	-69.7465	0.0000000E+000	0.0000000E+000	0.0000000E+000	69.7465	0.0000000E+000	0.0000000E+000	0.0000000E+000	-69.7465	0.0000000E+000	0.0000000E+000	0.0000000E+000	-20.2535	0.0000000E+000	0.0000000E+000	0.0000000E+000	20.2535	2.71011	69.7465	6.89671e-06	1.4951e-05	4766.29
2155.69	1.76602	0.73093	1.91131	-22.4839	6.72668	0.26695	0.054573	101.009	14.7723	1	9	0.00463925	0.00242727	0	6.60835e-05	0.483432	0.200085	0.523202	22.4839	14772.3	35691.8	38628.1	-67.5161	0.0000000E+000	0.0000000E+000	0.0000000E+000	67.5161	0.0000000E+000	0.0000000E+000	0.0000000E+000	-67.5161	0.0000000E+000	0.0000000E+000	0.0000000E+000	-22.4839	0.0000000E+000	0.0000000E+000	0.0000000E+000	22.4839	2.41613	67.5161	5.8182e-06	1.45683e-05	4891.61
1000.32	2.10186	0.986042	2.32165	-25.1327	7.66268	0.266948	0.0504005	161.356	29.1059	1	9	0.00459499	0.00197919	0	7.91474e-05	0.389949	0.182937	0.430727	25.1327	29105.9	62042.5	68530.4	-64.8673	0.0000000E+000	0.0000000E+000	0.0000000E+000	64.8673	0.0000000E+000	0.0000000E+000	0.0000000E+000	-64.8673	0.0000000E+000	0.0000000E+000	0.0000000E+000	-25.1327	0.0000000E+000	0.0000000E+000	0.0000000E+000	25.1327	2.13161	64.8673	5.16437e-06	1.34543e-05	5296.52
463.961	2.59401	1.41794	2.95625	-28.662	8.85118	0.266992	-0.0176643	241.925	55.6562	1	10	0.00463029	0.00156627	0	8.54859e-05	0.296816	0.162246	0.338266	28.662	55656.2	101819	116037	-61.338	0.0000000E+000	0.0000000E+000	0.0000000E+000	61.338	0.0000000E+000	0.0000000E+000	0.0000000E+000	-61.338	0.0000000E+000	0.0000000E+000	0.0000000E+000	-28.662	0.0000000E+000	0.0000000E+000	0.0000000E+000	28.662	1.82942	61.338	1.08459e-07	-4.71621e-06	15114.8
215.345	3.41634	1.97042	3.94384	-29.9748	9.78545	0.266985	-0.0185643	375.083	93.628	1	10	0.00458576	0.00116276	0	8.1768e-05	0.219645	0.126683	0.25356	29.9748	93628	162333	187399	-60.0252	0.0000000E+000	0.0000000E+000	0.0000000E+000	60.0252	0.0000000E+000	0.0000000E+000	0.0000000E+000	-60.0252	0.0000000E+000	0.0000000E+000	0.0000000E+000	-29.9748	0.0000000E+000	0.0000000E+000	0.0000000E+000	29.9748	1.73381	60.0252	-1.36869e-06	-4.9564e-06	14381.6
100.032	4.66976	2.40021	5.25049	-27.2027	10.7167	0.266984	-0.0184357	662.876	138.526	1	10	0.00456779	0.000869974	0	7.72094e-05	0.169393	0.087066	0.190458	27.2027	138526	269510	303027	-62.7973	0.0000000E+000	0.0000000E+000	0.0000000E+000	62.7973	0.0000000E+000	0.0000000E+000	0.0000000E+000	-62.7973	0.0000000E+000	0.0000000E+000	0.0000000E+000	-27.2027	0.0000000E+000	0.0000000E+000	0.0000000E+000	27.2027	1.94556	62.7973	-2.27128e-06	-4.92204e-06	14481.8
46.4415	6.14347	2.41478	6.60101	-21.458	11.6506	0.266978	-0.0208471	1419.18	189.919	1	10	0.00456487	0.000691541	0	7.31296e-05	0.140991	0.0554186	0.151492	21.458	189919	483177	519162	-68.542	0.0000000E+000	0.0000000E+000	0.0000000E+000	68.542	0.0000000E+000	0.0000000E+000	0.0000000E+000	-68.542	0.0000000E+000	0.0000000E+000	0.0000000E+000	-21.458	0.0000000E+000	0.0000000E+000	0.0000000E+000	21.458	2.54412	68.542	-2.07018e-06	-5.56571e-06	12806.5
[...]
1.00006	9.67349	0.800757	9.70658	-4.73207	19.9522	0.267026	-0.00493547	198743	1352.57	1	11	0.00456934	0.000470747	0	3.42327e-05	0.102672	0.00849902	0.103023	4.73207	1.35257e+06	1.63397e+07	1.63956e+07	-85.2679	0.0000000E+000	0.0000000E+000	0.0000000E+000	85.2679	0.0000000E+000	0.0000000E+000	0.0000000E+000	-85.2679	0.0000000E+000	0.0000000E+000	0.0000000E+000	-4.73207	0.0000000E+000	0.0000000E+000	0.0000000E+000	4.73207	12.0804	85.2679	-1.04202e-05	-1.3179e-06	54103.6
0.464091	9.91363	0.887723	9.95329	-5.11695	27.6379	0.267024	-0.00637511	386313	3072.99	1	11	0.00456792	0.000458935	0	5.37533e-05	0.100069	0.00896074	0.100469	5.11695	3.07299e+06	3.43176e+07	3.44549e+07	-84.8831	0.0000000E+000	0.0000000E+000	0.0000000E+000	84.8831	0.0000000E+000	0.0000000E+000	0.0000000E+000	-84.8831	0.0000000E+000	0.0000000E+000	0.0000000E+000	-5.11695	0.0000000E+000	0.0000000E+000	0.0000000E+000	5.11695	11.1675	84.8831	1.88732e-05	-1.70231e-06	41885.4
0.215268	10.2155	1.2149	10.2875	-6.78213	44.1179	0.267022	-0.000711582	608558	8487.11	1	11	0.00456663	0.000443901	0	0.000116735	0.0965251	0.0114794	0.0972053	6.78213	8.4871e+06	7.13643e+07	7.18672e+07	-83.2179	0.0000000E+000	0.0000000E+000	0.0000000E+000	83.2179	0.0000000E+000	0.0000000E+000	0.0000000E+000	-83.2179	0.0000000E+000	0.0000000E+000	0.0000000E+000	-6.78213	0.0000000E+000	0.0000000E+000	0.0000000E+000	6.78213	8.40856	83.2179	2.99721e-05	-1.90008e-07	375252
0.0999041	10.6173	2.00006	10.804	-10.6683	79.525	0.267025	0.00271033	796513	27296.7	1	11	0.00456872	0.000422872	0	4.75631e-05	0.0909583	0.0171345	0.0925581	10.6683	2.72967e+07	1.44904e+08	1.47452e+08	-79.3317	0.0000000E+000	0.0000000E+000	0.0000000E+000	79.3317	0.0000000E+000	0.0000000E+000	0.0000000E+000	-79.3317	0.0000000E+000	0.0000000E+000	0.0000000E+000	-10.6683	0.0000000E+000	0.0000000E+000	0.0000000E+000	10.6683	5.30847	79.3317	-6.75879e-05	7.23725e-07	98521.5
0.0464052	11.3353	3.30052	11.8061	-16.234	155.761	0.267023	-0.000665591	1.03913e+06	81212.8	1	11	0.00456957	0.000387052	0	-0.000314945	0.0813249	0.0236794	0.0847022	16.234	8.12128e+07	2.78918e+08	2.90501e+08	-73.766	0.0000000E+000	0.0000000E+000	0.0000000E+000	73.766	0.0000000E+000	0.0000000E+000	0.0000000E+000	-73.766	0.0000000E+000	0.0000000E+000	0.0000000E+000	-16.234	0.0000000E+000	0.0000000E+000	0.0000000E+000	16.234	3.43442	73.766	-0.000220555	-1.77728e-07	401181
0.0215268	12.4461	5.94719	13.794	-25.5402	319.991	0.267017	-0.00168499	1.24317e+06	231086	1	11	0.00456784	0.000331147	0	-0.00032468	0.0654114	0.0312559	0.0724954	25.5402	2.31086e+08	4.83609e+08	5.35983e+08	-64.4598	0.0000000E+000	0.0000000E+000	0.0000000E+000	64.4598	0.0000000E+000	0.0000000E+000	0.0000000E+000	-64.4598	0.0000000E+000	0.0000000E+000	0.0000000E+000	-25.5402	0.0000000E+000	0.0000000E+000	0.0000000E+000	25.5402	2.09277	64.4598	0.000134196	-4.4992e-07	158469
0.0100092	14.3453	10.2198	17.6134	-35.4666	773.282	0.267021	-0.00047359	1.55589e+06	523814	1	12	0.004566	0.000259234	0	0.000923155	0.0462405	0.0329424	0.0567749	35.4666	5.23814e+08	7.35266e+08	9.02772e+08	-54.5334	0.0000000E+000	0.0000000E+000	0.0000000E+000	54.5334	0.0000000E+000	0.0000000E+000	0.0000000E+000	-54.5334	0.0000000E+000	0.0000000E+000	0.0000000E+000	-35.4666	0.0000000E+000	0.0000000E+000	0.0000000E+000	35.4666	1.40368	54.5334	0.000723342	-1.26459e-07	563823