Folder: EIS/txt (part 113)

File: 18706_R307_UA701_SOC00_C03.mpt
EC-Lab ASCII FILE
Nb header lines : 65

Potentio Electrochemical Impedance Spectroscopy

Run on channel : 3 (SN 65921)
User :
CE vs. WE compliance from -10 V to 10 V
Electrode connection : standard
Potential control : Ewe
Ewe ctrl range : min = -10.00 V, max = 10.00 V
Safety Limits :
	Do not start on E overload
Acquisition started on : 10/28/2025 15:30:18.375
Technique started on : 10/28/2025 15:30:20.244
Loaded Setting File :  C:\Users\Celltest\OneDrive - store-dot.com\Documents\EC-Lab\Data\@Biologic Test Protocols\anode half cell EIS SOC00.mps
Saved on :
	File : 18706_R307_UA701_SOC00_C03.mpr
	Directory : C:\Users\Celltest\OneDrive - store-dot.com\Documents\EC-Lab\Data\Anna\
	Host : 169.254.61.224
Device : VMP-3e (SN .003165)
Address : USB
EC-LAB for windows v11.62 (software)
Internet server v27.00 (firmware)
Command interpretor v12.03 (firmware)
Electrode material :
Initial state :
Electrolyte :
Comments :
Electrode surface area : 0.001 cm²
Characteristic mass : 0.001 g
Equivalent Weight : 0.000 g/eq.
Density : 0.000 g/cm3
Volume (V) : 0.001 cm³
Record Ece
Cycle Definition : Charge/Discharge alternance
Mode                Single sine
E (V)               0.0000
vs.                 Eoc
tE (h:m:s)          0:00:0.0000
record              0
dI                  0.000
unit dI             mA
dt (s)              0.000
fi                  100.000
unit fi             kHz
ff                  10.000
unit ff             mHz
Nd                  6
Points              per decade
spacing             Logarithmic
Va (mV)             5.0
pw                  0.10
Na                  2
corr                0
E range min (V)     -10.000
E range max (V)     10.000
I Range             Auto
Bandwidth           5
nc cycles           0
goto Ns'            0
nr cycles           0
inc. cycle          0

freq/Hz	Re(Z)/Ohm	-Im(Z)/Ohm	|Z|/Ohm	Phase(Z)/deg	time/s	<Ewe>/V	<I>/mA	Cs/µF	Cp/µF	cycle number	I Range	|Ewe|/V	|I|/A	Ns	(Q-Qo)/mA.h	<Ece>/V	|Ece|/V	Phase(Zce)/deg	|Zce|/Ohm	Re(Zce)/Ohm	-Im(Zce)/Ohm	Phase(Zwe-ce)/deg	|Zwe-ce|/Ohm	Re(Zwe-ce)/Ohm	-Im(Zwe-ce)/Ohm	Re(Y)/Ohm-1	Im(Y)/Ohm-1	|Y|/Ohm-1	Phase(Y)/deg	Re(C)/nF	Im(C)/nF	|C|/nF	Phase(C)/deg	Re(M)	Im(M)	|M|	Phase(M)/deg	Re(Permittivity)	Im(Permittivity)	|Permittivity|	Phase(Permittivity)/deg	Re(Resistivity)/Ohm.cm	Im(Resistivity)/Ohm.cm	|Resistivity|/Ohm.cm	Phase(Resistivity)/deg	Re(Conductivity)/mS/cm	Im(Conductivity)/mS/cm	|Conductivity|/mS/cm	Phase(Conductivity)/deg	Tan(Delta)	Loss Angle(Delta)/deg	dq/mA.h	Pwe/W	Pce/W	Pwe-ce/W	<Ewe-Ece>/V	Rwe/Ohm	Rce/Ohm	Rwe-ce/Ohm		Ewe-Ece/V
100004	1.25211	0.491858	1.34525	-21.4461	1.86854	0.243877	0.00372296	3.23567	0.432551	1	9	0.00493341	0.00366728	0	-1.9022e-05	0.000110426	3.59868e-05	75.0383	0.00981294	0.00253345	-0.00948026	-21.0305	1.34418	1.25464	0.482378	0.691887	0.27179	0.743356	21.4461	432.551	1101.13	1183.04	-68.5539	0.0000000E+000	0.0000000E+000	0.0000000E+000	68.5539	0.0000000E+000	0.0000000E+000	0.0000000E+000	-68.5539	0.0000000E+000	0.0000000E+000	0.0000000E+000	-21.4461	0.0000000E+000	0.0000000E+000	0.0000000E+000	21.4461	2.54567	68.5539	-1.9022e-05	9.07946e-07	4.1111e-10	9.07534e-07	0.243767	65506.3	29.6607	65476.7
31621.1	1.65635	0.592804	1.75923	-19.6922	3.26754	0.243866	-0.000976015	8.49047	0.964067	1	9	0.00537159	0.00305337	0	-8.05677e-06	-0.000156891	1.88847e-05	54.189	0.00618487	0.00361885	-0.00501563	-19.4989	1.76096	1.65996	0.587788	0.535186	0.191542	0.56843	19.6922	964.067	2693.69	2861.01	-70.3078	0.0000000E+000	0.0000000E+000	0.0000000E+000	70.3078	0.0000000E+000	0.0000000E+000	0.0000000E+000	-70.3078	0.0000000E+000	0.0000000E+000	0.0000000E+000	-19.6922	0.0000000E+000	0.0000000E+000	0.0000000E+000	19.6922	2.79409	70.3078	-7.25093e-06	-2.38017e-07	1.53128e-10	-2.3817e-07	0.244023	249859	160.747	250020
10002.2	2.08771	0.744242	2.2164	-19.6205	4.42056	0.243865	0.0122632	21.3801	2.4107	1	9	0.00508299	0.00229336	0	-1.68167e-05	-0.000175985	2.56244e-05	38.0168	0.0111733	0.00880267	-0.00688155	-19.3772	2.2224	2.09651	0.73736	0.424986	0.151502	0.451183	19.6205	2410.7	6762.36	7179.2	-70.3795	0.0000000E+000	0.0000000E+000	0.0000000E+000	70.3795	0.0000000E+000	0.0000000E+000	0.0000000E+000	-70.3795	0.0000000E+000	0.0000000E+000	0.0000000E+000	-19.6205	0.0000000E+000	0.0000000E+000	0.0000000E+000	19.6205	2.80514	70.3795	-3.00778e-07	2.99055e-06	-2.15814e-09	2.99271e-06	0.244041	19885.9	14.3507	19900.3
3163.08	2.67097	1.04909	2.86961	-21.4436	5.31967	0.243718	-0.0436026	47.962	6.41026	1	9	0.00504933	0.00175958	0	-1.90388e-05	-0.000309644	5.53629e-06	45.9259	0.00314637	0.00218857	-0.00226048	-21.3857	2.87083	2.67316	1.04683	0.324356	0.127399	0.348479	21.4436	6410.26	16320.5	17534.2	-68.5564	0.0000000E+000	0.0000000E+000	0.0000000E+000	68.5564	0.0000000E+000	0.0000000E+000	0.0000000E+000	-68.5564	0.0000000E+000	0.0000000E+000	0.0000000E+000	-21.4436	0.0000000E+000	0.0000000E+000	0.0000000E+000	21.4436	2.54599	68.5564	-3.97021e-06	-1.06267e-05	1.35013e-08	-1.06402e-05	0.244027	5589.52	7.1015	5596.62
1000.32	3.4591	1.54557	3.78869	-24.0757	6.91881	0.243797	-0.0368345	102.942	17.1314	1	10	0.00498354	0.00131537	0	-2.34142e-05	0.000282272	9.39874e-06	1.84356	0.0071453	0.0071416	-0.000229869	-24.0285	3.79512	3.46624	1.54534	0.240982	0.107674	0.263943	24.0757	17131.4	38341.3	41994.5	-65.9243	0.0000000E+000	0.0000000E+000	0.0000000E+000	65.9243	0.0000000E+000	0.0000000E+000	0.0000000E+000	-65.9243	0.0000000E+000	0.0000000E+000	0.0000000E+000	-24.0757	0.0000000E+000	0.0000000E+000	0.0000000E+000	24.0757	2.23807	65.9243	-3.53959e-06	-8.98014e-06	-1.03974e-08	-8.96975e-06	0.243515	6618.71	7.66325	6611.05
316.316	4.73687	2.40561	5.31272	-26.9237	8.26804	0.243807	-0.0341199	209.157	42.8837	1	10	0.00487066	0.000916793	0	-3.672e-05	9.13315e-05	1.2041e-05	79.3395	0.0131339	0.00242963	-0.0129072	-26.7876	5.30905	4.7393	2.39271	0.167826	0.08523	0.188228	26.9237	42883.7	84441.9	94707.1	-63.0763	0.0000000E+000	0.0000000E+000	0.0000000E+000	63.0763	0.0000000E+000	0.0000000E+000	0.0000000E+000	-63.0763	0.0000000E+000	0.0000000E+000	0.0000000E+000	-26.9237	0.0000000E+000	0.0000000E+000	0.0000000E+000	26.9237	1.96909	63.0763	-3.43734e-06	-8.31868e-06	-3.11622e-09	-8.31557e-06	0.243716	7145.61	2.67678	7142.93
100.032	7.09948	3.36552	7.8568	-25.3634	9.6158	0.243801	-0.0327216	472.747	86.7445	1	10	0.00484519	0.000616687	0	-4.8383e-05	-6.1421e-05	8.6503e-06	-69.1388	0.0140271	0.00499512	0.0131075	-25.4341	7.86694	7.10448	3.37863	0.11501	0.0545206	0.127278	25.3634	86744.5	182985	202505	-64.6366	0.0000000E+000	0.0000000E+000	0.0000000E+000	64.6366	0.0000000E+000	0.0000000E+000	0.0000000E+000	-64.6366	0.0000000E+000	0.0000000E+000	0.0000000E+000	-25.3634	0.0000000E+000	0.0000000E+000	0.0000000E+000	25.3634	2.10947	64.6366	-3.92086e-06	-7.97755e-06	2.00979e-09	-7.97956e-06	0.243862	7450.77	1.87708	7452.65
[...]
1.00006	14.5968	1.20575	14.6465	-4.72213	18.6298	0.24383	-0.0185668	131988	894.505	1	11	0.00484327	0.000330678	0	-0.00011333	9.13315e-05	3.71235e-06	-29.8989	0.0112265	0.00973232	0.00559607	-4.7408	14.6566	14.6065	1.21134	0.0680441	0.0056207	0.0682758	4.72213	894505	1.08289e+07	1.08657e+07	-85.2779	0.0000000E+000	0.0000000E+000	0.0000000E+000	85.2779	0.0000000E+000	0.0000000E+000	0.0000000E+000	-85.2779	0.0000000E+000	0.0000000E+000	0.0000000E+000	-4.72213	0.0000000E+000	0.0000000E+000	0.0000000E+000	4.72213	12.106	85.2779	-2.0662e-05	-4.52715e-06	-1.69573e-09	-4.52545e-06	0.243739	13132.6	4.91908	13127.7
0.316193	15.1479	1.31522	15.2049	-4.96229	32.973	0.243831	-0.0173791	382708	2863.52	1	11	0.00484533	0.000318669	0	-0.000203612	-0.000137797	2.42078e-06	19.1965	0.00759654	0.00717415	-0.00249781	-4.95058	15.2118	15.1551	1.31273	0.0655218	0.00568896	0.0657683	4.96229	2.86352e+06	3.29802e+07	3.31043e+07	-85.0377	0.0000000E+000	0.0000000E+000	0.0000000E+000	85.0377	0.0000000E+000	0.0000000E+000	0.0000000E+000	-85.0377	0.0000000E+000	0.0000000E+000	0.0000000E+000	-4.96229	0.0000000E+000	0.0000000E+000	0.0000000E+000	4.96229	11.5174	85.0377	-2.77977e-05	-4.23757e-06	2.3948e-09	-4.23996e-06	0.243969	14030.1	7.92889	14038
0.0999041	15.8025	2.39926	15.9836	-8.6332	78.1807	0.243831	-0.0102134	663986	14961.3	1	11	0.00484468	0.000303104	0	-0.000208031	-0.000271456	2.16205e-06	26.8737	0.00713304	0.0063627	-0.00322432	-8.61836	15.9894	15.8088	2.39604	0.0618554	0.00939142	0.0625643	8.6332	1.49613e+07	9.85405e+07	9.96698e+07	-81.3668	0.0000000E+000	0.0000000E+000	0.0000000E+000	81.3668	0.0000000E+000	0.0000000E+000	0.0000000E+000	-81.3668	0.0000000E+000	0.0000000E+000	0.0000000E+000	-8.6332	0.0000000E+000	0.0000000E+000	0.0000000E+000	8.6332	6.58637	81.3668	4.92657e-06	-2.49035e-06	2.77249e-09	-2.49312e-06	0.244103	23873.7	26.5784	23900.3
0.0315922	17.2161	5.38533	18.0387	-17.3701	235.829	0.24383	-0.0078358	935465	83376.3	1	12	0.00484411	0.00026854	0	-0.00080915	0.000110426	2.02368e-06	28.4148	0.00753585	0.00662797	-0.00358595	-17.353	18.0439	17.2227	5.38175	0.0529083	0.0165502	0.0554364	17.3701	8.33763e+07	2.66541e+08	2.79277e+08	-72.6299	0.0000000E+000	0.0000000E+000	0.0000000E+000	72.6299	0.0000000E+000	0.0000000E+000	0.0000000E+000	-72.6299	0.0000000E+000	0.0000000E+000	0.0000000E+000	-17.3701	0.0000000E+000	0.0000000E+000	0.0000000E+000	17.3701	3.19684	72.6299	-0.000367343	-1.91061e-06	-8.65273e-10	-1.90974e-06	0.24372	31117.5	14.0924	31103.4
0.0100092	20.7639	12.6201	24.2983	-31.2908	687.05	0.243828	-0.0105788	1.25997e+06	339886	1	12	0.00484786	0.000199515	0	-0.00247586	-4.13882e-06	3.40338e-06	-3.88668	0.0170583	0.0170191	0.00115627	-31.2723	24.3134	20.7809	12.6212	0.0351689	0.0213753	0.0411552	31.2908	3.39886e+08	5.59217e+08	6.54406e+08	-58.7092	0.0000000E+000	0.0000000E+000	0.0000000E+000	58.7092	0.0000000E+000	0.0000000E+000	0.0000000E+000	-58.7092	0.0000000E+000	0.0000000E+000	0.0000000E+000	-31.2908	0.0000000E+000	0.0000000E+000	0.0000000E+000	31.2908	1.64531	58.7092	-0.000474115	-2.57942e-06	4.37839e-11	-2.57946e-06	0.243832	23048.7	0.391235	23049.1

File: 18707_R307_UA701_SOC00_C04.mpt
EC-Lab ASCII FILE
Nb header lines : 65

Potentio Electrochemical Impedance Spectroscopy

Run on channel : 4 (SN 66756)
User :
CE vs. WE compliance from -10 V to 10 V
Electrode connection : standard
Potential control : Ewe
Ewe ctrl range : min = -10.00 V, max = 10.00 V
Safety Limits :
	Do not start on E overload
Acquisition started on : 10/28/2025 15:30:28.753
Technique started on : 10/28/2025 15:30:30.347
Loaded Setting File :  C:\Users\Celltest\OneDrive - store-dot.com\Documents\EC-Lab\Data\@Biologic Test Protocols\anode half cell EIS SOC00.mps
Saved on :
	File : 18707_R307_UA701_SOC00_C04.mpr
	Directory : C:\Users\Celltest\OneDrive - store-dot.com\Documents\EC-Lab\Data\Anna\
	Host : 169.254.61.224
Device : VMP-3e (SN .003165)
Address : USB
EC-LAB for windows v11.62 (software)
Internet server v27.00 (firmware)
Command interpretor v12.03 (firmware)
Electrode material :
Initial state :
Electrolyte :
Comments :
Electrode surface area : 0.001 cm²
Characteristic mass : 0.001 g
Equivalent Weight : 0.000 g/eq.
Density : 0.000 g/cm3
Volume (V) : 0.001 cm³
Record Ece
Cycle Definition : Charge/Discharge alternance
Mode                Single sine
E (V)               0.0000
vs.                 Eoc
tE (h:m:s)          0:00:0.0000
record              0
dI                  0.000
unit dI             mA
dt (s)              0.000
fi                  100.000
unit fi             kHz
ff                  10.000
unit ff             mHz
Nd                  6
Points              per decade
spacing             Logarithmic
Va (mV)             5.0
pw                  0.10
Na                  2
corr                0
E range min (V)     -10.000
E range max (V)     10.000
I Range             Auto
Bandwidth           5
nc cycles           0
goto Ns'            0
nr cycles           0
inc. cycle          0

freq/Hz	Re(Z)/Ohm	-Im(Z)/Ohm	|Z|/Ohm	Phase(Z)/deg	time/s	<Ewe>/V	<I>/mA	Cs/µF	Cp/µF	cycle number	I Range	|Ewe|/V	|I|/A	Ns	(Q-Qo)/mA.h	<Ece>/V	|Ece|/V	Phase(Zce)/deg	|Zce|/Ohm	Re(Zce)/Ohm	-Im(Zce)/Ohm	Phase(Zwe-ce)/deg	|Zwe-ce|/Ohm	Re(Zwe-ce)/Ohm	-Im(Zwe-ce)/Ohm	Re(Y)/Ohm-1	Im(Y)/Ohm-1	|Y|/Ohm-1	Phase(Y)/deg	Re(C)/nF	Im(C)/nF	|C|/nF	Phase(C)/deg	Re(M)	Im(M)	|M|	Phase(M)/deg	Re(Permittivity)	Im(Permittivity)	|Permittivity|	Phase(Permittivity)/deg	Re(Resistivity)/Ohm.cm	Im(Resistivity)/Ohm.cm	|Resistivity|/Ohm.cm	Phase(Resistivity)/deg	Re(Conductivity)/mS/cm	Im(Conductivity)/mS/cm	|Conductivity|/mS/cm	Phase(Conductivity)/deg	Tan(Delta)	Loss Angle(Delta)/deg	dq/mA.h	Pwe/W	Pce/W	Pwe-ce/W	<Ewe-Ece>/V	Rwe/Ohm	Rce/Ohm	Rwe-ce/Ohm		Ewe-Ece/V
100004	1.28068	0.37237	1.33372	-16.2123	1.59356	0.244056	0.038692	4.27394	0.333157	1	9	0.0047757	0.00358074	0	1.08998e-05	2.27182e-05	2.45922e-05	48.0662	0.00686791	0.00458963	-0.00510916	-15.9471	1.33672	1.28527	0.367261	0.719966	0.209337	0.749782	16.2123	333.157	1145.82	1193.27	-73.7877	0.0000000E+000	0.0000000E+000	0.0000000E+000	73.7877	0.0000000E+000	0.0000000E+000	0.0000000E+000	-73.7877	0.0000000E+000	0.0000000E+000	0.0000000E+000	-16.2123	0.0000000E+000	0.0000000E+000	0.0000000E+000	16.2123	3.43927	73.7877	1.08998e-05	9.44301e-06	8.79014e-10	9.44213e-06	0.244033	6307.65	0.587155	6307.07
31621.1	1.60283	0.522091	1.68571	-18.0421	2.86652	0.244044	0.0262347	9.64043	0.924744	1	9	0.00548622	0.00325454	0	2.81624e-05	-0.000283041	1.09171e-05	61.4799	0.00335443	0.00160163	-0.00294737	-17.93	1.68633	1.60443	0.519144	0.564052	0.183729	0.593221	18.0421	924.744	2838.97	2985.79	-71.9579	0.0000000E+000	0.0000000E+000	0.0000000E+000	71.9579	0.0000000E+000	0.0000000E+000	0.0000000E+000	-71.9579	0.0000000E+000	0.0000000E+000	0.0000000E+000	-18.0421	0.0000000E+000	0.0000000E+000	0.0000000E+000	18.0421	3.07001	71.9579	1.11789e-05	6.40242e-06	-7.4255e-09	6.40985e-06	0.244327	9302.33	10.7888	9313.12
10002.2	2.00192	0.702626	2.12165	-19.3398	4.26552	0.244034	0.0188498	22.6464	2.48372	1	9	0.00506888	0.00238913	0	2.2938e-05	0.000271148	6.04219e-06	52.759	0.00252903	0.00153049	-0.00201336	-19.2748	2.12242	2.00345	0.700612	0.444736	0.156091	0.471332	19.3398	2483.72	7076.61	7499.82	-70.6602	0.0000000E+000	0.0000000E+000	0.0000000E+000	70.6602	0.0000000E+000	0.0000000E+000	0.0000000E+000	-70.6602	0.0000000E+000	0.0000000E+000	0.0000000E+000	-19.3398	0.0000000E+000	0.0000000E+000	0.0000000E+000	19.3398	2.8492	70.6602	-1.66025e-06	4.60001e-06	5.11109e-09	4.5949e-06	0.243763	12946.2	14.3846	12931.9
3163.08	2.54296	0.997573	2.73163	-21.4195	5.59663	0.244035	0.013106	50.4389	6.72683	1	9	0.00519986	0.00190357	0	3.44116e-05	0.000156488	1.14207e-05	-65.4071	0.00599963	0.00249685	0.00545539	-21.5067	2.73595	2.54546	1.00303	0.340797	0.13369	0.366082	21.4195	6726.83	17147.7	18419.9	-68.5805	0.0000000E+000	0.0000000E+000	0.0000000E+000	68.5805	0.0000000E+000	0.0000000E+000	0.0000000E+000	-68.5805	0.0000000E+000	0.0000000E+000	0.0000000E+000	-21.4195	0.0000000E+000	0.0000000E+000	0.0000000E+000	21.4195	2.54915	68.5805	-1.63024e-06	3.19832e-06	2.05093e-09	3.19627e-06	0.243878	18620	11.9401	18608.1
1000.32	3.32511	1.50417	3.64951	-24.3404	7.40878	0.244044	0.0297012	105.775	17.9684	1	10	0.00524306	0.00143665	0	4.48288e-05	0.000271148	7.00013e-06	35.9719	0.00487254	0.00394337	-0.00286208	-24.274	3.65192	3.32906	1.50131	0.249654	0.112935	0.27401	24.3404	17968.4	39720.9	43596	-65.6596	0.0000000E+000	0.0000000E+000	0.0000000E+000	65.6596	0.0000000E+000	0.0000000E+000	0.0000000E+000	-65.6596	0.0000000E+000	0.0000000E+000	0.0000000E+000	-24.3404	0.0000000E+000	0.0000000E+000	0.0000000E+000	24.3404	2.21059	65.6596	6.34405e-06	7.2484e-06	8.0534e-09	7.24035e-06	0.243773	8216.66	9.12919	8207.53
316.316	4.56924	2.41685	5.16905	-27.8762	8.75801	0.244033	0.0276085	208.185	45.5121	1	10	0.00499458	0.000966247	0	5.50292e-05	-0.000149271	4.01341e-05	-106.618	0.0415361	-0.0118792	0.0398011	-28.327	5.17732	4.55736	2.45665	0.17101	0.0904541	0.193459	27.8762	45512.1	86044.1	97339.3	-62.1238	0.0000000E+000	0.0000000E+000	0.0000000E+000	62.1238	0.0000000E+000	0.0000000E+000	0.0000000E+000	-62.1238	0.0000000E+000	0.0000000E+000	0.0000000E+000	-27.8762	0.0000000E+000	0.0000000E+000	0.0000000E+000	27.8762	1.89057	62.1238	4.1066e-06	6.7374e-06	-4.12116e-09	6.74152e-06	0.244183	8839.05	5.40671	8844.46
100.032	6.94927	3.39449	7.73401	-26.034	10.1038	0.244043	0.025169	468.712	90.2914	1	10	0.00490518	0.000634235	0	6.43177e-05	-0.000149271	1.07972e-05	59.5075	0.017024	0.0086384	-0.0146695	-25.9083	7.73535	6.95791	3.37982	0.11618	0.0567499	0.129299	26.034	90291.4	184846	205720	-63.966	0.0000000E+000	0.0000000E+000	0.0000000E+000	63.966	0.0000000E+000	0.0000000E+000	0.0000000E+000	-63.966	0.0000000E+000	0.0000000E+000	0.0000000E+000	-26.034	0.0000000E+000	0.0000000E+000	0.0000000E+000	26.034	2.04722	63.966	3.8569e-06	6.14231e-06	-3.75701e-09	6.14607e-06	0.244192	9696.18	5.93077	9702.11
31.6296	9.96915	3.26921	10.4915	-18.156	11.4316	0.244031	0.022584	1539.16	149.45	1	10	0.00487763	0.000464912	0	7.376e-05	3.60827e-06	7.49991e-06	-44.0886	0.0161319	0.011587	0.0112241	-18.1945	10.506	9.98074	3.28044	0.0905696	0.0297008	0.0953152	18.156	149450	455732	479611	-71.844	0.0000000E+000	0.0000000E+000	0.0000000E+000	71.844	0.0000000E+000	0.0000000E+000	0.0000000E+000	-71.844	0.0000000E+000	0.0000000E+000	0.0000000E+000	-18.156	0.0000000E+000	0.0000000E+000	0.0000000E+000	18.156	3.0494	71.844	3.29475e-06	5.51119e-06	8.14891e-11	5.51111e-06	0.244028	10805.5	0.159771	10805.4
[...]
1.00006	14.4752	1.16739	14.5222	-4.6108	19.12	0.244049	0.0218751	136325	880.936	1	11	0.0048777	0.000335879	0	0.000110395	3.60827e-06	2.14107e-06	-81.7304	0.00637452	0.000916858	0.00630823	-4.63531	14.5236	14.4761	1.1737	0.0686373	0.00553544	0.0688601	4.6108	880936	1.09233e+07	1.09587e+07	-85.3892	0.0000000E+000	0.0000000E+000	0.0000000E+000	85.3892	0.0000000E+000	0.0000000E+000	0.0000000E+000	-85.3892	0.0000000E+000	0.0000000E+000	0.0000000E+000	-4.6108	0.0000000E+000	0.0000000E+000	0.0000000E+000	4.6108	12.3996	85.3892	2.51319e-06	5.3386e-06	7.89313e-11	5.33852e-06	0.244045	11156.5	0.164949	11156.3
0.316193	14.9543	1.23719	15.0054	-4.72938	33.4629	0.244048	0.0111255	406847	2765.73	1	11	0.0048767	0.000324996	0	0.000187707	2.27182e-05	3.57428e-06	-20.2801	0.0109979	0.0103161	0.00381198	-4.74063	15.016	14.9646	1.241	0.0664158	0.00549467	0.0666427	4.72938	2.76573e+06	3.34302e+07	3.35444e+07	-85.2706	0.0000000E+000	0.0000000E+000	0.0000000E+000	85.2706	0.0000000E+000	0.0000000E+000	0.0000000E+000	-85.2706	0.0000000E+000	0.0000000E+000	0.0000000E+000	-4.72938	0.0000000E+000	0.0000000E+000	0.0000000E+000	4.72938	12.0873	85.2706	4.55025e-05	2.71516e-06	2.52751e-10	2.7149e-06	0.244026	21936	2.042	21933.9
0.0999041	15.6638	2.37219	15.8424	-8.61168	78.6717	0.244051	0.00666234	671565	15057.3	1	11	0.00487431	0.000307676	0	0.000395362	-7.28316e-05	1.97135e-06	2.78896	0.00640725	0.00639966	-0.000311759	-8.6071	15.8486	15.6702	2.37188	0.0624102	0.00945168	0.0631219	8.61168	1.50573e+07	9.94243e+07	1.00558e+08	-81.3883	0.0000000E+000	0.0000000E+000	0.0000000E+000	81.3883	0.0000000E+000	0.0000000E+000	0.0000000E+000	-81.3883	0.0000000E+000	0.0000000E+000	0.0000000E+000	-8.61168	0.0000000E+000	0.0000000E+000	0.0000000E+000	8.61168	6.60308	81.3883	5.83791e-05	1.62595e-06	-4.85229e-10	1.62643e-06	0.244124	36631.4	10.9318	36642.3
0.0315922	17.0387	5.16693	17.8049	-16.8698	236.322	0.24417	-0.00217846	975006	82109.6	1	12	0.00487505	0.000273804	0	3.55642e-05	3.60827e-06	3.68511e-06	38.738	0.0134589	0.0104982	-0.00842206	-16.834	17.8125	17.0492	5.15851	0.0537474	0.0162987	0.0561643	16.8698	8.21096e+07	2.70768e+08	2.82944e+08	-73.1302	0.0000000E+000	0.0000000E+000	0.0000000E+000	73.1302	0.0000000E+000	0.0000000E+000	0.0000000E+000	-73.1302	0.0000000E+000	0.0000000E+000	0.0000000E+000	-16.8698	0.0000000E+000	0.0000000E+000	0.0000000E+000	16.8698	3.29764	73.1302	-0.000268913	-5.31913e-07	-7.86046e-12	-5.31905e-07	0.244166	112084	1.65634	112082
0.0100092	20.2561	12.2382	23.6661	-31.1392	687.543	0.244035	-0.00728005	1.29929e+06	347444	1	12	0.00487928	0.000206172	0	-0.000401722	0.000137378	4.35548e-06	-18.2557	0.0211255	0.0200622	0.00661775	-31.1278	23.6867	20.2762	12.2448	0.0361662	0.0218506	0.0422545	31.1392	3.47444e+08	5.75076e+08	6.71885e+08	-58.8608	0.0000000E+000	0.0000000E+000	0.0000000E+000	58.8608	0.0000000E+000	0.0000000E+000	0.0000000E+000	-58.8608	0.0000000E+000	0.0000000E+000	0.0000000E+000	-31.1392	0.0000000E+000	0.0000000E+000	0.0000000E+000	31.1392	1.65516	58.8608	9.46649e-05	-1.77659e-06	-1.00012e-09	-1.77559e-06	0.243897	33521	18.8705	33502.2