Folder: EIS/txt (part 43)

File: 17549_R290_UC83_50SOC_C05.mpt
EC-Lab ASCII FILE
Nb header lines : 64

Potentio Electrochemical Impedance Spectroscopy

Run on channel : 5 (SN 65912)
User :
CE vs. WE compliance from -10 V to 10 V
Electrode connection : standard
Potential control : Ewe
Ewe ctrl range : min = -10.00 V, max = 10.00 V
Safety Limits :
	Do not start on E overload
Acquisition started on : 09/16/2025 16:58:01.491
Loaded Setting File :  C:\Users\Celltest\OneDrive - store-dot.com\Documents\EC-Lab\Data\Michael\R290\17544_R290_UC82_50SOC.mps
Saved on :
	File : 17549_R290_UC83_50SOC_C05.mpr
	Directory : C:\Users\Celltest\OneDrive - store-dot.com\Documents\EC-Lab\Data\Michael\R290\
	Host : 169.254.61.224
Device : VMP-3e (SN .003165)
Address : USB
EC-LAB for windows v11.62 (software)
Internet server v27.00 (firmware)
Command interpretor v12.03 (firmware)
Electrode material :
Initial state :
Electrolyte :
Comments :
Electrode surface area : 0.001 cm²
Characteristic mass : 0.001 g
Equivalent Weight : 0.000 g/eq.
Density : 0.000 g/cm3
Volume (V) : 0.001 cm³
Record Ece
Cycle Definition : Charge/Discharge alternance
Mode                Multi sine
E (V)               0.0000
vs.                 Eoc
tE (h:m:s)          0:00:0.0000
record              0
dI                  0.000
unit dI             mA
dt (s)              0.000
fi                  1.000
unit fi             MHz
ff                  0.100
unit ff             mHz
Nd                  10
Points              per decade
spacing             Logarithmic
Va (mV)             5.0
pw                  0.10
Na                  2
corr                0
E range min (V)     -10.000
E range max (V)     10.000
I Range             Auto
Bandwidth           5
nc cycles           0
goto Ns'            0
nr cycles           0
inc. cycle          0

freq/Hz	Re(Z)/Ohm	-Im(Z)/Ohm	|Z|/Ohm	Phase(Z)/deg	time/s	<Ewe>/V	<I>/mA	Cs/µF	Cp/µF	cycle number	I Range	|Ewe|/V	|I|/A	Ns	(Q-Qo)/mA.h	<Ece>/V	|Ece|/V	Phase(Zce)/deg	|Zce|/Ohm	Re(Zce)/Ohm	-Im(Zce)/Ohm	Phase(Zwe-ce)/deg	|Zwe-ce|/Ohm	Re(Zwe-ce)/Ohm	-Im(Zwe-ce)/Ohm	Re(Y)/Ohm-1	Im(Y)/Ohm-1	|Y|/Ohm-1	Phase(Y)/deg	Re(C)/nF	Im(C)/nF	|C|/nF	Phase(C)/deg	Re(M)	Im(M)	|M|	Phase(M)/deg	Re(Permittivity)	Im(Permittivity)	|Permittivity|	Phase(Permittivity)/deg	Re(Resistivity)/Ohm.cm	Im(Resistivity)/Ohm.cm	|Resistivity|/Ohm.cm	Phase(Resistivity)/deg	Re(Conductivity)/mS/cm	Im(Conductivity)/mS/cm	|Conductivity|/mS/cm	Phase(Conductivity)/deg	Tan(Delta)	Loss Angle(Delta)/deg	dq/mA.h	Pwe/W	Pce/W	Pwe-ce/W	<Ewe-Ece>/V	Rwe/Ohm	Rce/Ohm	Rwe-ce/Ohm		Ewe-Ece/V
1.00002e+06	0.964441	-0.0945288	0.969062	5.59791	2.69354	3.79366	0.0813474	-1.68364	-0.0160204	1	9	0.000212825	0.00021962	0	1.28158e-05	0.000208542	0.000195737	-0.448434	0.891254	0.891227	0.00697547	2.7013	1.85773	1.85567	-0.0875533	1.027	-0.100661	1.03193	-5.59791	-16.0204	163.45	164.233	-95.5979	0.0000000E+000	0.0000000E+000	0.0000000E+000	95.5979	0.0000000E+000	0.0000000E+000	0.0000000E+000	-95.5979	0.0000000E+000	0.0000000E+000	0.0000000E+000	5.59791	0.0000000E+000	0.0000000E+000	0.0000000E+000	-5.59791	10.2026	84.4021	1.28158e-05	0.000308604	1.69643e-08	0.000308587	3.79345	46635.3	2.56359	46632.8
251206	0.666686	0.346476	0.751343	-27.4609	4.99156	3.79206	-0.08504	1.82859	0.388854	1	9	0.00202326	0.00269286	0	-1.4372e-05	-0.000326012	5.24775e-05	97.26	0.0194876	-0.0024627	-0.0193314	-26.2213	0.740416	0.664223	0.327145	1.18099	0.613758	1.33095	27.4609	388.854	748.23	843.241	-62.5391	0.0000000E+000	0.0000000E+000	0.0000000E+000	62.5391	0.0000000E+000	0.0000000E+000	0.0000000E+000	-62.5391	0.0000000E+000	0.0000000E+000	0.0000000E+000	-27.4609	0.0000000E+000	0.0000000E+000	0.0000000E+000	27.4609	1.92419	62.5391	-8.22119e-06	-0.000322477	2.77241e-08	-0.000322505	3.79239	44591.5	3.83364	44595.3
63093.8	1.09893	1.1201	1.56916	-45.5467	7.29352	3.79178	-0.0785975	2.25204	1.1475	1	9	0.00545926	0.00347909	0	-2.24401e-05	-0.000116009	2.56695e-05	63.1707	0.00737823	0.00333004	-0.006584	-45.2911	1.56681	1.10226	1.11352	0.446307	0.454905	0.637282	45.5467	1147.5	1125.81	1607.55	-44.4533	0.0000000E+000	0.0000000E+000	0.0000000E+000	44.4533	0.0000000E+000	0.0000000E+000	0.0000000E+000	-44.4533	0.0000000E+000	0.0000000E+000	0.0000000E+000	-45.5467	0.0000000E+000	0.0000000E+000	0.0000000E+000	45.5467	0.981098	44.4533	-1.60542e-06	-0.000298024	9.11803e-09	-0.000298034	3.7919	48243	1.47599	48244.5
15847.7	2.8582	2.15795	3.58134	-37.0529	9.59555	3.79179	-0.0689524	4.65387	1.68967	1	9	0.00494883	0.00138184	0	-6.64631e-05	-0.0001351	1.58125e-05	-95.8275	0.0114431	-0.00116185	0.011384	-37.2092	3.58729	2.85704	2.16933	0.222844	0.168247	0.279225	37.0529	1689.67	2237.97	2804.2	-52.9471	0.0000000E+000	0.0000000E+000	0.0000000E+000	52.9471	0.0000000E+000	0.0000000E+000	0.0000000E+000	-52.9471	0.0000000E+000	0.0000000E+000	0.0000000E+000	-37.0529	0.0000000E+000	0.0000000E+000	0.0000000E+000	37.0529	1.3245	52.9471	-6.77622e-06	-0.000261453	9.3155e-09	-0.000261462	3.79192	54991.3	1.95933	54993.3
3983.6	4.92746	1.72389	5.22031	-19.2825	11.4751	3.79169	-0.0704193	23.1759	2.52732	1	10	0.00455522	0.000872595	0	-9.89801e-05	-0.0001351	5.3602e-06	-4.56551	0.00614283	0.00612334	0.000488963	-19.2654	5.22625	4.93358	1.72437	0.180813	0.063258	0.191559	19.2825	2527.32	7223.95	7653.29	-70.7175	0.0000000E+000	0.0000000E+000	0.0000000E+000	70.7175	0.0000000E+000	0.0000000E+000	0.0000000E+000	-70.7175	0.0000000E+000	0.0000000E+000	0.0000000E+000	-19.2825	0.0000000E+000	0.0000000E+000	0.0000000E+000	19.2825	2.85835	70.7175	-6.38012e-06	-0.000267008	9.51367e-09	-0.000267018	3.79183	53844.5	1.91851	53846.4
1000.32	6.10945	1.49437	6.28956	-13.7446	14.3179	3.79166	-0.0460645	106.469	6.01033	1	10	0.00492211	0.000782585	0	-0.000139216	-7.78267e-05	9.4659e-06	34.9595	0.0120957	0.0099131	-0.0069308	-13.662	6.29755	6.11937	1.48744	0.154441	0.0377761	0.158994	13.7446	6010.33	24572.1	25296.5	-76.2554	0.0000000E+000	0.0000000E+000	0.0000000E+000	76.2554	0.0000000E+000	0.0000000E+000	0.0000000E+000	-76.2554	0.0000000E+000	0.0000000E+000	0.0000000E+000	-13.7446	0.0000000E+000	0.0000000E+000	0.0000000E+000	13.7446	4.08832	76.2554	-5.99811e-06	-0.000174661	3.58504e-09	-0.000174664	3.79173	82312	1.68952	82313.6
251.044	7.55641	1.49619	7.70311	-11.1998	17.019	3.79165	-0.0450145	423.725	15.9854	1	10	0.00488239	0.00063382	0	-0.000170702	0.00018945	7.99759e-06	151.04	0.0126181	-0.0110403	-0.00610969	-11.1712	7.6911	7.54537	1.49008	0.127345	0.0252147	0.129818	11.1998	15985.4	80733.3	82300.7	-78.8002	0.0000000E+000	0.0000000E+000	0.0000000E+000	78.8002	0.0000000E+000	0.0000000E+000	0.0000000E+000	-78.8002	0.0000000E+000	0.0000000E+000	0.0000000E+000	-11.1998	0.0000000E+000	0.0000000E+000	0.0000000E+000	11.1998	5.05044	78.8002	-5.54646e-06	-0.000170679	-8.52801e-09	-0.000170671	3.79146	84231.9	4.20865	84227.7
63.0823	8.77716	0.94496	8.82788	-6.14486	19.741	3.79166	-0.04109	2669.93	30.5923	1	10	0.00488337	0.000553176	0	-0.000201852	0.000227633	8.06159e-06	-66.0097	0.0145733	0.00592525	0.0133144	-6.2266	8.83521	8.78309	0.958274	0.112627	0.0121255	0.113277	6.14486	30592.3	284154	285796	-83.8551	0.0000000E+000	0.0000000E+000	0.0000000E+000	83.8551	0.0000000E+000	0.0000000E+000	0.0000000E+000	-83.8551	0.0000000E+000	0.0000000E+000	0.0000000E+000	-6.14486	0.0000000E+000	0.0000000E+000	0.0000000E+000	6.14486	9.2884	83.8551	-4.79002e-06	-0.000155799	-9.35343e-09	-0.00015579	3.79143	92276.9	5.53986	92271.4
[...]
0.0602816	10.6119	1.15914	10.675	-6.23372	240.371	3.79171	-0.0234054	2.27771e+06	26855.6	1	11	0.00509361	0.000477153	0	-0.00399137	7.49031e-05	7.247e-07	5.00309	0.0015188	0.00151301	-0.000132454	-6.23214	10.6765	10.6134	1.15901	0.0931229	0.0101718	0.0936768	6.23372	2.68556e+07	2.45862e+08	2.47324e+08	-83.7663	0.0000000E+000	0.0000000E+000	0.0000000E+000	83.7663	0.0000000E+000	0.0000000E+000	0.0000000E+000	-83.7663	0.0000000E+000	0.0000000E+000	0.0000000E+000	-6.23372	0.0000000E+000	0.0000000E+000	0.0000000E+000	6.23372	9.15497	83.7663	0.000000000000000E+000	-8.87466e-05	-1.75314e-09	-8.87448e-05	3.79164	162001	3.20024	161998
0.00796479	13.6232	2.36013	13.8261	-9.82857	20329.3	3.7917	0.000212348	8.4666e+06	246706	1	11	0.0050886	0.000368042	0	-0.0240525	-0.000211465	6.62227e-07	-5.40719	0.00179933	0.00179132	0.000169556	-9.82799	13.8279	13.625	2.3603	0.0712652	0.0123462	0.0723267	9.82857	2.46706e+08	1.42404e+09	1.44526e+09	-80.1714	0.0000000E+000	0.0000000E+000	0.0000000E+000	80.1714	0.0000000E+000	0.0000000E+000	0.0000000E+000	-80.1714	0.0000000E+000	0.0000000E+000	0.0000000E+000	-9.82857	0.0000000E+000	0.0000000E+000	0.0000000E+000	9.82857	5.77222	80.1714	-0.0200611	8.0516e-07	-4.49042e-11	8.05205e-07	3.79192	1.78561e+07	995.843	1.78571e+07
0.0019912	15.5578	3.56856	15.9619	-12.9187	20329.3	3.7917	0.000212348	2.23982e+07	1.11952e+06	1	11	0.00509983	0.000319501	0	-0.0240525	-0.000211465	3.45886e-07	3.91338	0.00108258	0.00108006	-7.38844e-05	-12.9176	15.9629	15.5589	3.56849	0.0610636	0.0140064	0.0626494	12.9187	1.11952e+09	4.88077e+09	5.00752e+09	-77.0813	0.0000000E+000	0.0000000E+000	0.0000000E+000	77.0813	0.0000000E+000	0.0000000E+000	0.0000000E+000	-77.0813	0.0000000E+000	0.0000000E+000	0.0000000E+000	-12.9187	0.0000000E+000	0.0000000E+000	0.0000000E+000	12.9187	4.35969	77.0813	0.000000000000000E+000	8.0516e-07	-4.49042e-11	8.05205e-07	3.79192	1.78561e+07	995.843	1.78571e+07
0.000497799	16.5356	8.52942	18.6058	-27.2857	20329.3	3.7917	0.000212348	3.7484e+07	7.8775e+06	1	11	0.00510004	0.00027411	0	-0.0240525	-0.000211465	1.00565e-06	-106.343	0.00366879	-0.00103236	0.00352055	-27.2968	18.6065	16.5345	8.53294	0.0477663	0.024639	0.0537467	27.2857	7.8775e+09	1.52717e+10	1.71837e+10	-62.7143	0.0000000E+000	0.0000000E+000	0.0000000E+000	62.7143	0.0000000E+000	0.0000000E+000	0.0000000E+000	-62.7143	0.0000000E+000	0.0000000E+000	0.0000000E+000	-27.2857	0.0000000E+000	0.0000000E+000	0.0000000E+000	27.2857	1.93865	62.7143	0.000000000000000E+000	8.0516e-07	-4.49042e-11	8.05205e-07	3.79192	1.78561e+07	995.843	1.78571e+07
9.95598e-05	18.8572	41.3322	45.4306	-65.4759	20329.3	3.7917	0.000212348	3.86766e+07	3.2013e+07	1	11	0.00510084	0.000112278	0	-0.0240525	-0.000211465	2.55705e-06	98.7618	0.0227744	-0.00346917	-0.0225086	-65.4681	45.4087	18.8537	41.3097	0.00913648	0.0200259	0.0220116	65.4759	3.2013e+10	1.46055e+10	3.51874e+10	-24.5241	0.0000000E+000	0.0000000E+000	0.0000000E+000	24.5241	0.0000000E+000	0.0000000E+000	0.0000000E+000	-24.5241	0.0000000E+000	0.0000000E+000	0.0000000E+000	-65.4759	0.0000000E+000	0.0000000E+000	0.0000000E+000	65.4759	0.456234	24.5241	0.000000000000000E+000	8.0516e-07	-4.49042e-11	8.05205e-07	3.79192	1.78561e+07	995.843	1.78571e+07

File: 17550_R290_UC83_50SOC_C06.mpt
EC-Lab ASCII FILE
Nb header lines : 64

Potentio Electrochemical Impedance Spectroscopy

Run on channel : 6 (SN 65795)
User :
CE vs. WE compliance from -10 V to 10 V
Electrode connection : standard
Potential control : Ewe
Ewe ctrl range : min = -10.00 V, max = 10.00 V
Safety Limits :
	Do not start on E overload
Acquisition started on : 09/16/2025 16:58:22.065
Loaded Setting File :  C:\Users\Celltest\OneDrive - store-dot.com\Documents\EC-Lab\Data\Michael\R290\17544_R290_UC82_50SOC.mps
Saved on :
	File : 17550_R290_UC83_50SOC_C06.mpr
	Directory : C:\Users\Celltest\OneDrive - store-dot.com\Documents\EC-Lab\Data\Michael\R290\
	Host : 169.254.61.224
Device : VMP-3e (SN .003165)
Address : USB
EC-LAB for windows v11.62 (software)
Internet server v27.00 (firmware)
Command interpretor v12.03 (firmware)
Electrode material :
Initial state :
Electrolyte :
Comments :
Electrode surface area : 0.001 cm²
Characteristic mass : 0.001 g
Equivalent Weight : 0.000 g/eq.
Density : 0.000 g/cm3
Volume (V) : 0.001 cm³
Record Ece
Cycle Definition : Charge/Discharge alternance
Mode                Multi sine
E (V)               0.0000
vs.                 Eoc
tE (h:m:s)          0:00:0.0000
record              0
dI                  0.000
unit dI             mA
dt (s)              0.000
fi                  1.000
unit fi             MHz
ff                  0.100
unit ff             mHz
Nd                  10
Points              per decade
spacing             Logarithmic
Va (mV)             5.0
pw                  0.10
Na                  2
corr                0
E range min (V)     -10.000
E range max (V)     10.000
I Range             Auto
Bandwidth           5
nc cycles           0
goto Ns'            0
nr cycles           0
inc. cycle          0

freq/Hz	Re(Z)/Ohm	-Im(Z)/Ohm	|Z|/Ohm	Phase(Z)/deg	time/s	<Ewe>/V	<I>/mA	Cs/µF	Cp/µF	cycle number	I Range	|Ewe|/V	|I|/A	Ns	(Q-Qo)/mA.h	<Ece>/V	|Ece|/V	Phase(Zce)/deg	|Zce|/Ohm	Re(Zce)/Ohm	-Im(Zce)/Ohm	Phase(Zwe-ce)/deg	|Zwe-ce|/Ohm	Re(Zwe-ce)/Ohm	-Im(Zwe-ce)/Ohm	Re(Y)/Ohm-1	Im(Y)/Ohm-1	|Y|/Ohm-1	Phase(Y)/deg	Re(C)/nF	Im(C)/nF	|C|/nF	Phase(C)/deg	Re(M)	Im(M)	|M|	Phase(M)/deg	Re(Permittivity)	Im(Permittivity)	|Permittivity|	Phase(Permittivity)/deg	Re(Resistivity)/Ohm.cm	Im(Resistivity)/Ohm.cm	|Resistivity|/Ohm.cm	Phase(Resistivity)/deg	Re(Conductivity)/mS/cm	Im(Conductivity)/mS/cm	|Conductivity|/mS/cm	Phase(Conductivity)/deg	Tan(Delta)	Loss Angle(Delta)/deg	dq/mA.h	Pwe/W	Pce/W	Pwe-ce/W	<Ewe-Ece>/V	Rwe/Ohm	Rce/Ohm	Rwe-ce/Ohm		Ewe-Ece/V
1.00002e+06	1.24309	5.06162	5.21203	-76.2017	2.23457	3.79271	0.00573448	0.0314429	0.0296543	1	10	0.000211681	4.06139e-05	0	-5.39969e-06	-0.000172193	0.000202195	-65.2841	4.97847	2.08159	4.5224	-70.8684	10.1443	3.32468	9.58402	0.0457604	0.186327	0.191864	76.2017	29.6543	7.28286	30.5355	-13.7983	0.0000000E+000	0.0000000E+000	0.0000000E+000	13.7983	0.0000000E+000	0.0000000E+000	0.0000000E+000	-13.7983	0.0000000E+000	0.0000000E+000	0.0000000E+000	-76.2017	0.0000000E+000	0.0000000E+000	0.0000000E+000	76.2017	0.245592	13.7983	-5.39969e-06	2.17492e-05	-9.8744e-10	2.17502e-05	3.79288	661386	30.0277	661416
251206	0.741348	0.294942	0.797864	-21.6949	4.93557	3.79248	0.0595186	2.14809	0.293541	1	9	0.00107112	0.00134249	0	3.627e-05	-0.000114899	9.04827e-05	70.7481	0.0673993	0.0222231	-0.0636302	-16.8533	0.797838	0.763571	0.231312	1.16457	0.463317	1.25335	21.6949	293.541	737.826	794.073	-68.3051	0.0000000E+000	0.0000000E+000	0.0000000E+000	68.3051	0.0000000E+000	0.0000000E+000	0.0000000E+000	-68.3051	0.0000000E+000	0.0000000E+000	0.0000000E+000	-21.6949	0.0000000E+000	0.0000000E+000	0.0000000E+000	21.6949	2.51354	68.3051	7.13403e-06	0.000225723	-6.83864e-09	0.00022573	3.79259	63719.2	1.93048	63721.1
63093.8	0.0918529	-0.187937	0.209182	63.9532	7.0076	3.7924	0.0578423	-13.4221	-10.8342	1	9	5.14193e-05	0.000245811	0	7.60784e-05	-9.58012e-05	3.34574e-05	33.2572	0.13611	0.113818	-0.0746425	51.9295	0.333539	0.205671	-0.262579	2.09915	-4.29499	4.78052	-63.9532	-10834.2	5295.13	12058.9	-153.953	0.0000000E+000	0.0000000E+000	0.0000000E+000	153.953	0.0000000E+000	0.0000000E+000	0.0000000E+000	-153.953	0.0000000E+000	0.0000000E+000	0.0000000E+000	63.9532	0.0000000E+000	0.0000000E+000	0.0000000E+000	-63.9532	0.488744	26.0468	2.22045e-06	0.000219361	-5.54136e-09	0.000219367	3.7925	65564.5	1.65625	65566.1
15847.7	2.45317	3.13861	3.98358	-51.9885	10.0356	3.79245	0.0589971	3.19975	1.9863	1	9	0.00498822	0.00125219	0	-0.000120791	0.000228865	3.37422e-06	11.1058	0.00269465	0.00264419	-0.000519048	-51.954	3.9848	2.45581	3.1381	0.154589	0.197784	0.25103	51.9885	1986.3	1552.51	2521.04	-38.0115	0.0000000E+000	0.0000000E+000	0.0000000E+000	38.0115	0.0000000E+000	0.0000000E+000	0.0000000E+000	-38.0115	0.0000000E+000	0.0000000E+000	0.0000000E+000	-51.9885	0.0000000E+000	0.0000000E+000	0.0000000E+000	51.9885	0.781608	38.0115	6.64047e-06	0.000223743	1.35024e-08	0.00022373	3.79222	64282	3.87927	64278.1
3983.6	6.8654	4.12499	8.00932	-30.999	11.916	3.79231	-0.0579598	9.68549	2.56907	1	10	0.00453948	0.000566775	0	-0.000132896	-9.58012e-05	1.17137e-05	-139.178	0.0206672	-0.0156399	0.0135103	-31.1396	8.0029	6.84976	4.1385	0.107022	0.064303	0.124854	30.999	2569.07	4275.81	4988.25	-59.001	0.0000000E+000	0.0000000E+000	0.0000000E+000	59.001	0.0000000E+000	0.0000000E+000	0.0000000E+000	-59.001	0.0000000E+000	0.0000000E+000	0.0000000E+000	-30.999	0.0000000E+000	0.0000000E+000	0.0000000E+000	30.999	1.66434	59.001	-4.52336e-06	-0.000219802	5.55262e-09	-0.000219807	3.79241	65430	1.65289	65431.6
1000.32	10.1655	2.88353	10.5666	-15.8364	14.7218	3.79221	-0.0114524	55.1769	4.10899	1	10	0.00484651	0.000458664	0	-0.000145956	9.51792e-05	8.81667e-06	116.913	0.0192225	-0.00870092	-0.0171406	-15.7597	10.5535	10.1568	2.86639	0.0910459	0.0258258	0.0946379	15.8364	4108.99	14485.8	15057.3	-74.1636	0.0000000E+000	0.0000000E+000	0.0000000E+000	74.1636	0.0000000E+000	0.0000000E+000	0.0000000E+000	-74.1636	0.0000000E+000	0.0000000E+000	0.0000000E+000	-15.8364	0.0000000E+000	0.0000000E+000	0.0000000E+000	15.8364	3.52538	74.1636	-1.35509e-06	-4.34299e-05	-1.09003e-09	-4.34288e-05	3.79212	331128	8.31086	331120
251.044	12.2247	2.12372	12.4078	-9.85529	17.423	3.79222	-0.0099804	298.52	8.7454	1	10	0.00482082	0.000388533	0	-0.000153825	-5.76051e-05	5.70938e-06	62.528	0.0146947	0.0067789	-0.0130377	-9.79064	12.4122	12.2314	2.11068	0.0794054	0.0137946	0.0805947	9.85529	8745.4	50340.8	51094.8	-80.1447	0.0000000E+000	0.0000000E+000	0.0000000E+000	80.1447	0.0000000E+000	0.0000000E+000	0.0000000E+000	-80.1447	0.0000000E+000	0.0000000E+000	0.0000000E+000	-9.85529	0.0000000E+000	0.0000000E+000	0.0000000E+000	9.85529	5.75626	80.1447	-1.39976e-06	-3.78479e-05	5.74922e-10	-3.78484e-05	3.79228	379967	5.77182	379972
63.0823	13.7679	1.35157	13.8341	-5.60664	20.1439	3.79224	-0.00392475	1866.7	17.8176	1	10	0.00482438	0.000348731	0	-0.000160873	3.78851e-05	7.24245e-06	-68.7643	0.020768	0.00752229	0.0193578	-5.68334	13.8435	13.7754	1.37093	0.0719394	0.00706214	0.0722852	5.60664	17817.6	181501	182374	-84.3934	0.0000000E+000	0.0000000E+000	0.0000000E+000	84.3934	0.0000000E+000	0.0000000E+000	0.0000000E+000	-84.3934	0.0000000E+000	0.0000000E+000	0.0000000E+000	-5.60664	0.0000000E+000	0.0000000E+000	0.0000000E+000	5.60664	10.1866	84.3934	-3.89012e-07	-1.48836e-05	-1.48689e-10	-1.48834e-05	3.7922	966239	9.65287	966229
[...]
0.0602816	16.0233	1.23456	16.0708	-4.40582	240.765	3.79231	-0.00536938	2.13857e+06	12620.4	1	11	0.00502477	0.000312666	0	-0.00204588	0.000228865	6.65761e-07	23.3143	0.00212931	0.00195545	-0.000842726	-4.40229	16.0726	16.0252	1.23372	0.0620409	0.00478013	0.0622248	4.40582	1.26205e+07	1.638e+08	1.64285e+08	-85.5942	0.0000000E+000	0.0000000E+000	0.0000000E+000	85.5942	0.0000000E+000	0.0000000E+000	0.0000000E+000	-85.5942	0.0000000E+000	0.0000000E+000	0.0000000E+000	-4.40582	0.0000000E+000	0.0000000E+000	0.0000000E+000	4.40582	12.9789	85.5942	0.000000000000000E+000	-2.03624e-05	-1.22887e-09	-2.03612e-05	3.79208	706284	42.6242	706242
0.00796479	19.8177	2.80075	20.0147	-8.04407	20329.7	3.79232	0.00181437	7.13464e+06	139709	1	11	0.00501885	0.000250759	0	0.00846109	0.000343454	2.51552e-07	-43.7168	0.00100316	0.00072505	0.000693279	-8.04574	20.0155	19.8185	2.80144	0.0494718	0.00699161	0.0499634	8.04407	1.39709e+08	9.88561e+08	9.98384e+08	-81.9559	0.0000000E+000	0.0000000E+000	0.0000000E+000	81.9559	0.0000000E+000	0.0000000E+000	0.0000000E+000	-81.9559	0.0000000E+000	0.0000000E+000	0.0000000E+000	-8.04407	0.0000000E+000	0.0000000E+000	0.0000000E+000	8.04407	7.07588	81.9559	0.010507	6.88066e-06	6.23151e-10	6.88004e-06	3.79198	2.09016e+06	189.297	2.08997e+06
0.0019912	21.9707	3.72439	22.2841	-9.62111	20329.7	3.79232	0.00181437	2.1461e+07	599474	1	11	0.00503261	0.000225839	0	0.00846109	0.000343454	8.9665e-07	-88.6404	0.00397031	9.42062e-05	0.0039692	-9.63113	22.2849	21.9708	3.72836	0.0442438	0.00750005	0.044875	9.62111	5.99474e+08	3.53638e+09	3.58683e+09	-80.3789	0.0000000E+000	0.0000000E+000	0.0000000E+000	80.3789	0.0000000E+000	0.0000000E+000	0.0000000E+000	-80.3789	0.0000000E+000	0.0000000E+000	0.0000000E+000	-9.62111	0.0000000E+000	0.0000000E+000	0.0000000E+000	9.62111	5.89914	80.3789	0.000000000000000E+000	6.88066e-06	6.23151e-10	6.88004e-06	3.79198	2.09016e+06	189.297	2.08997e+06
0.000497799	23.0835	8.95917	24.7612	-21.2122	20329.7	3.79232	0.00181437	3.5686e+07	4.67188e+06	1	11	0.00503167	0.000203208	0	0.00846109	0.000343454	2.73987e-06	29.7695	0.0134831	0.0117037	-0.0066945	-21.188	24.7696	23.0952	8.95247	0.0376496	0.0146126	0.0403858	21.2122	4.67188e+09	1.20372e+10	1.2912e+10	-68.7878	0.0000000E+000	0.0000000E+000	0.0000000E+000	68.7878	0.0000000E+000	0.0000000E+000	0.0000000E+000	-68.7878	0.0000000E+000	0.0000000E+000	0.0000000E+000	-21.2122	0.0000000E+000	0.0000000E+000	0.0000000E+000	21.2122	2.57652	68.7878	0.000000000000000E+000	6.88066e-06	6.23151e-10	6.88004e-06	3.79198	2.09016e+06	189.297	2.08997e+06
9.95598e-05	26.361	40.4596	48.2896	-56.9142	20329.7	3.79232	0.00181437	3.95107e+07	2.77365e+07	1	11	0.00503436	0.000104254	0	0.00846109	0.000343454	5.41732e-06	-84.8387	0.0519629	0.0046746	0.0517522	-56.943	48.3355	26.3657	40.5113	0.0113046	0.0173506	0.0207084	56.9142	2.77365e+10	1.80714e+10	3.31042e+10	-33.0858	0.0000000E+000	0.0000000E+000	0.0000000E+000	33.0858	0.0000000E+000	0.0000000E+000	0.0000000E+000	-33.0858	0.0000000E+000	0.0000000E+000	0.0000000E+000	-56.9142	0.0000000E+000	0.0000000E+000	0.0000000E+000	56.9142	0.651539	33.0858	0.000000000000000E+000	6.88066e-06	6.23151e-10	6.88004e-06	3.79198	2.09016e+06	189.297	2.08997e+06