Folder: EIS/txt (part 13)

File: 17382_C01.mpt
EC-Lab ASCII FILE
Nb header lines : 64

Potentio Electrochemical Impedance Spectroscopy

Run on channel : 1 (SN 66354)
User :
CE vs. WE compliance from -10 V to 10 V
Electrode connection : standard
Potential control : Ewe
Ewe ctrl range : min = -10.00 V, max = 10.00 V
Safety Limits :
	Do not start on E overload
Acquisition started on : 09/10/2025 16:53:05.256
Technique started on : 09/10/2025 16:53:07.281
Loaded Setting File :  C:\Users\Celltest\OneDrive - store-dot.com\Documents\EC-Lab\Data\Gyutae\EIS_SOC0_C01.mpr
Saved on :
	File : 17382_C01.mpr
	Directory : C:\Users\Celltest\OneDrive - store-dot.com\Documents\EC-Lab\Data\Charmaine\R279\
	Host : 169.254.61.224
Device : VMP-3e (SN .003165)
Address : USB
EC-LAB for windows v11.62 (software)
Internet server v27.00 (firmware)
Command interpretor v12.03 (firmware)
Electrode material :
Initial state :
Electrolyte :
Comments :
Electrode surface area : 0.001 cm²
Characteristic mass : 0.001 g
Equivalent Weight : 0.000 g/eq.
Density : 0.000 g/cm3
Volume (V) : 0.001 cm³
Cycle Definition : Charge/Discharge alternance
Mode                Single sine
E (V)               0.0000
vs.                 Eoc
tE (h:m:s)          0:00:0.0000
record              0
dI                  0.000
unit dI             mA
dt (s)              0.000
fi                  100.000
unit fi             kHz
ff                  10.000
unit ff             mHz
Nd                  6
Points              per decade
spacing             Logarithmic
Va (mV)             5.0
pw                  0.10
Na                  2
corr                0
E range min (V)     -10.000
E range max (V)     10.000
I Range             Auto
Bandwidth           5
nc cycles           0
goto Ns'            0
nr cycles           0
inc. cycle          0

freq/Hz	Re(Z)/Ohm	-Im(Z)/Ohm	|Z|/Ohm	Phase(Z)/deg	time/s	<Ewe>/V	<I>/mA	Cs/µF	Cp/µF	cycle number	I Range	|Ewe|/V	|I|/A	Ns	(Q-Qo)/mA.h	Re(Y)/Ohm-1	Im(Y)/Ohm-1	|Y|/Ohm-1	Phase(Y)/deg	Re(C)/nF	Im(C)/nF	|C|/nF	Phase(C)/deg	Re(M)	Im(M)	|M|	Phase(M)/deg	Re(Permittivity)	Im(Permittivity)	|Permittivity|	Phase(Permittivity)/deg	Re(Resistivity)/Ohm.cm	Im(Resistivity)/Ohm.cm	|Resistivity|/Ohm.cm	Phase(Resistivity)/deg	Re(Conductivity)/mS/cm	Im(Conductivity)/mS/cm	|Conductivity|/mS/cm	Phase(Conductivity)/deg	Tan(Delta)	Loss Angle(Delta)/deg	dq/mA.h	Pwe/W	Rwe/Ohm
100004	3.18477	1.20206	3.40407	-20.6785	2.02548	0.181504	-0.0242535	1.32397	0.165094	1	10	0.00496401	0.00145826	0	-6.95463e-06	0.27484	0.103736	0.293766	20.6785	165.094	437.406	467.526	-69.3215	0.0000000E+000	0.0000000E+000	0.0000000E+000	69.3215	0.0000000E+000	0.0000000E+000	0.0000000E+000	-69.3215	0.0000000E+000	0.0000000E+000	0.0000000E+000	-20.6785	0.0000000E+000	0.0000000E+000	0.0000000E+000	20.6785	2.64943	69.3215	-6.95463e-06	-4.4021e-06	7483.62
46420.4	3.78731	1.37167	4.02805	-19.9091	2.90048	0.18151	-0.0210893	2.49956	0.289848	1	10	0.00540416	0.00134163	0	-9.90369e-06	0.233422	0.0845393	0.248259	19.9091	289.848	800.3	851.171	-70.0909	0.0000000E+000	0.0000000E+000	0.0000000E+000	70.0909	0.0000000E+000	0.0000000E+000	0.0000000E+000	-70.0909	0.0000000E+000	0.0000000E+000	0.0000000E+000	-19.9091	0.0000000E+000	0.0000000E+000	0.0000000E+000	19.9091	2.7611	70.0909	-2.97369e-06	-3.82792e-06	8606.73
21544.7	4.4482	1.58562	4.72236	-19.6193	3.7755	0.181506	-0.0234298	4.65886	0.525244	1	10	0.00520346	0.00110188	0	-1.45722e-05	0.199465	0.0711019	0.211758	19.6193	525.245	1473.49	1564.3	-70.3807	0.0000000E+000	0.0000000E+000	0.0000000E+000	70.3807	0.0000000E+000	0.0000000E+000	0.0000000E+000	-70.3807	0.0000000E+000	0.0000000E+000	0.0000000E+000	-19.6193	0.0000000E+000	0.0000000E+000	0.0000000E+000	19.6193	2.80533	70.3807	-2.0106e-06	-4.25266e-06	7746.79
10002.2	5.18764	1.89084	5.5215	-20.0262	4.64948	0.181516	-0.0207129	8.41528	0.98688	1	10	0.00506564	0.000917439	0	-2.03362e-05	0.17016	0.0620213	0.18111	20.0262	986.88	2707.57	2881.82	-69.9738	0.0000000E+000	0.0000000E+000	0.0000000E+000	69.9738	0.0000000E+000	0.0000000E+000	0.0000000E+000	-69.9738	0.0000000E+000	0.0000000E+000	0.0000000E+000	-20.0262	0.0000000E+000	0.0000000E+000	0.0000000E+000	20.0262	2.74357	69.9738	-2.21002e-06	-3.75972e-06	8763.42
4641.49	6.0683	2.36058	6.51127	-21.2561	5.49871	0.181584	0.00666892	14.5259	1.9092	1	10	0.00512509	0.000787111	0	-1.85274e-05	0.143132	0.0556785	0.15358	21.2561	1909.2	4907.94	5266.2	-68.7439	0.0000000E+000	0.0000000E+000	0.0000000E+000	68.7439	0.0000000E+000	0.0000000E+000	0.0000000E+000	-68.7439	0.0000000E+000	0.0000000E+000	0.0000000E+000	-21.2561	0.0000000E+000	0.0000000E+000	0.0000000E+000	21.2561	2.57068	68.7439	1.38451e-06	1.21097e-06	27228.4
2155.69	7.15545	3.10174	7.7988	-23.4358	6.4327	0.181588	0.00692793	23.8028	3.76517	1	10	0.00503245	0.000645285	0	-1.68357e-05	0.117647	0.0509977	0.128225	23.4358	3765.17	8685.91	9466.87	-66.5642	0.0000000E+000	0.0000000E+000	0.0000000E+000	66.5642	0.0000000E+000	0.0000000E+000	0.0000000E+000	-66.5642	0.0000000E+000	0.0000000E+000	0.0000000E+000	-23.4358	0.0000000E+000	0.0000000E+000	0.0000000E+000	23.4358	2.30691	66.5642	1.3959e-06	1.25803e-06	26211
1000.32	8.64375	4.26984	9.64085	-26.2885	7.36867	0.181582	0.00694097	37.2622	7.30908	1	10	0.00497641	0.000516179	0	-1.5371e-05	0.0929976	0.045939	0.103725	26.2885	7309.08	14796.3	16503.1	-63.7115	0.0000000E+000	0.0000000E+000	0.0000000E+000	63.7115	0.0000000E+000	0.0000000E+000	0.0000000E+000	-63.7115	0.0000000E+000	0.0000000E+000	0.0000000E+000	-26.2885	0.0000000E+000	0.0000000E+000	0.0000000E+000	26.2885	2.02437	63.7115	5.12334e-07	1.26035e-06	26160.8
463.961	10.8629	5.9601	12.3905	-28.7521	8.30221	0.181585	0.00712359	57.5553	13.3172	1	10	0.00494778	0.000399319	0	-1.38031e-05	0.0707564	0.0388216	0.0807068	28.7521	13317.2	24272	27685.3	-61.2479	0.0000000E+000	0.0000000E+000	0.0000000E+000	61.2479	0.0000000E+000	0.0000000E+000	0.0000000E+000	-61.2479	0.0000000E+000	0.0000000E+000	0.0000000E+000	-28.7521	0.0000000E+000	0.0000000E+000	0.0000000E+000	28.7521	1.8226	61.2479	1.00011e-06	1.29354e-06	25490.7
215.345	14.4004	7.8762	16.4136	-28.6762	9.23644	0.181576	0.00671921	93.836	21.6072	1	10	0.00493368	0.000300586	0	-1.24638e-05	0.0534525	0.0292356	0.0609253	28.6762	21607.2	39505.2	45028.1	-61.3238	0.0000000E+000	0.0000000E+000	0.0000000E+000	61.3238	0.0000000E+000	0.0000000E+000	0.0000000E+000	-61.3238	0.0000000E+000	0.0000000E+000	0.0000000E+000	-28.6762	0.0000000E+000	0.0000000E+000	0.0000000E+000	28.6762	1.82834	61.3238	5.9206e-07	1.22005e-06	27023.4
100.032	19.4842	9.05798	21.4867	-24.9332	10.1677	0.181579	0.00629061	175.651	31.2156	1	10	0.00493376	0.000229619	0	-1.06597e-05	0.0422028	0.0196196	0.0465403	24.9332	31215.6	67146.3	74047.5	-65.0668	0.0000000E+000	0.0000000E+000	0.0000000E+000	65.0668	0.0000000E+000	0.0000000E+000	0.0000000E+000	-65.0668	0.0000000E+000	0.0000000E+000	0.0000000E+000	-24.9332	0.0000000E+000	0.0000000E+000	0.0000000E+000	24.9332	2.15105	65.0668	9.76273e-07	1.14224e-06	28865
[...]
1.00006	33.6862	2.19046	33.7573	-3.72045	20.1222	0.181615	-0.00144108	72653.7	305.909	1	12	0.0049355	0.000146205	0	-1.99756e-05	0.0295608	0.0019222	0.0296232	3.72045	305909	4.70445e+06	4.71438e+06	-86.2796	0.0000000E+000	0.0000000E+000	0.0000000E+000	86.2796	0.0000000E+000	0.0000000E+000	0.0000000E+000	-86.2796	0.0000000E+000	0.0000000E+000	0.0000000E+000	-3.72045	0.0000000E+000	0.0000000E+000	0.0000000E+000	3.72045	15.3786	86.2796	-5.88383e-06	-2.61723e-07	126027
0.464091	34.834	2.73942	34.9415	-4.49661	27.8069	0.181619	-0.00193084	125187	769.47	1	12	0.00493691	0.00014129	0	-2.47927e-05	0.0285311	0.00224375	0.0286192	4.49661	769470	9.78445e+06	9.81466e+06	-85.5034	0.0000000E+000	0.0000000E+000	0.0000000E+000	85.5034	0.0000000E+000	0.0000000E+000	0.0000000E+000	-85.5034	0.0000000E+000	0.0000000E+000	0.0000000E+000	-4.49661	0.0000000E+000	0.0000000E+000	0.0000000E+000	4.49661	12.7158	85.5034	1.34736e-07	-3.50677e-07	94062.4
0.215268	36.2652	3.28771	36.4139	-5.18012	44.2868	0.181617	-0.00169029	224879	1833.16	1	12	0.00493534	0.000135534	0	-3.84455e-06	0.0273499	0.00247947	0.027462	5.18012	1.83316e+06	2.02207e+07	2.03036e+07	-84.8199	0.0000000E+000	0.0000000E+000	0.0000000E+000	84.8199	0.0000000E+000	0.0000000E+000	0.0000000E+000	-84.8199	0.0000000E+000	0.0000000E+000	0.0000000E+000	-5.18012	0.0000000E+000	0.0000000E+000	0.0000000E+000	5.18012	11.0305	84.8199	1.33267e-05	-3.06985e-07	107447
0.0999041	37.9012	4.25901	38.1397	-6.41152	79.6923	0.181615	-4.58416e-05	374048	4664.34	1	12	0.00493742	0.000129456	0	9.27185e-06	0.0260554	0.00292788	0.0262194	6.41152	4.66434e+06	4.15082e+07	4.17695e+07	-83.5885	0.0000000E+000	0.0000000E+000	0.0000000E+000	83.5885	0.0000000E+000	0.0000000E+000	0.0000000E+000	-83.5885	0.0000000E+000	0.0000000E+000	0.0000000E+000	-6.41152	0.0000000E+000	0.0000000E+000	0.0000000E+000	6.41152	8.89905	83.5885	4.80706e-07	-8.32552e-09	3.9618e+06
0.0464052	39.5128	6.49547	40.0431	-9.33531	155.929	0.181616	0.000127041	528011	13893.4	1	12	0.00493217	0.000123172	0	-8.10228e-05	0.0246424	0.00405094	0.0249731	9.33531	1.38934e+07	8.45154e+07	8.56497e+07	-80.6647	0.0000000E+000	0.0000000E+000	0.0000000E+000	80.6647	0.0000000E+000	0.0000000E+000	0.0000000E+000	-80.6647	0.0000000E+000	0.0000000E+000	0.0000000E+000	-9.33531	0.0000000E+000	0.0000000E+000	0.0000000E+000	9.33531	6.08313	80.6647	-6.82496e-05	2.30727e-08	1.42959e+06
0.0215268	42.3901	11.1202	43.8244	-14.6992	320.159	0.181615	-0.00101427	664858	42807.5	1	12	0.00493601	0.000112631	0	-0.000298503	0.0220715	0.00579	0.0228183	14.6992	4.28075e+07	1.63182e+08	1.68704e+08	-75.3008	0.0000000E+000	0.0000000E+000	0.0000000E+000	75.3008	0.0000000E+000	0.0000000E+000	0.0000000E+000	-75.3008	0.0000000E+000	0.0000000E+000	0.0000000E+000	-14.6992	0.0000000E+000	0.0000000E+000	0.0000000E+000	14.6992	3.812	75.3008	-0.000107037	-1.84207e-07	179059
0.0100092	46.3684	19.6422	50.3572	-22.9581	673.375	0.181609	-0.000804229	809528	123166	1	12	0.00493618	9.80233e-05	0	-0.000146924	0.0182852	0.00774581	0.0198581	22.9581	1.23166e+08	2.90751e+08	3.15762e+08	-67.0419	0.0000000E+000	0.0000000E+000	0.0000000E+000	67.0419	0.0000000E+000	0.0000000E+000	0.0000000E+000	-67.0419	0.0000000E+000	0.0000000E+000	0.0000000E+000	-22.9581	0.0000000E+000	0.0000000E+000	0.0000000E+000	22.9581	2.36065	67.0419	0.000165904	-1.46055e-07	225818

File: 17383_C02.mpt
EC-Lab ASCII FILE
Nb header lines : 64

Potentio Electrochemical Impedance Spectroscopy

Run on channel : 2 (SN 66139)
User :
CE vs. WE compliance from -10 V to 10 V
Electrode connection : standard
Potential control : Ewe
Ewe ctrl range : min = -10.00 V, max = 10.00 V
Safety Limits :
	Do not start on E overload
Acquisition started on : 09/10/2025 16:53:18.999
Technique started on : 09/10/2025 16:53:20.863
Loaded Setting File :  C:\Users\Celltest\OneDrive - store-dot.com\Documents\EC-Lab\Data\Charmaine\R279\17382_C01.mpr
Saved on :
	File : 17383_C02.mpr
	Directory : C:\Users\Celltest\OneDrive - store-dot.com\Documents\EC-Lab\Data\Charmaine\R279\
	Host : 169.254.61.224
Device : VMP-3e (SN .003165)
Address : USB
EC-LAB for windows v11.62 (software)
Internet server v27.00 (firmware)
Command interpretor v12.03 (firmware)
Electrode material :
Initial state :
Electrolyte :
Comments :
Electrode surface area : 0.001 cm²
Characteristic mass : 0.001 g
Equivalent Weight : 0.000 g/eq.
Density : 0.000 g/cm3
Volume (V) : 0.001 cm³
Cycle Definition : Charge/Discharge alternance
Mode                Single sine
E (V)               0.0000
vs.                 Eoc
tE (h:m:s)          0:00:0.0000
record              0
dI                  0.000
unit dI             mA
dt (s)              0.000
fi                  100.000
unit fi             kHz
ff                  10.000
unit ff             mHz
Nd                  6
Points              per decade
spacing             Logarithmic
Va (mV)             5.0
pw                  0.10
Na                  2
corr                0
E range min (V)     -10.000
E range max (V)     10.000
I Range             Auto
Bandwidth           5
nc cycles           0
goto Ns'            0
nr cycles           0
inc. cycle          0

freq/Hz	Re(Z)/Ohm	-Im(Z)/Ohm	|Z|/Ohm	Phase(Z)/deg	time/s	<Ewe>/V	<I>/mA	Cs/µF	Cp/µF	cycle number	I Range	|Ewe|/V	|I|/A	Ns	(Q-Qo)/mA.h	Re(Y)/Ohm-1	Im(Y)/Ohm-1	|Y|/Ohm-1	Phase(Y)/deg	Re(C)/nF	Im(C)/nF	|C|/nF	Phase(C)/deg	Re(M)	Im(M)	|M|	Phase(M)/deg	Re(Permittivity)	Im(Permittivity)	|Permittivity|	Phase(Permittivity)/deg	Re(Resistivity)/Ohm.cm	Im(Resistivity)/Ohm.cm	|Resistivity|/Ohm.cm	Phase(Resistivity)/deg	Re(Conductivity)/mS/cm	Im(Conductivity)/mS/cm	|Conductivity|/mS/cm	Phase(Conductivity)/deg	Tan(Delta)	Loss Angle(Delta)/deg	dq/mA.h	Pwe/W	Rwe/Ohm
100004	2.65805	0.992876	2.83744	-20.4824	1.86448	0.186171	-0.0321037	1.60291	0.196267	1	9	0.00459029	0.00161776	0	-7.01646e-06	0.33015	0.123323	0.352431	20.4824	196.267	525.431	560.89	-69.5176	0.0000000E+000	0.0000000E+000	0.0000000E+000	69.5176	0.0000000E+000	0.0000000E+000	0.0000000E+000	-69.5176	0.0000000E+000	0.0000000E+000	0.0000000E+000	-20.4824	0.0000000E+000	0.0000000E+000	0.0000000E+000	20.4824	2.67712	69.5176	-7.01646e-06	-5.97678e-06	5799.05
46420.4	3.15012	1.13967	3.34994	-19.8894	3.02049	0.186176	-0.0292544	3.00838	0.34819	1	9	0.00502568	0.00150023	0	-1.75285e-05	0.280707	0.101556	0.298513	19.8894	348.19	962.42	1023.47	-70.1106	0.0000000E+000	0.0000000E+000	0.0000000E+000	70.1106	0.0000000E+000	0.0000000E+000	0.0000000E+000	-70.1106	0.0000000E+000	0.0000000E+000	0.0000000E+000	-19.8894	0.0000000E+000	0.0000000E+000	0.0000000E+000	19.8894	2.76407	70.1106	-5.59489e-06	-5.44645e-06	6364.02
21544.7	3.68908	1.3623	3.93258	-20.2681	3.75348	0.186173	-0.0327555	5.42259	0.650726	1	9	0.00540745	0.00137504	0	-2.21016e-05	0.238541	0.0880883	0.254286	20.2681	650.726	1762.15	1878.46	-69.7319	0.0000000E+000	0.0000000E+000	0.0000000E+000	69.7319	0.0000000E+000	0.0000000E+000	0.0000000E+000	-69.7319	0.0000000E+000	0.0000000E+000	0.0000000E+000	-20.2681	0.0000000E+000	0.0000000E+000	0.0000000E+000	20.2681	2.70798	69.7319	-2.3495e-06	-6.0982e-06	5683.72
10002.2	4.32204	1.69685	4.6432	-21.4351	4.5175	0.186231	-0.0313847	9.37736	1.25237	1	10	0.00478878	0.00103135	0	-2.80749e-05	0.200472	0.078706	0.215369	21.4351	1252.37	3189.9	3426.94	-68.5649	0.0000000E+000	0.0000000E+000	0.0000000E+000	68.5649	0.0000000E+000	0.0000000E+000	0.0000000E+000	-68.5649	0.0000000E+000	0.0000000E+000	0.0000000E+000	-21.4351	0.0000000E+000	0.0000000E+000	0.0000000E+000	21.4351	2.5471	68.5649	-3.21515e-06	-5.84482e-06	5933.82
4641.49	5.11852	2.23008	5.58324	-23.5422	5.36771	0.186268	-0.00955121	15.3759	2.45308	1	10	0.00505836	0.00090599	0	-3.17044e-05	0.1642	0.07154	0.179108	23.5422	2453.08	5630.35	6141.54	-66.4578	0.0000000E+000	0.0000000E+000	0.0000000E+000	66.4578	0.0000000E+000	0.0000000E+000	0.0000000E+000	-66.4578	0.0000000E+000	0.0000000E+000	0.0000000E+000	-23.5422	0.0000000E+000	0.0000000E+000	0.0000000E+000	23.5422	2.29521	66.4578	-9.73108e-07	-1.77909e-06	19502
2155.69	6.16906	3.04742	6.8807	-26.2887	6.30169	0.18627	-0.00924761	24.2271	4.75227	1	10	0.00495291	0.000719826	0	-3.40626e-05	0.130303	0.0643676	0.145334	26.2887	4752.27	9620.27	10730	-63.7113	0.0000000E+000	0.0000000E+000	0.0000000E+000	63.7113	0.0000000E+000	0.0000000E+000	0.0000000E+000	-63.7113	0.0000000E+000	0.0000000E+000	0.0000000E+000	-26.2887	0.0000000E+000	0.0000000E+000	0.0000000E+000	26.2887	2.02435	63.7113	-5.8744e-07	-1.72256e-06	20142.5
1000.32	7.60516	4.30923	8.74116	-29.5368	7.23768	0.186263	-0.0096369	36.9217	8.97311	1	10	0.00485348	0.000555244	0	-3.65828e-05	0.0995337	0.0563978	0.114401	29.5368	8973.11	15836.2	18201.7	-60.4632	0.0000000E+000	0.0000000E+000	0.0000000E+000	60.4632	0.0000000E+000	0.0000000E+000	0.0000000E+000	-60.4632	0.0000000E+000	0.0000000E+000	0.0000000E+000	-29.5368	0.0000000E+000	0.0000000E+000	0.0000000E+000	29.5368	1.76485	60.4632	-1.17325e-06	-1.795e-06	19328.2
463.961	9.83913	6.16511	11.6111	-32.0709	8.17219	0.186262	-0.00895705	55.6414	15.6868	1	10	0.00480831	0.000414114	0	-3.90354e-05	0.0729814	0.0457295	0.0861247	32.0709	15686.8	25035.2	29543.8	-57.9291	0.0000000E+000	0.0000000E+000	0.0000000E+000	57.9291	0.0000000E+000	0.0000000E+000	0.0000000E+000	-57.9291	0.0000000E+000	0.0000000E+000	0.0000000E+000	-32.0709	0.0000000E+000	0.0000000E+000	0.0000000E+000	32.0709	1.59594	57.9291	-9.69612e-07	-1.66836e-06	20795
215.345	13.4938	8.3487	15.8677	-31.7453	9.10642	0.186259	-0.00895519	88.5253	24.5062	1	10	0.00479579	0.000302236	0	-4.125e-05	0.0535928	0.0331581	0.063021	31.7453	24506.2	39608.9	46577	-58.2547	0.0000000E+000	0.0000000E+000	0.0000000E+000	58.2547	0.0000000E+000	0.0000000E+000	0.0000000E+000	-58.2547	0.0000000E+000	0.0000000E+000	0.0000000E+000	-31.7453	0.0000000E+000	0.0000000E+000	0.0000000E+000	31.7453	1.61628	58.2547	-1.26074e-06	-1.66798e-06	20798.9
100.032	18.8729	9.92814	21.3249	-27.7468	10.0377	0.186267	-0.00830887	160.256	34.7355	1	10	0.00478848	0.000224549	0	-4.35616e-05	0.0415014	0.021832	0.0468935	27.7468	34735.5	66030.3	74609.4	-62.2532	0.0000000E+000	0.0000000E+000	0.0000000E+000	62.2532	0.0000000E+000	0.0000000E+000	0.0000000E+000	-62.2532	0.0000000E+000	0.0000000E+000	0.0000000E+000	-27.7468	0.0000000E+000	0.0000000E+000	0.0000000E+000	27.7468	1.90095	62.2532	-1.09695e-06	-1.54767e-06	22417.9
[...]
1.00006	35.1866	2.51613	35.2764	-4.09015	19.9932	0.186302	-0.00687058	63249.9	321.777	1	12	0.00478602	0.000135672	0	-7.08461e-05	0.0282753	0.00202192	0.0283475	4.09015	321777	4.49987e+06	4.51136e+06	-85.9099	0.0000000E+000	0.0000000E+000	0.0000000E+000	85.9099	0.0000000E+000	0.0000000E+000	0.0000000E+000	-85.9099	0.0000000E+000	0.0000000E+000	0.0000000E+000	-4.09015	0.0000000E+000	0.0000000E+000	0.0000000E+000	4.09015	13.9844	85.9099	-6.92216e-06	-1.28e-06	27115.9
0.464091	36.4271	3.08651	36.5576	-4.84316	27.6779	0.186307	-0.00645737	111109	792.006	1	12	0.00478783	0.000130967	0	-7.66797e-05	0.0272564	0.00230946	0.0273541	4.84316	792006	9.3473e+06	9.38079e+06	-85.1568	0.0000000E+000	0.0000000E+000	0.0000000E+000	85.1568	0.0000000E+000	0.0000000E+000	0.0000000E+000	-85.1568	0.0000000E+000	0.0000000E+000	0.0000000E+000	-4.84316	0.0000000E+000	0.0000000E+000	0.0000000E+000	4.84316	11.802	85.1568	-9.44586e-07	-1.20305e-06	28851.8
0.215268	38.1034	3.53626	38.2672	-5.30226	44.158	0.1863	-0.00465475	209072	1785.39	1	12	0.00478951	0.00012516	0	-7.81814e-05	0.0260202	0.00241486	0.0261321	5.30226	1.78539e+06	1.92377e+07	1.93203e+07	-84.6977	0.0000000E+000	0.0000000E+000	0.0000000E+000	84.6977	0.0000000E+000	0.0000000E+000	0.0000000E+000	-84.6977	0.0000000E+000	0.0000000E+000	0.0000000E+000	-5.30226	0.0000000E+000	0.0000000E+000	0.0000000E+000	5.30226	10.7751	84.6977	-2.58863e-06	-8.67179e-07	40023.5
0.0999041	39.6877	4.32408	39.9226	-6.218	79.5645	0.186298	-0.00226894	368420	4322.09	1	12	0.00478951	0.00011997	0	-0.000127768	0.0249011	0.00271304	0.0250485	6.218	4.32209e+06	3.96694e+07	3.99042e+07	-83.782	0.0000000E+000	0.0000000E+000	0.0000000E+000	83.782	0.0000000E+000	0.0000000E+000	0.0000000E+000	-83.782	0.0000000E+000	0.0000000E+000	0.0000000E+000	-6.218	0.0000000E+000	0.0000000E+000	0.0000000E+000	6.218	9.17829	83.782	-3.52944e-05	-4.227e-07	82108.2
0.0464052	41.2774	6.17989	41.7374	-8.51486	155.801	0.186293	-0.00201614	554974	12167	1	12	0.00478654	0.000114682	0	-0.000278871	0.0236952	0.00354756	0.0239593	8.51486	1.2167e+07	8.1267e+07	8.21728e+07	-81.4851	0.0000000E+000	0.0000000E+000	0.0000000E+000	81.4851	0.0000000E+000	0.0000000E+000	0.0000000E+000	-81.4851	0.0000000E+000	0.0000000E+000	0.0000000E+000	-8.51486	0.0000000E+000	0.0000000E+000	0.0000000E+000	8.51486	6.67931	81.4851	-9.14308e-05	-3.75593e-07	92401
0.0215268	43.6898	10.853	45.0176	-13.9504	320.03	0.186291	-0.00207887	681229	39593.5	1	12	0.00478855	0.000106371	0	-0.000412179	0.0215583	0.00535529	0.0222135	13.9504	3.95935e+07	1.59388e+08	1.64232e+08	-76.0496	0.0000000E+000	0.0000000E+000	0.0000000E+000	76.0496	0.0000000E+000	0.0000000E+000	0.0000000E+000	-76.0496	0.0000000E+000	0.0000000E+000	0.0000000E+000	-13.9504	0.0000000E+000	0.0000000E+000	0.0000000E+000	13.9504	4.02562	76.0496	-3.96061e-05	-3.87275e-07	89611.5
0.0100092	47.4435	18.6726	50.9859	-21.4834	673.248	0.186281	-0.00105348	851563	114216	1	12	0.0047873	9.38946e-05	0	-0.000127837	0.0182506	0.007183	0.0196133	21.4834	1.14216e+08	2.90202e+08	3.11869e+08	-68.5166	0.0000000E+000	0.0000000E+000	0.0000000E+000	68.5166	0.0000000E+000	0.0000000E+000	0.0000000E+000	-68.5166	0.0000000E+000	0.0000000E+000	0.0000000E+000	-21.4834	0.0000000E+000	0.0000000E+000	0.0000000E+000	21.4834	2.54081	68.5166	0.000206876	-1.96244e-07	176824