Folder: EIS/txt (part 188)

File: 19495_R316_UA628_SOC00_C05.mpt
EC-Lab ASCII FILE
Nb header lines : 65

Potentio Electrochemical Impedance Spectroscopy

Run on channel : 5 (SN 65912)
User :
CE vs. WE compliance from -10 V to 10 V
Electrode connection : standard
Potential control : Ewe
Ewe ctrl range : min = -10.00 V, max = 10.00 V
Safety Limits :
	Do not start on E overload
Acquisition started on : 12/04/2025 13:09:55.781
Technique started on : 12/04/2025 13:09:57.375
Loaded Setting File :  C:\Users\Celltest\OneDrive - store-dot.com\Documents\EC-Lab\Data\@Biologic Test Protocols\anode half cell EIS SOC00.mps
Saved on :
	File : 19495_R316_UA628_SOC00_C05.mpr
	Directory : C:\Users\Celltest\OneDrive - store-dot.com\Documents\EC-Lab\Data\Charmaine\
	Host : 169.254.61.224
Device : VMP-3e (SN .003165)
Address : USB
EC-LAB for windows v11.62 (software)
Internet server v27.00 (firmware)
Command interpretor v12.03 (firmware)
Electrode material :
Initial state :
Electrolyte :
Comments :
Electrode surface area : 0.001 cm²
Characteristic mass : 0.001 g
Equivalent Weight : 0.000 g/eq.
Density : 0.000 g/cm3
Volume (V) : 0.001 cm³
Record Ece
Cycle Definition : Charge/Discharge alternance
Mode                Single sine
E (V)               0.0000
vs.                 Eoc
tE (h:m:s)          0:00:0.0000
record              0
dI                  0.000
unit dI             mA
dt (s)              0.000
fi                  100.000
unit fi             kHz
ff                  10.000
unit ff             mHz
Nd                  6
Points              per decade
spacing             Logarithmic
Va (mV)             5.0
pw                  0.10
Na                  2
corr                0
E range min (V)     -10.000
E range max (V)     10.000
I Range             Auto
Bandwidth           5
nc cycles           0
goto Ns'            0
nr cycles           0
inc. cycle          0

freq/Hz	Re(Z)/Ohm	-Im(Z)/Ohm	|Z|/Ohm	Phase(Z)/deg	time/s	<Ewe>/V	<I>/mA	Cs/µF	Cp/µF	cycle number	I Range	|Ewe|/V	|I|/A	Ns	(Q-Qo)/mA.h	<Ece>/V	|Ece|/V	Phase(Zce)/deg	|Zce|/Ohm	Re(Zce)/Ohm	-Im(Zce)/Ohm	Phase(Zwe-ce)/deg	|Zwe-ce|/Ohm	Re(Zwe-ce)/Ohm	-Im(Zwe-ce)/Ohm	Re(Y)/Ohm-1	Im(Y)/Ohm-1	|Y|/Ohm-1	Phase(Y)/deg	Re(C)/nF	Im(C)/nF	|C|/nF	Phase(C)/deg	Re(M)	Im(M)	|M|	Phase(M)/deg	Re(Permittivity)	Im(Permittivity)	|Permittivity|	Phase(Permittivity)/deg	Re(Resistivity)/Ohm.cm	Im(Resistivity)/Ohm.cm	|Resistivity|/Ohm.cm	Phase(Resistivity)/deg	Re(Conductivity)/mS/cm	Im(Conductivity)/mS/cm	|Conductivity|/mS/cm	Phase(Conductivity)/deg	Tan(Delta)	Loss Angle(Delta)/deg	dq/mA.h	Pwe/W	Pce/W	Pwe-ce/W	<Ewe-Ece>/V	Rwe/Ohm	Rce/Ohm	Rwe-ce/Ohm		Ewe-Ece/V
100004	1.22647	-0.0355673	1.22698	1.6611	1.59352	0.217158	0.00448445	-44.7459	-0.037599	1	9	0.000921642	0.000751144	0	-2.57969e-06	-9.38465e-06	1.8265e-05	60.6154	0.0243163	0.0119313	-0.0211879	2.624	1.2397	1.2384	-0.0567552	0.814664	-0.0236251	0.815006	-1.6611	-37.5991	1296.53	1297.07	-91.6611	0.0000000E+000	0.0000000E+000	0.0000000E+000	91.6611	0.0000000E+000	0.0000000E+000	0.0000000E+000	-91.6611	0.0000000E+000	0.0000000E+000	0.0000000E+000	1.6611	0.0000000E+000	0.0000000E+000	0.0000000E+000	-1.6611	34.483	88.3389	-2.57969e-06	9.73831e-07	-4.20849e-11	9.73873e-07	0.217167	48424.6	2.09271	48426.7
31621.1	1.3695	0.550909	1.47615	-21.9135	2.99652	0.217082	-0.00795359	9.13614	1.27251	1	9	0.00534433	0.00362045	0	0.000190939	-0.000181206	1.76774e-05	35.7582	0.00488266	0.00396223	-0.00285326	-21.7536	1.47877	1.37346	0.548056	0.628491	0.252823	0.677437	21.9135	1272.51	3163.31	3409.66	-68.0865	0.0000000E+000	0.0000000E+000	0.0000000E+000	68.0865	0.0000000E+000	0.0000000E+000	0.0000000E+000	-68.0865	0.0000000E+000	0.0000000E+000	0.0000000E+000	-21.9135	0.0000000E+000	0.0000000E+000	0.0000000E+000	21.9135	2.48589	68.0865	0.000193378	-1.72658e-06	1.44123e-09	-1.72802e-06	0.217263	27293.5	22.7829	27316.3
10002.2	1.79996	0.745357	1.94818	-22.4943	4.02156	0.217081	-0.00229315	21.3481	3.12486	1	9	0.00480738	0.00246763	0	0.000178541	-2.84759e-05	8.53879e-06	-114.542	0.00346033	-0.00143728	0.00314771	-22.596	1.94806	1.79852	0.748505	0.474247	0.196384	0.5133	22.4943	3124.86	7546.19	8167.61	-67.5057	0.0000000E+000	0.0000000E+000	0.0000000E+000	67.5057	0.0000000E+000	0.0000000E+000	0.0000000E+000	-67.5057	0.0000000E+000	0.0000000E+000	0.0000000E+000	-22.4943	0.0000000E+000	0.0000000E+000	0.0000000E+000	22.4943	2.41489	67.5057	-2.41101e-07	-4.97801e-07	6.52995e-11	-4.97866e-07	0.21711	94665	12.4178	94677.4
3163.08	2.37472	1.10017	2.61719	-24.8576	5.04561	0.216868	-0.0958396	45.735	8.08167	1	9	0.00491283	0.00187714	0	0.000166291	-0.000429391	8.17988e-06	-75.5396	0.00435763	0.00108815	0.00421958	-24.9313	2.61995	2.37581	1.10439	0.346691	0.160617	0.38209	24.8576	8081.67	17444.3	19225.4	-65.1424	0.0000000E+000	0.0000000E+000	0.0000000E+000	65.1424	0.0000000E+000	0.0000000E+000	0.0000000E+000	-65.1424	0.0000000E+000	0.0000000E+000	0.0000000E+000	-24.8576	0.0000000E+000	0.0000000E+000	0.0000000E+000	24.8576	2.1585	65.1424	-9.72608e-06	-2.07845e-05	4.11527e-08	-2.08257e-05	0.217297	2262.82	4.48031	2267.3
1000.32	3.11043	1.77842	3.58295	-29.7592	6.64483	0.217008	-0.0237575	89.4637	22.0411	1	10	0.00489039	0.0013649	0	0.00016419	-0.000219388	8.23628e-06	-20.844	0.00603433	0.0056394	0.00214716	-29.7443	3.58891	3.11607	1.78057	0.242292	0.138533	0.279099	29.7592	22041.1	38549.6	44405.8	-60.2408	0.0000000E+000	0.0000000E+000	0.0000000E+000	60.2408	0.0000000E+000	0.0000000E+000	0.0000000E+000	-60.2408	0.0000000E+000	0.0000000E+000	0.0000000E+000	-29.7592	0.0000000E+000	0.0000000E+000	0.0000000E+000	29.7592	1.74899	60.2408	-7.69185e-07	-5.15556e-06	5.21211e-09	-5.16077e-06	0.217227	9134.29	9.23448	9143.53
316.316	4.36363	3.34259	5.49675	-37.4525	7.99402	0.217006	-0.0244203	150.527	55.6636	1	10	0.00477367	0.000868453	0	0.000155845	0.000143345	1.12689e-05	-13.1912	0.0129758	0.0126335	0.00296111	-37.3971	5.50858	4.37627	3.34555	0.144423	0.11063	0.181926	37.4525	55663.6	72666.8	91536.3	-52.5475	0.0000000E+000	0.0000000E+000	0.0000000E+000	52.5475	0.0000000E+000	0.0000000E+000	0.0000000E+000	-52.5475	0.0000000E+000	0.0000000E+000	0.0000000E+000	-37.4525	0.0000000E+000	0.0000000E+000	0.0000000E+000	37.4525	1.30546	52.5475	-2.3007e-06	-5.29933e-06	-3.50052e-09	-5.29583e-06	0.216862	8886.29	5.86992	8880.42
100.032	7.53631	6.5414	9.97927	-40.9575	9.34082	0.217005	-0.0239884	243.226	104.509	1	10	0.00474963	0.000475949	0	0.000146709	8.60714e-05	9.10208e-06	-98.8951	0.0191241	-0.00295707	0.0188941	-41.0505	9.98944	7.53335	6.5603	0.0756765	0.0656861	0.100208	40.9575	104509	120404	159434	-49.0425	0.0000000E+000	0.0000000E+000	0.0000000E+000	49.0425	0.0000000E+000	0.0000000E+000	0.0000000E+000	-49.0425	0.0000000E+000	0.0000000E+000	0.0000000E+000	-40.9575	0.0000000E+000	0.0000000E+000	0.0000000E+000	40.9575	1.15209	49.0425	-2.23925e-06	-5.20559e-06	-2.06471e-09	-5.20353e-06	0.216919	9046.26	3.58805	9042.67
[...]
1.00006	24.5762	1.52937	24.6237	-3.56091	19.3929	0.217039	-0.00859096	104059	401.418	1	12	0.0047462	0.000192749	0	0.000107094	-4.75671e-05	2.5795e-06	-7.20282	0.0133827	0.0132771	0.00167795	-3.56288	24.6371	24.5895	1.53105	0.0405328	0.00252234	0.0406112	3.56091	401418	6.45058e+06	6.46306e+06	-86.4391	0.0000000E+000	0.0000000E+000	0.0000000E+000	86.4391	0.0000000E+000	0.0000000E+000	0.0000000E+000	-86.4391	0.0000000E+000	0.0000000E+000	0.0000000E+000	-3.56091	0.0000000E+000	0.0000000E+000	0.0000000E+000	3.56091	16.0695	86.4391	-1.41026e-05	-1.86457e-06	4.08647e-10	-1.86498e-06	0.217087	25263.7	5.53688	25269.2
0.316193	25.199	1.55612	25.247	-3.53371	33.7368	0.217043	-0.00793441	323463	1228.83	1	12	0.00474637	0.000187998	0	9.11637e-05	-0.000372118	1.34993e-06	-39.559	0.00718058	0.00553601	0.00457311	-3.5433	25.2528	25.2045	1.56069	0.0395334	0.00244132	0.0396087	3.53371	1.22883e+06	1.9899e+07	1.99369e+07	-86.4663	0.0000000E+000	0.0000000E+000	0.0000000E+000	86.4663	0.0000000E+000	0.0000000E+000	0.0000000E+000	-86.4663	0.0000000E+000	0.0000000E+000	0.0000000E+000	-3.53371	0.0000000E+000	0.0000000E+000	0.0000000E+000	3.53371	16.1935	86.4663	4.16256e-07	-1.72211e-06	2.95254e-09	-1.72506e-06	0.217415	27354.6	46.8992	27401.5
0.0999041	26.1678	2.63424	26.3001	-5.74843	78.9458	0.217042	-0.00357977	604758	6067.06	1	12	0.00474621	0.000180464	0	6.6674e-05	-0.000123932	1.62436e-06	-50.4198	0.00900102	0.00573507	0.00693739	-5.76222	26.3065	26.1735	2.64118	0.0378315	0.00380839	0.0380227	5.74843	6.06706e+06	6.02685e+07	6.05731e+07	-84.2516	0.0000000E+000	0.0000000E+000	0.0000000E+000	84.2516	0.0000000E+000	0.0000000E+000	0.0000000E+000	-84.2516	0.0000000E+000	0.0000000E+000	0.0000000E+000	-5.74843	0.0000000E+000	0.0000000E+000	0.0000000E+000	5.74843	9.93373	84.2516	-2.72331e-05	-7.76962e-07	4.43648e-10	-7.77406e-07	0.217166	60630.2	34.6201	60664.8
0.0315922	28.1324	5.27658	28.6229	-10.6231	221.829	0.217043	-0.00210935	954746	32446.3	1	12	0.00474908	0.000165919	0	-0.000307187	0.000296075	2.42244e-06	20.3467	0.0146001	0.0136891	-0.00507647	-10.6081	28.6354	28.146	5.2715	0.0343383	0.00644058	0.034937	10.6231	3.24463e+07	1.72989e+08	1.76006e+08	-79.3769	0.0000000E+000	0.0000000E+000	0.0000000E+000	79.3769	0.0000000E+000	0.0000000E+000	0.0000000E+000	-79.3769	0.0000000E+000	0.0000000E+000	0.0000000E+000	-10.6231	0.0000000E+000	0.0000000E+000	0.0000000E+000	10.6231	5.33155	79.3769	-0.000173959	-4.5782e-07	-6.24526e-10	-4.57195e-07	0.216747	102896	140.363	102755
0.0100092	32.2456	11.0631	34.0906	-18.9365	673.052	0.217047	-0.000516422	1.43729e+06	151366	1	12	0.00474839	0.000139287	0	-0.000101621	-2.84759e-05	3.29537e-06	4.68607	0.0236588	0.0235797	-0.00193284	-18.9206	34.1123	32.2692	11.0612	0.027746	0.00951934	0.0293336	18.9365	1.51366e+08	4.41187e+08	4.66431e+08	-71.0635	0.0000000E+000	0.0000000E+000	0.0000000E+000	71.0635	0.0000000E+000	0.0000000E+000	0.0000000E+000	-71.0635	0.0000000E+000	0.0000000E+000	0.0000000E+000	-18.9365	0.0000000E+000	0.0000000E+000	0.0000000E+000	18.9365	2.9147	71.0635	0.00031346	-1.12088e-07	1.47056e-11	-1.12103e-07	0.217075	420290	55.1407	420345

File: 19496_R316_UA715_SOC00_C06.mpt
EC-Lab ASCII FILE
Nb header lines : 65

Potentio Electrochemical Impedance Spectroscopy

Run on channel : 6 (SN 65795)
User :
CE vs. WE compliance from -10 V to 10 V
Electrode connection : standard
Potential control : Ewe
Ewe ctrl range : min = -10.00 V, max = 10.00 V
Safety Limits :
	Do not start on E overload
Acquisition started on : 12/04/2025 13:10:34.416
Technique started on : 12/04/2025 13:10:36.328
Loaded Setting File :  C:\Users\Celltest\OneDrive - store-dot.com\Documents\EC-Lab\Data\Charmaine\19495_R316_UA628_SOC00_C05.mpr
Saved on :
	File : 19496_R316_UA715_SOC00_C06.mpr
	Directory : C:\Users\Celltest\OneDrive - store-dot.com\Documents\EC-Lab\Data\Charmaine\
	Host : 169.254.61.224
Device : VMP-3e (SN .003165)
Address : USB
EC-LAB for windows v11.62 (software)
Internet server v27.00 (firmware)
Command interpretor v12.03 (firmware)
Electrode material :
Initial state :
Electrolyte :
Comments :
Electrode surface area : 0.001 cm²
Characteristic mass : 0.001 g
Equivalent Weight : 0.000 g/eq.
Density : 0.000 g/cm3
Volume (V) : 0.001 cm³
Record Ece
Cycle Definition : Charge/Discharge alternance
Mode                Single sine
E (V)               0.0000
vs.                 Eoc
tE (h:m:s)          0:00:0.0000
record              0
dI                  0.000
unit dI             mA
dt (s)              0.000
fi                  100.000
unit fi             kHz
ff                  10.000
unit ff             mHz
Nd                  6
Points              per decade
spacing             Logarithmic
Va (mV)             5.0
pw                  0.10
Na                  2
corr                0
E range min (V)     -10.000
E range max (V)     10.000
I Range             Auto
Bandwidth           5
nc cycles           0
goto Ns'            0
nr cycles           0
inc. cycle          0

freq/Hz	Re(Z)/Ohm	-Im(Z)/Ohm	|Z|/Ohm	Phase(Z)/deg	time/s	<Ewe>/V	<I>/mA	Cs/µF	Cp/µF	cycle number	I Range	|Ewe|/V	|I|/A	Ns	(Q-Qo)/mA.h	<Ece>/V	|Ece|/V	Phase(Zce)/deg	|Zce|/Ohm	Re(Zce)/Ohm	-Im(Zce)/Ohm	Phase(Zwe-ce)/deg	|Zwe-ce|/Ohm	Re(Zwe-ce)/Ohm	-Im(Zwe-ce)/Ohm	Re(Y)/Ohm-1	Im(Y)/Ohm-1	|Y|/Ohm-1	Phase(Y)/deg	Re(C)/nF	Im(C)/nF	|C|/nF	Phase(C)/deg	Re(M)	Im(M)	|M|	Phase(M)/deg	Re(Permittivity)	Im(Permittivity)	|Permittivity|	Phase(Permittivity)/deg	Re(Resistivity)/Ohm.cm	Im(Resistivity)/Ohm.cm	|Resistivity|/Ohm.cm	Phase(Resistivity)/deg	Re(Conductivity)/mS/cm	Im(Conductivity)/mS/cm	|Conductivity|/mS/cm	Phase(Conductivity)/deg	Tan(Delta)	Loss Angle(Delta)/deg	dq/mA.h	Pwe/W	Pce/W	Pwe-ce/W	<Ewe-Ece>/V	Rwe/Ohm	Rce/Ohm	Rwe-ce/Ohm		Ewe-Ece/V
100004	1.17119	0.463841	1.2597	-21.6056	1.91152	0.277284	0.0311342	3.43111	0.465199	1	9	0.0045862	0.00364071	0	5.3458e-07	0.000469692	5.19832e-05	89.8588	0.0142783	3.51887e-05	-0.0142783	-20.9987	1.25455	1.17123	0.449562	0.738065	0.292304	0.79384	21.6056	465.199	1174.62	1263.39	-68.3944	0.0000000E+000	0.0000000E+000	0.0000000E+000	68.3944	0.0000000E+000	0.0000000E+000	0.0000000E+000	-68.3944	0.0000000E+000	0.0000000E+000	0.0000000E+000	-21.6056	0.0000000E+000	0.0000000E+000	0.0000000E+000	21.6056	2.52499	68.3944	5.3458e-07	8.63299e-06	1.46235e-08	8.61837e-06	0.276814	8906.09	15.0861	8891
31621.1	1.57307	0.641528	1.69885	-22.1866	3.43455	0.277265	0.0365726	7.84562	1.11879	1	9	0.0050964	0.00299991	0	4.22926e-05	0.000106829	1.55169e-05	64.4469	0.00517245	0.00223112	-0.00466651	-22.0125	1.69916	1.5753	0.636861	0.54505	0.222282	0.588633	22.1866	1118.79	2743.33	2962.7	-67.8134	0.0000000E+000	0.0000000E+000	0.0000000E+000	67.8134	0.0000000E+000	0.0000000E+000	0.0000000E+000	-67.8134	0.0000000E+000	0.0000000E+000	0.0000000E+000	-22.1866	0.0000000E+000	0.0000000E+000	0.0000000E+000	22.1866	2.45206	67.8134	1.67337e-05	1.01403e-05	3.90702e-09	1.01364e-05	0.277158	7581.2	2.92101	7578.28
10002.2	2.06996	0.879562	2.24908	-23.0215	4.33556	0.277265	0.0407446	18.0908	2.76682	1	9	0.0048667	0.00216386	0	4.39857e-05	0.000202319	1.2284e-05	67.9985	0.0056769	0.00212674	-0.00526347	-22.8769	2.24898	2.07208	0.874298	0.409216	0.173883	0.444627	23.0215	2766.82	6511.42	7074.88	-66.9785	0.0000000E+000	0.0000000E+000	0.0000000E+000	66.9785	0.0000000E+000	0.0000000E+000	0.0000000E+000	-66.9785	0.0000000E+000	0.0000000E+000	0.0000000E+000	-23.0215	0.0000000E+000	0.0000000E+000	0.0000000E+000	23.0215	2.3534	66.9785	3.41657e-06	1.1297e-05	8.24341e-09	1.12888e-05	0.277063	6804.95	4.96555	6799.98
3163.08	2.73229	1.25385	3.00625	-24.6504	5.41161	0.277013	-0.0301421	40.1297	6.98078	1	9	0.00482528	0.00160508	0	4.44647e-05	0.0003933	6.76294e-06	25.1477	0.00421345	0.00381408	-0.00179052	-24.5891	3.00897	2.7361	1.25206	0.302327	0.138738	0.33264	24.6504	6980.78	15212	16737.3	-65.3496	0.0000000E+000	0.0000000E+000	0.0000000E+000	65.3496	0.0000000E+000	0.0000000E+000	0.0000000E+000	-65.3496	0.0000000E+000	0.0000000E+000	0.0000000E+000	-24.6504	0.0000000E+000	0.0000000E+000	0.0000000E+000	24.6504	2.17913	65.3496	-2.55364e-06	-8.34976e-06	-1.18549e-08	-8.3379e-06	0.27662	9190.26	13.0482	9177.21
1000.32	3.58467	2.01034	4.10991	-29.2844	7.01082	0.277154	-0.0142175	79.1428	18.9359	1	10	0.00481747	0.00117216	0	5.53779e-05	0.000183221	9.16441e-06	60.7904	0.00781839	0.00381542	-0.00682421	-29.1754	4.10991	3.58849	2.00352	0.212219	0.119016	0.243314	29.2844	18935.9	33764.9	38712.3	-60.7156	0.0000000E+000	0.0000000E+000	0.0000000E+000	60.7156	0.0000000E+000	0.0000000E+000	0.0000000E+000	-60.7156	0.0000000E+000	0.0000000E+000	0.0000000E+000	-29.2844	0.0000000E+000	0.0000000E+000	0.0000000E+000	29.2844	1.78312	60.7156	-6.42458e-07	-3.94044e-06	-2.60494e-09	-3.93783e-06	0.276971	19493.9	12.887	19481
316.316	4.8723	3.95203	6.27358	-39.0463	8.36007	0.277175	-0.0146237	127.315	50.5229	1	10	0.00471837	0.000752101	0	5.00554e-05	0.000145025	7.0098e-06	13.8226	0.0093203	0.00905038	-0.00222677	-38.9785	6.27921	4.88135	3.9498	0.123795	0.100413	0.159399	39.0463	50522.9	62287.6	80201.7	-50.9537	0.0000000E+000	0.0000000E+000	0.0000000E+000	50.9537	0.0000000E+000	0.0000000E+000	0.0000000E+000	-50.9537	0.0000000E+000	0.0000000E+000	0.0000000E+000	-39.0463	0.0000000E+000	0.0000000E+000	0.0000000E+000	39.0463	1.23286	50.9537	-1.01718e-06	-4.05332e-06	-2.1208e-09	-4.0512e-06	0.27703	18953.9	9.91714	18943.9
100.032	8.73057	8.10559	11.9132	-42.8741	9.70786	0.277136	-0.0142995	196.289	90.8681	1	10	0.00469182	0.000393835	0	4.49844e-05	0.000164123	6.63643e-06	56.4712	0.0168508	0.00930762	-0.014047	-42.7941	11.9104	8.73988	8.09154	0.0615161	0.0571124	0.0839408	42.8741	90868.1	97874.5	133553	-47.1259	0.0000000E+000	0.0000000E+000	0.0000000E+000	47.1259	0.0000000E+000	0.0000000E+000	0.0000000E+000	-47.1259	0.0000000E+000	0.0000000E+000	0.0000000E+000	-42.8741	0.0000000E+000	0.0000000E+000	0.0000000E+000	42.8741	1.07711	47.1259	-1.24957e-06	-3.9629e-06	-2.34687e-09	-3.96055e-06	0.276972	19380.8	11.4776	19369.4
[...]
1.00006	30.8744	2.54832	30.9794	-4.7184	19.7589	0.277197	-0.00363493	62450.9	422.571	1	12	0.00468489	0.000151226	0	2.61852e-05	0.000355103	2.23115e-06	-26.8345	0.0147537	0.013165	0.00666005	-4.72866	30.9931	30.8876	2.55498	0.0321701	0.00265526	0.0322795	4.7184	422572	5.11971e+06	5.13712e+06	-85.2816	0.0000000E+000	0.0000000E+000	0.0000000E+000	85.2816	0.0000000E+000	0.0000000E+000	0.0000000E+000	-85.2816	0.0000000E+000	0.0000000E+000	0.0000000E+000	-4.7184	0.0000000E+000	0.0000000E+000	0.0000000E+000	4.7184	12.1156	85.2816	-8.02842e-06	-1.00759e-06	-1.29078e-09	-1.0063e-06	0.276842	76259.2	97.6919	76161.5
0.316193	32.1012	2.61433	32.2075	-4.65591	34.1028	0.277189	-0.00392362	192534	1268.57	1	12	0.00468391	0.000145429	0	1.0646e-05	0.000202319	2.52185e-06	-36.8844	0.0173408	0.01387	0.010408	-4.67235	32.2222	32.1151	2.62474	0.0309462	0.00252027	0.0310487	4.65591	1.26857e+06	1.55767e+07	1.56283e+07	-85.3441	0.0000000E+000	0.0000000E+000	0.0000000E+000	85.3441	0.0000000E+000	0.0000000E+000	0.0000000E+000	-85.3441	0.0000000E+000	0.0000000E+000	0.0000000E+000	-4.65591	0.0000000E+000	0.0000000E+000	0.0000000E+000	4.65591	12.2789	85.3441	-2.6665e-07	-1.08758e-06	-7.93823e-10	-1.08679e-06	0.276986	70646.2	51.5644	70594.6
0.0999041	33.6393	4.05437	33.8828	-6.87241	79.3107	0.277183	-0.00119807	392929	5626.04	1	12	0.00468818	0.000138365	0	4.29289e-05	0.000374201	2.04392e-06	29.8486	0.014772	0.0128124	-0.00735215	-6.85748	33.8946	33.6521	4.04702	0.0293015	0.00353155	0.0295135	6.87241	5.62603e+06	4.66795e+07	4.70173e+07	-83.1276	0.0000000E+000	0.0000000E+000	0.0000000E+000	83.1276	0.0000000E+000	0.0000000E+000	0.0000000E+000	-83.1276	0.0000000E+000	0.0000000E+000	0.0000000E+000	-6.87241	0.0000000E+000	0.0000000E+000	0.0000000E+000	6.87241	8.29706	83.1276	9.96001e-06	-3.32086e-07	-4.48321e-10	-3.31638e-07	0.276809	231357	312.336	231045
0.0315922	36.0336	8.12568	36.9384	-12.7078	222.194	0.277178	8.77046e-05	619984	30001.5	1	12	0.00468532	0.000126841	0	-0.000127406	1.13388e-05	2.32525e-06	20.6446	0.0183319	0.0171547	-0.00646329	-12.6922	36.9537	36.0507	8.11921	0.026409	0.00595529	0.0270721	12.7078	3.00015e+07	1.33043e+08	1.36384e+08	-77.2922	0.0000000E+000	0.0000000E+000	0.0000000E+000	77.2922	0.0000000E+000	0.0000000E+000	0.0000000E+000	-77.2922	0.0000000E+000	0.0000000E+000	0.0000000E+000	-12.7078	0.0000000E+000	0.0000000E+000	0.0000000E+000	12.7078	4.43453	77.2922	-0.000111288	2.43098e-08	9.94465e-13	2.43088e-08	0.277167	3.16036e+06	129.284	3.16023e+06
0.0100092	40.9537	18.465	44.9239	-24.2694	673.416	0.277177	-0.000634344	861138	145484	1	12	0.00468222	0.000104225	0	-0.000268194	6.86329e-05	1.55097e-06	70.3207	0.0148809	0.00501122	-0.0140117	-24.2505	44.9228	40.9587	18.451	0.0202926	0.00914942	0.0222598	24.2694	1.45484e+08	3.22671e+08	3.53952e+08	-65.7306	0.0000000E+000	0.0000000E+000	0.0000000E+000	65.7306	0.0000000E+000	0.0000000E+000	0.0000000E+000	-65.7306	0.0000000E+000	0.0000000E+000	0.0000000E+000	-24.2694	0.0000000E+000	0.0000000E+000	0.0000000E+000	24.2694	2.21791	65.7306	9.52486e-05	-1.75825e-07	-4.35368e-11	-1.75782e-07	0.277108	436951	108.195	436842