Folder: EIS/txt (part 95)

File: 18502_R303_UC88_11mm_SOC50_C01.mpt
EC-Lab ASCII FILE
Nb header lines : 65

Potentio Electrochemical Impedance Spectroscopy

Run on channel : 1 (SN 66354)
User :
CE vs. WE compliance from -10 V to 10 V
Electrode connection : standard
Potential control : Ewe
Ewe ctrl range : min = -10.00 V, max = 10.00 V
Safety Limits :
	Do not start on E overload
Acquisition started on : 10/20/2025 14:14:33.280
Technique started on : 10/20/2025 14:14:35.975
Loaded Setting File :  C:\Users\Celltest\OneDrive - store-dot.com\Documents\EC-Lab\Data\txt_done\18445_R297_UC61_11mm_SOC50.mps
Saved on :
	File : 18502_R303_UC88_11mm_SOC50_C01.mpr
	Directory : C:\Users\Celltest\OneDrive - store-dot.com\Documents\EC-Lab\Data\Michael\
	Host : 169.254.61.224
Device : VMP-3e (SN .003165)
Address : USB
EC-LAB for windows v11.62 (software)
Internet server v27.00 (firmware)
Command interpretor v12.03 (firmware)
Electrode material :
Initial state :
Electrolyte :
Comments :
Electrode surface area : 0.001 cm²
Characteristic mass : 0.001 g
Equivalent Weight : 0.000 g/eq.
Density : 0.000 g/cm3
Volume (V) : 0.001 cm³
Record Ece
Cycle Definition : Charge/Discharge alternance
Mode                Multi sine
E (V)               0.0000
vs.                 Eoc
tE (h:m:s)          0:00:0.0000
record              0
dI                  0.000
unit dI             mA
dt (s)              0.000
fi                  1.000
unit fi             MHz
ff                  0.100
unit ff             mHz
Nd                  10
Points              per decade
spacing             Logarithmic
Va (mV)             5.0
pw                  0.10
Na                  2
corr                0
E range min (V)     -10.000
E range max (V)     10.000
I Range             Auto
Bandwidth           5
nc cycles           0
goto Ns'            0
nr cycles           0
inc. cycle          0

freq/Hz	Re(Z)/Ohm	-Im(Z)/Ohm	|Z|/Ohm	Phase(Z)/deg	time/s	<Ewe>/V	<I>/mA	Cs/µF	Cp/µF	cycle number	I Range	|Ewe|/V	|I|/A	Ns	(Q-Qo)/mA.h	<Ece>/V	|Ece|/V	Phase(Zce)/deg	|Zce|/Ohm	Re(Zce)/Ohm	-Im(Zce)/Ohm	Phase(Zwe-ce)/deg	|Zwe-ce|/Ohm	Re(Zwe-ce)/Ohm	-Im(Zwe-ce)/Ohm	Re(Y)/Ohm-1	Im(Y)/Ohm-1	|Y|/Ohm-1	Phase(Y)/deg	Re(C)/nF	Im(C)/nF	|C|/nF	Phase(C)/deg	Re(M)	Im(M)	|M|	Phase(M)/deg	Re(Permittivity)	Im(Permittivity)	|Permittivity|	Phase(Permittivity)/deg	Re(Resistivity)/Ohm.cm	Im(Resistivity)/Ohm.cm	|Resistivity|/Ohm.cm	Phase(Resistivity)/deg	Re(Conductivity)/mS/cm	Im(Conductivity)/mS/cm	|Conductivity|/mS/cm	Phase(Conductivity)/deg	Tan(Delta)	Loss Angle(Delta)/deg	dq/mA.h	Pwe/W	Pce/W	Pwe-ce/W	<Ewe-Ece>/V	Rwe/Ohm	Rce/Ohm	Rwe-ce/Ohm		Ewe-Ece/V
1.00002e+06	1.08158	-0.00534886	1.08159	0.283349	2.69457	3.8259	0.0540887	-29.7544	-0.000727687	1	9	0.00020976	0.000193936	0	9.47418e-06	0.000193113	0.000203854	-5.7916	1.05114	1.04578	0.106071	-2.71072	2.12974	2.12736	0.100722	0.92455	-0.00457228	0.924562	-0.283349	-0.727686	147.144	147.146	-90.2833	0.0000000E+000	0.0000000E+000	0.0000000E+000	90.2833	0.0000000E+000	0.0000000E+000	0.0000000E+000	-90.2833	0.0000000E+000	0.0000000E+000	0.0000000E+000	0.283349	0.0000000E+000	0.0000000E+000	0.0000000E+000	-0.283349	202.208	89.7167	9.47418e-06	0.000206938	1.04452e-08	0.000206928	3.82571	70733.9	3.5703	70730.4
251206	0.652214	0.380267	0.754974	-30.2439	4.99654	3.82561	0.0406772	1.6661	0.422683	1	9	0.00194957	0.00258229	0	3.9155e-05	0.000174035	6.42482e-05	117.472	0.0248803	-0.0114776	-0.0220747	-29.2066	0.73406	0.640736	0.358192	1.14426	0.667152	1.32455	30.2439	422.683	724.963	839.185	-59.7561	0.0000000E+000	0.0000000E+000	0.0000000E+000	59.7561	0.0000000E+000	0.0000000E+000	0.0000000E+000	-59.7561	0.0000000E+000	0.0000000E+000	0.0000000E+000	-30.2439	0.0000000E+000	0.0000000E+000	0.0000000E+000	30.2439	1.71515	59.7561	3.64701e-06	0.000155615	7.07927e-09	0.000155608	3.82543	94048	4.27845	94043.7
63093.8	1.16902	1.03566	1.56179	-41.5385	7.29655	3.82553	0.0634768	2.43565	1.07104	1	9	0.00543218	0.00347817	0	0.000101304	2.33964e-06	2.88521e-05	87.111	0.00829521	0.00041809	-0.00828466	-41.3	1.55663	1.16944	1.02738	0.479263	0.424591	0.64029	41.5385	1071.04	1208.95	1615.14	-48.4615	0.0000000E+000	0.0000000E+000	0.0000000E+000	48.4615	0.0000000E+000	0.0000000E+000	0.0000000E+000	-48.4615	0.0000000E+000	0.0000000E+000	0.0000000E+000	-41.5385	0.0000000E+000	0.0000000E+000	0.0000000E+000	41.5385	1.12877	48.4615	-4.93905e-06	0.000242832	1.48513e-10	0.000242832	3.82553	60266.6	0.0368582	60266.5
15847.7	2.39955	1.77018	2.98185	-36.4167	9.96754	3.82553	0.0574043	5.6733	1.99941	1	9	0.00498075	0.00167036	0	0.000146459	0.000116803	1.19414e-05	-83.0411	0.00714899	0.00086615	0.00709632	-36.5164	2.98676	2.40042	1.77728	0.269873	0.199089	0.335363	36.4167	1999.41	2710.28	3367.98	-53.5833	0.0000000E+000	0.0000000E+000	0.0000000E+000	53.5833	0.0000000E+000	0.0000000E+000	0.0000000E+000	-53.5833	0.0000000E+000	0.0000000E+000	0.0000000E+000	-36.4167	0.0000000E+000	0.0000000E+000	0.0000000E+000	36.4167	1.35554	53.5833	5.86048e-06	0.000219602	6.70503e-09	0.000219596	3.82542	66641.9	2.03475	66639.9
3983.6	4.14714	2.74322	4.97232	-33.4836	11.8461	3.82542	-0.0329391	14.5641	4.43288	1	10	0.00481297	0.000967953	0	0.000158208	-5.48923e-05	9.34267e-06	-39.6991	0.00965199	0.00742633	0.00616527	-33.4956	4.98192	4.15456	2.74939	0.167737	0.110954	0.201113	33.4836	4432.88	6701.53	8034.98	-56.5164	0.0000000E+000	0.0000000E+000	0.0000000E+000	56.5164	0.0000000E+000	0.0000000E+000	0.0000000E+000	-56.5164	0.0000000E+000	0.0000000E+000	0.0000000E+000	-33.4836	0.0000000E+000	0.0000000E+000	0.0000000E+000	33.4836	1.51178	56.5164	-2.35103e-06	-0.000126006	1.8081e-09	-0.000126008	3.82547	116136	1.66648	116138
1000.32	7.17921	4.25525	8.34555	-30.656	14.4748	3.82536	-0.0137864	37.3901	9.72066	1	10	0.00450825	0.000540198	0	0.000147284	0.000135881	6.11467e-06	64.6494	0.0113193	0.00484643	-0.0102293	-30.5786	8.34451	7.18406	4.24502	0.103078	0.0610963	0.119824	30.656	9720.66	16400.2	19064.5	-59.344	0.0000000E+000	0.0000000E+000	0.0000000E+000	59.344	0.0000000E+000	0.0000000E+000	0.0000000E+000	-59.344	0.0000000E+000	0.0000000E+000	0.0000000E+000	-30.656	0.0000000E+000	0.0000000E+000	0.0000000E+000	30.656	1.68714	59.344	-1.51035e-06	-5.2738e-05	-1.87331e-09	-5.27361e-05	3.82523	277474	9.85615	277464
251.044	12.1678	4.89657	13.1161	-21.9208	17.3881	3.82536	-0.0143454	129.473	18.0448	1	10	0.00494858	0.00037729	0	0.000135611	-5.48923e-05	1.2073e-05	-47.0852	0.0319991	0.0217885	0.0234351	-21.9801	13.1451	12.1896	4.92	0.0707299	0.028463	0.0762421	21.9208	18044.8	44840.7	48335.3	-68.0792	0.0000000E+000	0.0000000E+000	0.0000000E+000	68.0792	0.0000000E+000	0.0000000E+000	0.0000000E+000	-68.0792	0.0000000E+000	0.0000000E+000	0.0000000E+000	-21.9208	0.0000000E+000	0.0000000E+000	0.0000000E+000	21.9208	2.48497	68.0792	-1.82421e-06	-5.48764e-05	7.87454e-10	-5.48772e-05	3.82541	266660	3.82646	266664
[...]
0.0602816	20.9888	2.68018	21.1592	-7.27707	240.738	3.82541	-0.00149151	985078	15805.3	1	11	0.00502838	0.000237645	0	-0.00108102	0.000154958	3.65334e-07	-61.7109	0.00153731	0.000728563	0.00135371	-7.28046	21.1601	20.9895	2.68154	0.0468801	0.00598641	0.0472608	7.27707	1.58053e+07	1.23772e+08	1.24777e+08	-82.7229	0.0000000E+000	0.0000000E+000	0.0000000E+000	82.7229	0.0000000E+000	0.0000000E+000	0.0000000E+000	-82.7229	0.0000000E+000	0.0000000E+000	0.0000000E+000	-7.27707	0.0000000E+000	0.0000000E+000	0.0000000E+000	7.27707	7.83109	82.7229	0.000000000000000E+000	-5.70565e-06	-2.31122e-10	-5.70542e-06	3.82526	2.56479e+06	103.893	2.56468e+06
0.00796479	29.2275	4.31771	29.5447	-8.40339	20329.6	3.8254	0.00056194	4.62799e+06	98841.5	1	11	0.00502087	0.000169941	0	-0.00499899	5.95716e-05	7.46091e-07	-14.5102	0.00439029	0.00425025	0.0011	-8.40429	29.5491	29.2318	4.31881	0.0334836	0.00494645	0.033847	8.40339	9.88415e+07	6.6908e+08	6.76341e+08	-81.5966	0.0000000E+000	0.0000000E+000	0.0000000E+000	81.5966	0.0000000E+000	0.0000000E+000	0.0000000E+000	-81.5966	0.0000000E+000	0.0000000E+000	0.0000000E+000	-8.40339	0.0000000E+000	0.0000000E+000	0.0000000E+000	8.40339	6.76922	81.5966	-0.00391797	2.14965e-06	3.34756e-11	2.14961e-06	3.82535	6.8075e+06	106.011	6.80739e+06
0.0019912	32.2841	6.96496	33.0269	-12.1744	20329.6	3.8254	0.00056194	1.14759e+07	510375	1	11	0.00503348	0.000152405	0	-0.00499899	5.95716e-05	7.04554e-07	-36.0688	0.00462289	0.00373673	0.00272176	-12.1776	33.0311	32.2879	6.96768	0.0295974	0.00638534	0.0302784	12.1744	5.10375e+08	2.3657e+09	2.42013e+09	-77.8256	0.0000000E+000	0.0000000E+000	0.0000000E+000	77.8256	0.0000000E+000	0.0000000E+000	0.0000000E+000	-77.8256	0.0000000E+000	0.0000000E+000	0.0000000E+000	-12.1744	0.0000000E+000	0.0000000E+000	0.0000000E+000	12.1744	4.63522	77.8256	0.000000000000000E+000	2.14965e-06	3.34756e-11	2.14961e-06	3.82535	6.8075e+06	106.011	6.80739e+06
0.000497799	34.0123	18.8579	38.8903	-29.0058	20329.6	3.8254	0.00056194	1.6954e+07	3.98635e+06	1	11	0.00503494	0.000129465	0	-0.00499899	5.95716e-05	3.51386e-07	-82.5001	0.00271414	0.000354263	0.00269092	-29.0091	38.8919	34.0127	18.8606	0.0224881	0.0124684	0.0257133	29.0058	3.98635e+09	7.18984e+09	8.22099e+09	-60.9942	0.0000000E+000	0.0000000E+000	0.0000000E+000	60.9942	0.0000000E+000	0.0000000E+000	0.0000000E+000	-60.9942	0.0000000E+000	0.0000000E+000	0.0000000E+000	-29.0058	0.0000000E+000	0.0000000E+000	0.0000000E+000	29.0058	1.80361	60.9942	0.000000000000000E+000	2.14965e-06	3.34756e-11	2.14961e-06	3.82535	6.8075e+06	106.011	6.80739e+06
9.95598e-05	42.112	88.9099	98.3788	-64.6555	20329.6	3.8254	0.00056194	1.79798e+07	1.46853e+07	1	11	0.00503587	5.11886e-05	0	-0.00499899	5.95716e-05	1.63032e-06	-89.9186	0.0318492	4.5229e-05	0.0318492	-64.6634	98.4076	42.1121	88.9417	0.00435114	0.00918643	0.0101648	64.6555	1.46853e+10	6.95567e+09	1.62493e+10	-25.3445	0.0000000E+000	0.0000000E+000	0.0000000E+000	25.3445	0.0000000E+000	0.0000000E+000	0.0000000E+000	-25.3445	0.0000000E+000	0.0000000E+000	0.0000000E+000	-64.6555	0.0000000E+000	0.0000000E+000	0.0000000E+000	64.6555	0.473649	25.3445	0.000000000000000E+000	2.14965e-06	3.34756e-11	2.14961e-06	3.82535	6.8075e+06	106.011	6.80739e+06

File: 18503_R303_UC88_11mm_SOC50_C02.mpt
EC-Lab ASCII FILE
Nb header lines : 65

Potentio Electrochemical Impedance Spectroscopy

Run on channel : 2 (SN 66139)
User :
CE vs. WE compliance from -10 V to 10 V
Electrode connection : standard
Potential control : Ewe
Ewe ctrl range : min = -10.00 V, max = 10.00 V
Safety Limits :
	Do not start on E overload
Acquisition started on : 10/20/2025 14:14:46.495
Technique started on : 10/20/2025 14:14:49.190
Loaded Setting File :  C:\Users\Celltest\OneDrive - store-dot.com\Documents\EC-Lab\Data\txt_done\UC80_17231_EIS_50SOC.mps
Saved on :
	File : 18503_R303_UC88_11mm_SOC50_C02.mpr
	Directory : C:\Users\Celltest\OneDrive - store-dot.com\Documents\EC-Lab\Data\Michael\
	Host : 169.254.61.224
Device : VMP-3e (SN .003165)
Address : USB
EC-LAB for windows v11.62 (software)
Internet server v27.00 (firmware)
Command interpretor v12.03 (firmware)
Electrode material :
Initial state :
Electrolyte :
Comments :
Electrode surface area : 0.001 cm²
Characteristic mass : 0.001 g
Equivalent Weight : 0.000 g/eq.
Density : 0.000 g/cm3
Volume (V) : 0.001 cm³
Record Ece
Cycle Definition : Charge/Discharge alternance
Mode                Multi sine
E (V)               0.0000
vs.                 Eoc
tE (h:m:s)          0:00:0.0000
record              0
dI                  0.000
unit dI             mA
dt (s)              0.000
fi                  1.000
unit fi             MHz
ff                  0.100
unit ff             mHz
Nd                  10
Points              per decade
spacing             Logarithmic
Va (mV)             5.0
pw                  0.10
Na                  2
corr                0
E range min (V)     -10.000
E range max (V)     10.000
I Range             Auto
Bandwidth           5
nc cycles           0
goto Ns'            0
nr cycles           0
inc. cycle          0

freq/Hz	Re(Z)/Ohm	-Im(Z)/Ohm	|Z|/Ohm	Phase(Z)/deg	time/s	<Ewe>/V	<I>/mA	Cs/µF	Cp/µF	cycle number	I Range	|Ewe|/V	|I|/A	Ns	(Q-Qo)/mA.h	<Ece>/V	|Ece|/V	Phase(Zce)/deg	|Zce|/Ohm	Re(Zce)/Ohm	-Im(Zce)/Ohm	Phase(Zwe-ce)/deg	|Zwe-ce|/Ohm	Re(Zwe-ce)/Ohm	-Im(Zwe-ce)/Ohm	Re(Y)/Ohm-1	Im(Y)/Ohm-1	|Y|/Ohm-1	Phase(Y)/deg	Re(C)/nF	Im(C)/nF	|C|/nF	Phase(C)/deg	Re(M)	Im(M)	|M|	Phase(M)/deg	Re(Permittivity)	Im(Permittivity)	|Permittivity|	Phase(Permittivity)/deg	Re(Resistivity)/Ohm.cm	Im(Resistivity)/Ohm.cm	|Resistivity|/Ohm.cm	Phase(Resistivity)/deg	Re(Conductivity)/mS/cm	Im(Conductivity)/mS/cm	|Conductivity|/mS/cm	Phase(Conductivity)/deg	Tan(Delta)	Loss Angle(Delta)/deg	dq/mA.h	Pwe/W	Pce/W	Pwe-ce/W	<Ewe-Ece>/V	Rwe/Ohm	Rce/Ohm	Rwe-ce/Ohm		Ewe-Ece/V
1.00002e+06	0.915866	-0.310467	0.967057	18.726	2.69454	3.82456	-0.0505777	-0.512621	-0.0528352	1	9	0.000190623	0.000197117	0	-2.69356e-05	-0.000305111	0.000173574	4.23717	0.880564	0.878158	-0.0650606	11.8225	1.8329	1.79402	-0.375527	0.979326	-0.331979	1.03407	-18.726	-52.8352	155.862	164.573	-108.726	0.0000000E+000	0.0000000E+000	0.0000000E+000	108.726	0.0000000E+000	0.0000000E+000	0.0000000E+000	-108.726	0.0000000E+000	0.0000000E+000	0.0000000E+000	18.726	0.0000000E+000	0.0000000E+000	0.0000000E+000	-18.726	2.94996	71.274	-2.69356e-05	-0.000193438	1.54318e-08	-0.000193453	3.82487	75617.6	6.03252	75623.6
251206	0.679859	0.341805	0.760946	-26.6914	4.99252	3.82456	-0.0433892	1.85358	0.37399	1	9	0.00191012	0.00251019	0	-5.77846e-05	0.000267614	1.7111e-05	87.939	0.0068166	0.000245146	-0.0068122	-26.2231	0.758131	0.680104	0.334993	1.17412	0.590297	1.31415	26.6914	373.99	743.876	832.599	-63.3086	0.0000000E+000	0.0000000E+000	0.0000000E+000	63.3086	0.0000000E+000	0.0000000E+000	0.0000000E+000	-63.3086	0.0000000E+000	0.0000000E+000	0.0000000E+000	-26.6914	0.0000000E+000	0.0000000E+000	0.0000000E+000	26.6914	1.98902	63.3086	-6.67116e-06	-0.000165945	-1.16116e-08	-0.000165933	3.82429	88145.5	6.16776	88139.3
63093.8	1.2151	0.980797	1.56155	-38.9095	7.29654	3.8244	-0.0370574	2.5719	1.01462	1	9	0.00545788	0.00349517	0	-9.63392e-05	-0.000228748	2.05542e-05	56.0794	0.00588075	0.00328171	-0.00487992	-38.6945	1.56105	1.21838	0.975917	0.498312	0.402224	0.64039	38.9095	1014.62	1257	1615.39	-51.0905	0.0000000E+000	0.0000000E+000	0.0000000E+000	51.0905	0.0000000E+000	0.0000000E+000	0.0000000E+000	-51.0905	0.0000000E+000	0.0000000E+000	0.0000000E+000	-38.9095	0.0000000E+000	0.0000000E+000	0.0000000E+000	38.9095	1.23889	51.0905	-3.32571e-06	-0.000141722	8.47679e-09	-0.000141731	3.82463	103202	6.1728	103208
15847.7	2.39191	1.50122	2.82398	-32.1133	9.47054	3.8244	-0.0320665	6.68977	1.89048	1	9	0.00488406	0.00172949	0	-0.000124297	-9.51117e-05	4.44957e-06	-47.0118	0.00257276	0.00175423	0.00188196	-32.1267	2.82647	2.39366	1.5031	0.29993	0.188243	0.35411	32.1133	1890.48	3012.14	3556.25	-57.8867	0.0000000E+000	0.0000000E+000	0.0000000E+000	57.8867	0.0000000E+000	0.0000000E+000	0.0000000E+000	-57.8867	0.0000000E+000	0.0000000E+000	0.0000000E+000	-32.1133	0.0000000E+000	0.0000000E+000	0.0000000E+000	32.1133	1.59332	57.8867	-3.2029e-06	-0.000122635	3.0499e-09	-0.000122638	3.82449	119265	2.96608	119268
3983.6	3.82927	2.03292	4.33545	-27.9634	11.3491	3.82434	-0.0503461	19.6528	4.32113	1	10	0.00479423	0.00110582	0	-0.000144198	0.00017216	7.85861e-06	-22.2376	0.00710658	0.00657801	0.00268947	-27.954	4.34252	3.83585	2.03561	0.203727	0.108157	0.230657	27.9634	4321.13	8139.41	9215.32	-62.0366	0.0000000E+000	0.0000000E+000	0.0000000E+000	62.0366	0.0000000E+000	0.0000000E+000	0.0000000E+000	-62.0366	0.0000000E+000	0.0000000E+000	0.0000000E+000	-27.9634	0.0000000E+000	0.0000000E+000	0.0000000E+000	27.9634	1.88363	62.0366	-3.51346e-06	-0.00019254	-8.66758e-09	-0.000192532	3.82416	75960.9	3.41953	75957.5
1000.32	5.95378	2.81433	6.58544	-25.2999	14.1918	3.82428	-0.044192	56.5335	10.3249	1	10	0.0048736	0.000740057	0	-0.000177927	0.000133978	1.11357e-05	-21.4039	0.0150471	0.0140093	0.0054913	-25.2911	6.60045	5.96779	2.81982	0.137285	0.0648942	0.15185	25.2999	10324.9	21842.6	24160	-64.7001	0.0000000E+000	0.0000000E+000	0.0000000E+000	64.7001	0.0000000E+000	0.0000000E+000	0.0000000E+000	-64.7001	0.0000000E+000	0.0000000E+000	0.0000000E+000	-25.2999	0.0000000E+000	0.0000000E+000	0.0000000E+000	25.2999	2.11552	64.7001	-9.06389e-06	-0.000169003	-5.92078e-09	-0.000168997	3.82415	86537.9	3.03173	86534.9
251.044	9.14708	3.17861	9.68362	-19.1623	16.8931	3.82429	-0.0429515	199.45	21.4897	1	10	0.00480379	0.000496074	0	-0.000209391	0.000133978	7.54278e-06	-117.126	0.0152049	-0.00693279	0.0135324	-19.2514	9.68153	9.14015	3.19214	0.0975453	0.033897	0.103267	19.1623	21489.7	61841	65468.4	-70.8377	0.0000000E+000	0.0000000E+000	0.0000000E+000	70.8377	0.0000000E+000	0.0000000E+000	0.0000000E+000	-70.8377	0.0000000E+000	0.0000000E+000	0.0000000E+000	-19.1623	0.0000000E+000	0.0000000E+000	0.0000000E+000	19.1623	2.8777	70.8377	-5.54592e-06	-0.000164259	-5.75458e-09	-0.000164253	3.82416	89037.3	3.11929	89034.2
[...]
0.0602816	15.3478	2.42876	15.5388	-8.99238	240.246	3.82432	-0.0167618	1.08705e+06	26557.4	1	11	0.00499846	0.000321677	0	-0.00293402	-0.000171475	6.32336e-07	14.808	0.00196575	0.00190046	-0.000502409	-8.98946	15.5406	15.3497	2.42826	0.0635641	0.0100589	0.0643551	8.99238	2.65574e+07	1.67821e+08	1.6991e+08	-81.0076	0.0000000E+000	0.0000000E+000	0.0000000E+000	81.0076	0.0000000E+000	0.0000000E+000	0.0000000E+000	-81.0076	0.0000000E+000	0.0000000E+000	0.0000000E+000	-8.99238	0.0000000E+000	0.0000000E+000	0.0000000E+000	8.99238	6.31919	81.0076	0.000000000000000E+000	-6.41026e-05	2.87423e-09	-6.41054e-05	3.82449	228157	10.2301	228167
0.00796479	22.016	4.40029	22.4514	-11.3026	20329.2	3.82428	-0.00048034	4.54114e+06	174437	1	11	0.00499331	0.000222405	0	-0.0211261	-3.78392e-05	1.81786e-07	16.3068	0.000817366	0.000784485	-0.0002295	-11.3017	22.4521	22.0168	4.40006	0.0436768	0.00872958	0.0445406	11.3026	1.74437e+08	8.72763e+08	8.90025e+08	-78.6974	0.0000000E+000	0.0000000E+000	0.0000000E+000	78.6974	0.0000000E+000	0.0000000E+000	0.0000000E+000	-78.6974	0.0000000E+000	0.0000000E+000	0.0000000E+000	-11.3026	0.0000000E+000	0.0000000E+000	0.0000000E+000	11.3026	5.00331	78.6974	-0.018192	-1.83696e-06	1.81757e-11	-1.83697e-06	3.82432	7.9616e+06	78.7758	7.96168e+06
0.0019912	25.1281	6.74959	26.0188	-15.0352	20329.2	3.82428	-0.00048034	1.18421e+07	796907	1	11	0.00500655	0.00019242	0	-0.0211261	-3.78392e-05	4.7504e-07	-26.3173	0.00246876	0.00221288	0.0010945	-15.0362	26.0212	25.1303	6.75068	0.037118	0.00997015	0.0384337	15.0352	7.96907e+08	2.96682e+09	3.07198e+09	-74.9648	0.0000000E+000	0.0000000E+000	0.0000000E+000	74.9648	0.0000000E+000	0.0000000E+000	0.0000000E+000	-74.9648	0.0000000E+000	0.0000000E+000	0.0000000E+000	-15.0352	0.0000000E+000	0.0000000E+000	0.0000000E+000	15.0352	3.72291	74.9648	0.000000000000000E+000	-1.83696e-06	1.81757e-11	-1.83697e-06	3.82432	7.9616e+06	78.7758	7.96168e+06
0.000497799	26.5503	18.0221	32.0891	-34.1683	20329.2	3.82428	-0.00048034	1.77403e+07	5.59571e+06	1	11	0.00500673	0.000156026	0	-0.0211261	-3.78392e-05	2.99553e-07	50.4021	0.00191989	0.00122373	-0.00147935	-34.1649	32.0893	26.5515	18.0206	0.0257841	0.017502	0.0311632	34.1683	5.59571e+09	8.24364e+09	9.96341e+09	-55.8317	0.0000000E+000	0.0000000E+000	0.0000000E+000	55.8317	0.0000000E+000	0.0000000E+000	0.0000000E+000	-55.8317	0.0000000E+000	0.0000000E+000	0.0000000E+000	-34.1683	0.0000000E+000	0.0000000E+000	0.0000000E+000	34.1683	1.47321	55.8317	0.000000000000000E+000	-1.83696e-06	1.81757e-11	-1.83697e-06	3.82432	7.9616e+06	78.7758	7.96168e+06
9.95598e-05	34.83	91.5705	97.9708	-69.175	20329.2	3.82428	-0.00048034	1.74574e+07	1.5251e+07	1	11	0.00500943	5.11319e-05	0	-0.0211261	-3.78392e-05	2.85411e-06	-93.9705	0.0558186	-0.00386502	0.0556846	-69.1887	98.0215	34.8261	91.6262	0.00362877	0.0095403	0.0102071	69.175	1.5251e+10	5.80091e+09	1.6317e+10	-20.825	0.0000000E+000	0.0000000E+000	0.0000000E+000	20.825	0.0000000E+000	0.0000000E+000	0.0000000E+000	-20.825	0.0000000E+000	0.0000000E+000	0.0000000E+000	-69.175	0.0000000E+000	0.0000000E+000	0.0000000E+000	69.175	0.380363	20.825	0.000000000000000E+000	-1.83696e-06	1.81757e-11	-1.83697e-06	3.82432	7.9616e+06	78.7758	7.96168e+06