Folder: EIS/txt (part 67)

File: 17921_R288_UA670_SOC00_C02.mpt
EC-Lab ASCII FILE
Nb header lines : 64

Potentio Electrochemical Impedance Spectroscopy

Run on channel : 2 (SN 66139)
User :
CE vs. WE compliance from -10 V to 10 V
Electrode connection : standard
Potential control : Ewe
Ewe ctrl range : min = -10.00 V, max = 10.00 V
Safety Limits :
	Do not start on E overload
Acquisition started on : 09/29/2025 15:12:57.426
Loaded Setting File :  C:\Users\Celltest\OneDrive - store-dot.com\Documents\EC-Lab\Data\@Biologic Test Protocols\anode half cell EIS SOC00.mps
Saved on :
	File : 17921_R288_UA670_SOC00_C02.mpr
	Directory : C:\Users\Celltest\OneDrive - store-dot.com\Documents\EC-Lab\Data\Charmaine\
	Host : 169.254.61.224
Device : VMP-3e (SN .003165)
Address : USB
EC-LAB for windows v11.62 (software)
Internet server v27.00 (firmware)
Command interpretor v12.03 (firmware)
Electrode material :
Initial state :
Electrolyte :
Comments :
Electrode surface area : 0.001 cm²
Characteristic mass : 0.001 g
Equivalent Weight : 0.000 g/eq.
Density : 0.000 g/cm3
Volume (V) : 0.001 cm³
Record Ece
Cycle Definition : Charge/Discharge alternance
Mode                Single sine
E (V)               0.0000
vs.                 Eoc
tE (h:m:s)          0:00:0.0000
record              0
dI                  0.000
unit dI             mA
dt (s)              0.000
fi                  100.000
unit fi             kHz
ff                  10.000
unit ff             mHz
Nd                  6
Points              per decade
spacing             Logarithmic
Va (mV)             5.0
pw                  0.10
Na                  2
corr                0
E range min (V)     -10.000
E range max (V)     10.000
I Range             Auto
Bandwidth           5
nc cycles           0
goto Ns'            0
nr cycles           0
inc. cycle          0

freq/Hz	Re(Z)/Ohm	-Im(Z)/Ohm	|Z|/Ohm	Phase(Z)/deg	time/s	<Ewe>/V	<I>/mA	Cs/µF	Cp/µF	cycle number	I Range	|Ewe|/V	|I|/A	Ns	(Q-Qo)/mA.h	<Ece>/V	|Ece|/V	Phase(Zce)/deg	|Zce|/Ohm	Re(Zce)/Ohm	-Im(Zce)/Ohm	Phase(Zwe-ce)/deg	|Zwe-ce|/Ohm	Re(Zwe-ce)/Ohm	-Im(Zwe-ce)/Ohm	Re(Y)/Ohm-1	Im(Y)/Ohm-1	|Y|/Ohm-1	Phase(Y)/deg	Re(C)/nF	Im(C)/nF	|C|/nF	Phase(C)/deg	Re(M)	Im(M)	|M|	Phase(M)/deg	Re(Permittivity)	Im(Permittivity)	|Permittivity|	Phase(Permittivity)/deg	Re(Resistivity)/Ohm.cm	Im(Resistivity)/Ohm.cm	|Resistivity|/Ohm.cm	Phase(Resistivity)/deg	Re(Conductivity)/mS/cm	Im(Conductivity)/mS/cm	|Conductivity|/mS/cm	Phase(Conductivity)/deg	Tan(Delta)	Loss Angle(Delta)/deg	dq/mA.h	Pwe/W	Pce/W	Pwe-ce/W	<Ewe-Ece>/V	Rwe/Ohm	Rce/Ohm	Rwe-ce/Ohm		Ewe-Ece/V
100004	0.979353	0.0908195	0.983555	-5.29813	1.59354	0.268087	-0.00163655	17.5237	0.149412	1	9	0.00216952	0.00220579	0	-1.24779e-05	0.000114888	2.20043e-05	25.0825	0.00997569	0.00903497	-0.00422892	-5.00678	0.992173	0.988388	0.0865906	1.01238	0.0938819	1.01672	5.29813	149.412	1611.19	1618.1	-84.7019	0.0000000E+000	0.0000000E+000	0.0000000E+000	84.7019	0.0000000E+000	0.0000000E+000	0.0000000E+000	-84.7019	0.0000000E+000	0.0000000E+000	0.0000000E+000	-5.29813	0.0000000E+000	0.0000000E+000	0.0000000E+000	5.29813	10.7835	84.7019	-1.24779e-05	-4.38737e-07	-1.88019e-10	-4.38549e-07	0.267972	163812	70.2011	163742
31621.1	1.06813	0.247445	1.09642	-13.0432	2.86854	0.268041	-0.0108734	20.3406	1.03602	1	9	0.00543335	0.00495555	0	-3.54526e-05	-0.000114203	8.76488e-06	-39.9047	0.0017687	0.00135679	0.00113464	-13.0849	1.098	1.06949	0.24858	0.888531	0.205839	0.912062	13.0432	1036.02	4472.14	4590.57	-76.9568	0.0000000E+000	0.0000000E+000	0.0000000E+000	76.9568	0.0000000E+000	0.0000000E+000	0.0000000E+000	-76.9568	0.0000000E+000	0.0000000E+000	0.0000000E+000	-13.0432	0.0000000E+000	0.0000000E+000	0.0000000E+000	13.0432	4.31663	76.9568	2.78918e-06	-2.91453e-06	1.24178e-09	-2.91577e-06	0.268155	24651	10.5029	24661.5
10002.2	1.26859	0.386445	1.32614	-16.9421	4.38957	0.268081	0.0216049	41.1752	3.49649	1	9	0.0047136	0.00355438	0	-0.000516575	0.00040125	2.98838e-06	19.3139	0.000840761	0.000793443	-0.000278077	-16.9207	1.32682	1.26938	0.386167	0.721341	0.21974	0.754068	16.9421	3496.49	11477.9	11998.7	-73.0579	0.0000000E+000	0.0000000E+000	0.0000000E+000	73.0579	0.0000000E+000	0.0000000E+000	0.0000000E+000	-73.0579	0.0000000E+000	0.0000000E+000	0.0000000E+000	-16.9421	0.0000000E+000	0.0000000E+000	0.0000000E+000	16.9421	3.28271	73.0579	2.09742e-06	5.79188e-06	8.66899e-09	5.78321e-06	0.26768	12408.3	18.5722	12389.8
3163.08	1.57671	0.586294	1.68219	-20.3975	5.41263	0.267879	-0.129129	85.8213	10.425	1	9	0.00470642	0.0027978	0	-0.000525767	0.000267614	1.16123e-05	-82.7053	0.0041505	0.000527004	0.0041169	-20.5225	1.68412	1.57724	0.59041	0.55719	0.207189	0.594464	20.3975	10425	28035.8	29911.3	-69.6025	0.0000000E+000	0.0000000E+000	0.0000000E+000	69.6025	0.0000000E+000	0.0000000E+000	0.0000000E+000	-69.6025	0.0000000E+000	0.0000000E+000	0.0000000E+000	-20.3975	0.0000000E+000	0.0000000E+000	0.0000000E+000	20.3975	2.68928	69.6025	-1.33713e-05	-3.4591e-05	-3.45568e-08	-3.45564e-05	0.267611	2074.5	2.07245	2072.43
1000.32	1.99421	0.95307	2.21025	-25.544	6.76585	0.267928	-0.0579524	166.938	31.04	1	9	0.0045951	0.00207899	0	-0.000544196	3.42479e-07	6.091e-06	68.8534	0.00292978	0.00105693	-0.00273249	-25.4682	2.21003	1.99527	0.950337	0.408213	0.195092	0.452437	25.544	31040	64948.3	71984.5	-64.456	0.0000000E+000	0.0000000E+000	0.0000000E+000	64.456	0.0000000E+000	0.0000000E+000	0.0000000E+000	-64.456	0.0000000E+000	0.0000000E+000	0.0000000E+000	-25.544	0.0000000E+000	0.0000000E+000	0.0000000E+000	25.544	2.09241	64.456	-8.2238e-06	-1.55271e-05	-1.98475e-11	-1.5527e-05	0.267928	4623.25	0.00590967	4623.24
316.316	2.73247	1.75509	3.24757	-32.713	8.36009	0.267984	-0.0455741	286.682	83.73	1	10	0.0045963	0.0014153	0	-0.000566594	7.67059e-05	5.48726e-06	-49.8613	0.00387708	0.00249933	0.00296398	-32.7331	3.25127	2.73496	1.75805	0.259083	0.166411	0.307923	32.713	83730	130358	154932	-57.287	0.0000000E+000	0.0000000E+000	0.0000000E+000	57.287	0.0000000E+000	0.0000000E+000	0.0000000E+000	-57.287	0.0000000E+000	0.0000000E+000	0.0000000E+000	-32.713	0.0000000E+000	0.0000000E+000	0.0000000E+000	32.713	1.55688	57.287	-8.70706e-06	-1.22131e-05	-3.4958e-09	-1.22096e-05	0.267907	5880.18	1.6831	5878.5
100.032	4.56855	2.88107	5.40113	-32.2368	9.70778	0.268	-0.0447694	552.24	157.132	1	10	0.00454749	0.000841953	0	-0.000584354	0.000229433	1.16224e-05	-27.5045	0.0138041	0.0122439	0.00637498	-32.2247	5.41488	4.58079	2.88744	0.156606	0.0987608	0.185147	32.2368	157132	249167	294576	-57.7632	0.0000000E+000	0.0000000E+000	0.0000000E+000	57.7632	0.0000000E+000	0.0000000E+000	0.0000000E+000	-57.7632	0.0000000E+000	0.0000000E+000	0.0000000E+000	-32.2368	0.0000000E+000	0.0000000E+000	0.0000000E+000	32.2368	1.58571	57.7632	-4.96636e-06	-1.19982e-05	-1.02716e-08	-1.19879e-05	0.267771	5986.23	5.12476	5981.11
31.6296	7.3872	3.00136	7.97364	-22.1115	11.0366	0.267992	-0.0459131	1676.52	237.538	1	10	0.00454734	0.000570297	0	-0.000601013	0.000153069	1.22425e-05	2.30726	0.0214669	0.0214495	-0.000864224	-22.0479	7.99319	7.40865	3.0005	0.11619	0.0472069	0.125413	22.1115	237538	584647	631060	-67.8885	0.0000000E+000	0.0000000E+000	0.0000000E+000	67.8885	0.0000000E+000	0.0000000E+000	0.0000000E+000	-67.8885	0.0000000E+000	0.0000000E+000	0.0000000E+000	-22.1115	0.0000000E+000	0.0000000E+000	0.0000000E+000	22.1115	2.46128	67.8885	-6.40888e-06	-1.23044e-05	-7.02788e-09	-1.22973e-05	0.267839	5836.95	3.33389	5833.62
[...]
1.00006	11.3039	1.07208	11.3546	-5.41782	18.7399	0.268022	-0.0217276	148445	1323.35	1	11	0.00454576	0.000400345	0	-0.000674613	-9.51117e-05	1.09766e-06	-78.4325	0.00274178	0.000549788	0.00268609	-5.43106	11.3554	11.3044	1.07476	0.0876767	0.0083154	0.0880701	5.41782	1.32335e+06	1.39533e+07	1.40159e+07	-84.5822	0.0000000E+000	0.0000000E+000	0.0000000E+000	84.5822	0.0000000E+000	0.0000000E+000	0.0000000E+000	-84.5822	0.0000000E+000	0.0000000E+000	0.0000000E+000	-5.41782	0.0000000E+000	0.0000000E+000	0.0000000E+000	5.41782	10.5439	84.5822	-2.51766e-05	-5.82348e-06	2.06655e-09	-5.82554e-06	0.268117	12335.6	4.37746	12339.9
0.316193	11.8374	1.1615	11.8943	-5.60398	33.082	0.268027	-0.0195703	433359	4132.48	1	11	0.00454389	0.000382023	0	-0.000730273	0.000133978	2.09317e-06	47.9743	0.00547918	0.00366811	-0.00407018	-5.58275	11.8975	11.8411	1.15743	0.0836722	0.00820999	0.084074	5.60398	4.13248e+06	4.21162e+07	4.23184e+07	-84.396	0.0000000E+000	0.0000000E+000	0.0000000E+000	84.396	0.0000000E+000	0.0000000E+000	0.0000000E+000	-84.396	0.0000000E+000	0.0000000E+000	0.0000000E+000	-5.60398	0.0000000E+000	0.0000000E+000	0.0000000E+000	5.60398	10.1915	84.396	-8.10163e-06	-5.24537e-06	-2.622e-09	-5.24275e-06	0.267893	13695.6	6.84601	13688.8
0.0999041	12.5438	1.9083	12.6882	-8.65011	78.2901	0.268024	-0.00877927	834815	18883.6	1	11	0.00454638	0.000358317	0	-0.000781806	1.94333e-05	2.05737e-06	-33.7568	0.00574176	0.00477372	0.00319052	-8.6611	12.6934	12.5486	1.91149	0.0779171	0.0118536	0.0788136	8.65011	1.88836e+07	1.24128e+08	1.25556e+08	-81.3499	0.0000000E+000	0.0000000E+000	0.0000000E+000	81.3499	0.0000000E+000	0.0000000E+000	0.0000000E+000	-81.3499	0.0000000E+000	0.0000000E+000	0.0000000E+000	-8.65011	0.0000000E+000	0.0000000E+000	0.0000000E+000	8.65011	6.57331	81.3499	-4.76368e-05	-2.35306e-06	-1.7061e-10	-2.35289e-06	0.268005	30529.3	2.21355	30527
0.0315922	13.8105	3.7266	14.3044	-15.101	221.174	0.268023	-0.00685089	1.35185e+06	91751	1	11	0.00454144	0.000317484	0	-0.00157686	0.000153069	2.52866e-06	16.3434	0.00796468	0.00764285	-0.00224121	-15.0843	14.3112	13.8181	3.72436	0.0674943	0.0182126	0.0699083	15.101	9.1751e+07	3.40022e+08	3.52184e+08	-74.899	0.0000000E+000	0.0000000E+000	0.0000000E+000	74.899	0.0000000E+000	0.0000000E+000	0.0000000E+000	-74.899	0.0000000E+000	0.0000000E+000	0.0000000E+000	-15.101	0.0000000E+000	0.0000000E+000	0.0000000E+000	15.101	3.70592	74.899	-0.000400276	-1.8362e-06	-1.04866e-09	-1.83515e-06	0.26787	39122.4	22.343	39100.1
0.0100092	16.0585	8.07653	17.9751	-26.6999	740.717	0.268023	-0.00804036	1.96878e+06	397469	1	12	0.00454257	0.000252714	0	-0.00222228	-1.87484e-05	2.67617e-06	40.0303	0.0105897	0.00810858	-0.00681123	-26.6689	17.9793	16.0666	8.06972	0.0497005	0.0249966	0.0556324	26.6999	3.97469e+08	7.90283e+08	8.84606e+08	-63.3001	0.0000000E+000	0.0000000E+000	0.0000000E+000	63.3001	0.0000000E+000	0.0000000E+000	0.0000000E+000	-63.3001	0.0000000E+000	0.0000000E+000	0.0000000E+000	-26.6999	0.0000000E+000	0.0000000E+000	0.0000000E+000	26.6999	1.98829	63.3001	0.000132378	-2.155e-06	1.50744e-10	-2.15515e-06	0.268042	33334.7	2.33178	33337

File: 17922_R288_UA670_SOC00_C03.mpt
EC-Lab ASCII FILE
Nb header lines : 64

Potentio Electrochemical Impedance Spectroscopy

Run on channel : 3 (SN 65921)
User :
CE vs. WE compliance from -10 V to 10 V
Electrode connection : standard
Potential control : Ewe
Ewe ctrl range : min = -10.00 V, max = 10.00 V
Safety Limits :
	Do not start on E overload
Acquisition started on : 09/29/2025 15:13:12.029
Loaded Setting File :  C:\Users\Celltest\OneDrive - store-dot.com\Documents\EC-Lab\Data\@Biologic Test Protocols\anode half cell EIS SOC00.mps
Saved on :
	File : 17922_R288_UA670_SOC00_C03.mpr
	Directory : C:\Users\Celltest\OneDrive - store-dot.com\Documents\EC-Lab\Data\Charmaine\
	Host : 169.254.61.224
Device : VMP-3e (SN .003165)
Address : USB
EC-LAB for windows v11.62 (software)
Internet server v27.00 (firmware)
Command interpretor v12.03 (firmware)
Electrode material :
Initial state :
Electrolyte :
Comments :
Electrode surface area : 0.001 cm²
Characteristic mass : 0.001 g
Equivalent Weight : 0.000 g/eq.
Density : 0.000 g/cm3
Volume (V) : 0.001 cm³
Record Ece
Cycle Definition : Charge/Discharge alternance
Mode                Single sine
E (V)               0.0000
vs.                 Eoc
tE (h:m:s)          0:00:0.0000
record              0
dI                  0.000
unit dI             mA
dt (s)              0.000
fi                  100.000
unit fi             kHz
ff                  10.000
unit ff             mHz
Nd                  6
Points              per decade
spacing             Logarithmic
Va (mV)             5.0
pw                  0.10
Na                  2
corr                0
E range min (V)     -10.000
E range max (V)     10.000
I Range             Auto
Bandwidth           5
nc cycles           0
goto Ns'            0
nr cycles           0
inc. cycle          0

freq/Hz	Re(Z)/Ohm	-Im(Z)/Ohm	|Z|/Ohm	Phase(Z)/deg	time/s	<Ewe>/V	<I>/mA	Cs/µF	Cp/µF	cycle number	I Range	|Ewe|/V	|I|/A	Ns	(Q-Qo)/mA.h	<Ece>/V	|Ece|/V	Phase(Zce)/deg	|Zce|/Ohm	Re(Zce)/Ohm	-Im(Zce)/Ohm	Phase(Zwe-ce)/deg	|Zwe-ce|/Ohm	Re(Zwe-ce)/Ohm	-Im(Zwe-ce)/Ohm	Re(Y)/Ohm-1	Im(Y)/Ohm-1	|Y|/Ohm-1	Phase(Y)/deg	Re(C)/nF	Im(C)/nF	|C|/nF	Phase(C)/deg	Re(M)	Im(M)	|M|	Phase(M)/deg	Re(Permittivity)	Im(Permittivity)	|Permittivity|	Phase(Permittivity)/deg	Re(Resistivity)/Ohm.cm	Im(Resistivity)/Ohm.cm	|Resistivity|/Ohm.cm	Phase(Resistivity)/deg	Re(Conductivity)/mS/cm	Im(Conductivity)/mS/cm	|Conductivity|/mS/cm	Phase(Conductivity)/deg	Tan(Delta)	Loss Angle(Delta)/deg	dq/mA.h	Pwe/W	Pce/W	Pwe-ce/W	<Ewe-Ece>/V	Rwe/Ohm	Rce/Ohm	Rwe-ce/Ohm		Ewe-Ece/V
100004	0.812913	0.205701	0.838535	-14.2002	1.86853	0.265498	0.0457156	7.73691	0.465584	1	9	0.00495777	0.00591242	0	-1.38983e-05	-4.13882e-06	4.28083e-05	95.4944	0.0072404	-0.000693261	-0.00720713	-13.733	0.836123	0.81222	0.198494	1.15612	0.292546	1.19256	14.2002	465.584	1839.95	1897.94	-75.7999	0.0000000E+000	0.0000000E+000	0.0000000E+000	75.7999	0.0000000E+000	0.0000000E+000	0.0000000E+000	-75.7999	0.0000000E+000	0.0000000E+000	0.0000000E+000	-14.2002	0.0000000E+000	0.0000000E+000	0.0000000E+000	14.2002	3.95192	75.7999	-1.38983e-05	1.21374e-05	-1.89208e-10	1.21376e-05	0.265502	5807.61	0.090534	5807.7
31621.1	0.983609	0.305588	1.02999	-17.259	3.14355	0.265491	0.0542185	16.4705	1.44983	1	9	0.00504563	0.00489874	0	4.46254e-05	1.49552e-05	1.68384e-05	65.5743	0.00343729	0.00142136	-0.00312964	-17.0693	1.03042	0.985031	0.302458	0.927171	0.288054	0.970887	17.259	1449.83	4666.62	4886.65	-72.741	0.0000000E+000	0.0000000E+000	0.0000000E+000	72.741	0.0000000E+000	0.0000000E+000	0.0000000E+000	-72.741	0.0000000E+000	0.0000000E+000	0.0000000E+000	-17.259	0.0000000E+000	0.0000000E+000	0.0000000E+000	17.259	3.21875	72.741	1.46877e-05	1.43945e-05	8.10851e-10	1.43937e-05	0.265476	4896.69	0.275833	4896.42
10002.2	1.2276	0.449123	1.30718	-20.0953	4.41657	0.265491	0.048065	35.4289	4.18236	1	9	0.0050329	0.00385021	0	6.58941e-05	-8.05151e-05	1.44426e-05	20.2625	0.00375112	0.00351899	-0.00129909	-19.9891	1.31004	1.23112	0.447824	0.718436	0.262844	0.765008	20.0953	4182.36	11431.7	12172.8	-69.9047	0.0000000E+000	0.0000000E+000	0.0000000E+000	69.9047	0.0000000E+000	0.0000000E+000	0.0000000E+000	-69.9047	0.0000000E+000	0.0000000E+000	0.0000000E+000	-20.0953	0.0000000E+000	0.0000000E+000	0.0000000E+000	20.0953	2.73332	69.9047	1.8286e-06	1.27608e-05	-3.86996e-09	1.27647e-05	0.265572	5523.58	1.67513	5525.26
3163.08	1.58465	0.66449	1.71833	-22.7498	5.44363	0.265223	-0.123635	75.7219	11.3236	1	9	0.00487935	0.00283959	0	6.1362e-05	0.00012952	7.00126e-06	-4.47741	0.00246559	0.00245807	0.000192479	-22.724	1.72067	1.58711	0.664683	0.536686	0.225048	0.581961	22.7498	11323.6	27004.1	29282.2	-67.2502	0.0000000E+000	0.0000000E+000	0.0000000E+000	67.2502	0.0000000E+000	0.0000000E+000	0.0000000E+000	-67.2502	0.0000000E+000	0.0000000E+000	0.0000000E+000	-22.7498	0.0000000E+000	0.0000000E+000	0.0000000E+000	22.7498	2.38476	67.2502	-1.15757e-05	-3.27908e-05	-1.60131e-08	-3.27747e-05	0.265094	2145.22	1.0476	2144.17
1000.32	2.1048	1.02275	2.34013	-25.9156	6.79679	0.265317	-0.0160799	155.565	29.7146	1	9	0.00474695	0.0020285	0	5.74349e-05	-4.23269e-05	4.11208e-06	-90.9824	0.00202716	-3.47577e-05	0.00202686	-25.9606	2.34099	2.10477	1.02478	0.384354	0.186762	0.427326	25.9156	29714.6	61152.2	67989.3	-64.0844	0.0000000E+000	0.0000000E+000	0.0000000E+000	64.0844	0.0000000E+000	0.0000000E+000	0.0000000E+000	-64.0844	0.0000000E+000	0.0000000E+000	0.0000000E+000	-25.9156	0.0000000E+000	0.0000000E+000	0.0000000E+000	25.9156	2.05799	64.0844	-2.11747e-07	-4.26629e-06	6.80615e-10	-4.26697e-06	0.26536	16499.9	2.63228	16502.5
316.316	2.96416	1.64944	3.39219	-29.0943	8.39206	0.265365	-0.0453848	305.044	72.1236	1	10	0.00475263	0.00140105	0	4.49401e-05	-0.000214174	1.02194e-05	109.532	0.00729407	-0.00243868	-0.00687432	-29.0127	3.38671	2.96172	1.64257	0.257598	0.143344	0.294795	29.0943	72123.6	129611	148327	-60.9057	0.0000000E+000	0.0000000E+000	0.0000000E+000	60.9057	0.0000000E+000	0.0000000E+000	0.0000000E+000	-60.9057	0.0000000E+000	0.0000000E+000	0.0000000E+000	-29.0943	0.0000000E+000	0.0000000E+000	0.0000000E+000	29.0943	1.79707	60.9057	-5.00209e-06	-1.20435e-05	9.72023e-09	-1.20532e-05	0.265579	5846.99	4.71905	5851.7
100.032	4.59242	2.35705	5.16198	-27.169	9.73877	0.265359	-0.0437292	675.014	140.74	1	10	0.00472295	0.00091495	0	2.76674e-05	-6.1421e-05	6.28403e-06	-49.54	0.00686816	0.00445687	0.0052257	-27.198	5.16833	4.59688	2.36227	0.172349	0.0884577	0.193724	27.169	140740	274215	308223	-62.831	0.0000000E+000	0.0000000E+000	0.0000000E+000	62.831	0.0000000E+000	0.0000000E+000	0.0000000E+000	-62.831	0.0000000E+000	0.0000000E+000	0.0000000E+000	-27.169	0.0000000E+000	0.0000000E+000	0.0000000E+000	27.169	1.94838	62.831	-4.11014e-06	-1.16039e-05	2.68589e-09	-1.16066e-05	0.26542	6068.23	1.40458	6069.63
31.6296	6.76002	2.32714	7.14937	-18.9961	11.0676	0.265393	-0.0428567	2162.24	229.095	1	10	0.00471021	0.000658829	0	1.25013e-05	-2.32329e-05	4.67126e-06	12.4935	0.00709025	0.00692236	-0.00153382	-18.9664	7.15541	6.76694	2.32561	0.132255	0.045529	0.139873	18.9961	229095	665487	703817	-71.0039	0.0000000E+000	0.0000000E+000	0.0000000E+000	71.0039	0.0000000E+000	0.0000000E+000	0.0000000E+000	-71.0039	0.0000000E+000	0.0000000E+000	0.0000000E+000	-18.9961	0.0000000E+000	0.0000000E+000	0.0000000E+000	18.9961	2.90486	71.0039	-5.22472e-06	-1.13738e-05	9.95684e-10	-1.13748e-05	0.265416	6192.57	0.542107	6193.11
[...]
1.00006	9.73289	0.878251	9.77244	-5.15614	18.7716	0.265412	-0.0223057	181206	1463.54	1	11	0.00472307	0.000483305	0	-4.97824e-05	0.00012952	2.49204e-06	40.5785	0.00515625	0.00391625	-0.00335409	-5.1345	9.77604	9.73681	0.874897	0.101915	0.00919629	0.102329	5.15614	1.46354e+06	1.62192e+07	1.62851e+07	-84.8439	0.0000000E+000	0.0000000E+000	0.0000000E+000	84.8439	0.0000000E+000	0.0000000E+000	0.0000000E+000	-84.8439	0.0000000E+000	0.0000000E+000	0.0000000E+000	-5.15614	0.0000000E+000	0.0000000E+000	0.0000000E+000	5.15614	11.0821	84.8439	-2.71529e-05	-5.9202e-06	-2.88902e-09	-5.91731e-06	0.265283	11898.9	5.80658	11893.1
0.316193	10.1968	1.02829	10.2485	-5.75853	33.1128	0.2654	-0.0218727	489497	4927.95	1	11	0.00470989	0.00045957	0	-0.000171361	-2.32329e-05	2.0343e-06	-43.6204	0.00442654	0.00320449	0.00305377	-5.77372	10.252	10.2	1.03135	0.097083	0.00979035	0.0975754	5.75853	4.92794e+06	4.88665e+07	4.91143e+07	-84.2415	0.0000000E+000	0.0000000E+000	0.0000000E+000	84.2415	0.0000000E+000	0.0000000E+000	0.0000000E+000	-84.2415	0.0000000E+000	0.0000000E+000	0.0000000E+000	-5.75853	0.0000000E+000	0.0000000E+000	0.0000000E+000	5.75853	9.91619	84.2415	-3.69609e-05	-5.80501e-06	5.08165e-10	-5.80552e-06	0.265423	12133.9	1.06219	12134.9
0.0999041	10.7855	1.79873	10.9345	-9.46822	78.3207	0.265408	-0.0117209	885670	23966.6	1	11	0.00471169	0.000430902	0	-0.000138033	0.000244084	2.22019e-06	-40.1794	0.00515241	0.00393659	0.00332425	-9.482	10.9389	10.7895	1.80205	0.090208	0.0150442	0.0914539	9.46822	2.39666e+07	1.43708e+08	1.45693e+08	-80.5318	0.0000000E+000	0.0000000E+000	0.0000000E+000	80.5318	0.0000000E+000	0.0000000E+000	0.0000000E+000	-80.5318	0.0000000E+000	0.0000000E+000	0.0000000E+000	-9.46822	0.0000000E+000	0.0000000E+000	0.0000000E+000	9.46822	5.9962	80.5318	2.65176e-05	-3.11082e-06	-2.86089e-09	-3.10796e-06	0.265163	22643.9	20.8246	22623.1
0.0315922	11.9569	3.72926	12.525	-17.3222	221.203	0.265406	-0.00514002	1.35088e+06	119759	1	11	0.00471001	0.000376049	0	-0.000701449	-0.000118703	2.13501e-06	2.05263	0.00567749	0.00567384	-0.000203353	-17.3136	12.5303	11.9626	3.72905	0.0762193	0.0237721	0.0798404	17.3222	1.19759e+08	3.83977e+08	4.02219e+08	-72.6778	0.0000000E+000	0.0000000E+000	0.0000000E+000	72.6778	0.0000000E+000	0.0000000E+000	0.0000000E+000	-72.6778	0.0000000E+000	0.0000000E+000	0.0000000E+000	-17.3222	0.0000000E+000	0.0000000E+000	0.0000000E+000	17.3222	3.20625	72.6778	-0.000397535	-1.36419e-06	6.10137e-10	-1.3648e-06	0.265525	51635.2	23.0939	51658.3
0.0100092	14.2498	7.99319	16.3386	-29.2895	772.616	0.265405	-0.00828501	1.98931e+06	476118	1	12	0.00470879	0.000288201	0	-0.00272834	0.00022499	1.75992e-06	27.8071	0.00610658	0.00540141	-0.00284869	-29.2715	16.3419	14.2552	7.99034	0.0533804	0.0299428	0.0612049	29.2895	4.76118e+08	8.48797e+08	9.73214e+08	-60.7105	0.0000000E+000	0.0000000E+000	0.0000000E+000	60.7105	0.0000000E+000	0.0000000E+000	0.0000000E+000	-60.7105	0.0000000E+000	0.0000000E+000	0.0000000E+000	-29.2895	0.0000000E+000	0.0000000E+000	0.0000000E+000	29.2895	1.78275	60.7105	-0.000666159	-2.19888e-06	-1.86404e-09	-2.19702e-06	0.26518	32034.4	27.1563	32007.2