Folder: EIS/txt (part 17)

File: 17390_R279_UA649_SOC00_C08.mpt
EC-Lab ASCII FILE
Nb header lines : 63

Potentio Electrochemical Impedance Spectroscopy

Run on channel : 8 (SN 65398)
User :
CE vs. WE compliance from -10 V to 10 V
Electrode connection : standard
Potential control : Ewe
Ewe ctrl range : min = -10.00 V, max = 10.00 V
Safety Limits :
	Do not start on E overload
Acquisition started on : 09/10/2025 16:54:56.116
Loaded Setting File :  C:\Users\Celltest\OneDrive - store-dot.com\Documents\EC-Lab\Data\Charmaine\R279\17383_C02.mpr
Saved on :
	File : 17390_C08.mpr
	Directory : C:\Users\Celltest\OneDrive - store-dot.com\Documents\EC-Lab\Data\Charmaine\R279\
	Host : 169.254.61.224
Device : VMP-3e (SN .003165)
Address : USB
EC-LAB for windows v11.62 (software)
Internet server v27.00 (firmware)
Command interpretor v12.03 (firmware)
Electrode material :
Initial state :
Electrolyte :
Comments :
Electrode surface area : 0.001 cm²
Characteristic mass : 0.001 g
Equivalent Weight : 0.000 g/eq.
Density : 0.000 g/cm3
Volume (V) : 0.001 cm³
Cycle Definition : Charge/Discharge alternance
Mode                Single sine
E (V)               0.0000
vs.                 Eoc
tE (h:m:s)          0:00:0.0000
record              0
dI                  0.000
unit dI             mA
dt (s)              0.000
fi                  100.000
unit fi             kHz
ff                  10.000
unit ff             mHz
Nd                  6
Points              per decade
spacing             Logarithmic
Va (mV)             5.0
pw                  0.10
Na                  2
corr                0
E range min (V)     -10.000
E range max (V)     10.000
I Range             Auto
Bandwidth           5
nc cycles           0
goto Ns'            0
nr cycles           0
inc. cycle          0

freq/Hz	Re(Z)/Ohm	-Im(Z)/Ohm	|Z|/Ohm	Phase(Z)/deg	time/s	<Ewe>/V	<I>/mA	Cs/µF	Cp/µF	cycle number	I Range	|Ewe|/V	|I|/A	Ns	(Q-Qo)/mA.h	Re(Y)/Ohm-1	Im(Y)/Ohm-1	|Y|/Ohm-1	Phase(Y)/deg	Re(C)/nF	Im(C)/nF	|C|/nF	Phase(C)/deg	Re(M)	Im(M)	|M|	Phase(M)/deg	Re(Permittivity)	Im(Permittivity)	|Permittivity|	Phase(Permittivity)/deg	Re(Resistivity)/Ohm.cm	Im(Resistivity)/Ohm.cm	|Resistivity|/Ohm.cm	Phase(Resistivity)/deg	Re(Conductivity)/mS/cm	Im(Conductivity)/mS/cm	|Conductivity|/mS/cm	Phase(Conductivity)/deg	Tan(Delta)	Loss Angle(Delta)/deg	dq/mA.h	Pwe/W	Rwe/Ohm
100004	1.21112	0.223387	1.23155	-10.4506	2.22649	0.29014	0.0468958	7.12436	0.2344	1	9	0.00442353	0.00359183	0	7.2282e-06	0.798515	0.147283	0.811984	10.4506	234.4	1270.83	1292.27	-79.5494	0.0000000E+000	0.0000000E+000	0.0000000E+000	79.5494	0.0000000E+000	0.0000000E+000	0.0000000E+000	-79.5494	0.0000000E+000	0.0000000E+000	0.0000000E+000	-10.4506	0.0000000E+000	0.0000000E+000	0.0000000E+000	10.4506	5.42163	79.5494	7.2282e-06	1.36064e-05	6186.91
46420.4	1.32558	0.286577	1.35621	-12.199	3.10149	0.290147	0.0475097	11.9638	0.534197	1	9	0.00512544	0.00377925	0	1.54837e-05	0.720701	0.155808	0.73735	12.199	534.197	2470.96	2528.05	-77.801	0.0000000E+000	0.0000000E+000	0.0000000E+000	77.801	0.0000000E+000	0.0000000E+000	0.0000000E+000	-77.801	0.0000000E+000	0.0000000E+000	0.0000000E+000	-12.199	0.0000000E+000	0.0000000E+000	0.0000000E+000	12.199	4.62557	77.801	3.35652e-06	1.37848e-05	6107.12
21544.7	1.46585	0.369608	1.51173	-14.1518	4.11849	0.290146	0.0466354	19.9866	1.19473	1	9	0.00505516	0.00334395	0	2.79257e-05	0.641416	0.16173	0.661492	14.1518	1194.73	4738.27	4886.58	-75.8482	0.0000000E+000	0.0000000E+000	0.0000000E+000	75.8482	0.0000000E+000	0.0000000E+000	0.0000000E+000	-75.8482	0.0000000E+000	0.0000000E+000	0.0000000E+000	-14.1518	0.0000000E+000	0.0000000E+000	0.0000000E+000	14.1518	3.96598	75.8482	9.4226e-06	1.35311e-05	6221.58
10002.2	1.64811	0.476848	1.71571	-16.1367	5.13448	0.290152	0.0474911	33.3691	2.5776	1	9	0.00479833	0.0027967	0	4.1455e-05	0.559886	0.161991	0.582849	16.1367	2577.6	8908.87	9274.27	-73.8633	0.0000000E+000	0.0000000E+000	0.0000000E+000	73.8633	0.0000000E+000	0.0000000E+000	0.0000000E+000	-73.8633	0.0000000E+000	0.0000000E+000	0.0000000E+000	-16.1367	0.0000000E+000	0.0000000E+000	0.0000000E+000	16.1367	3.45627	73.8633	3.59534e-06	1.37796e-05	6109.61
4641.49	1.87263	0.626029	1.9745	-18.485	6.60569	0.29014	0.0370558	54.7732	5.50609	1	9	0.00504562	0.00255539	0	4.18283e-05	0.480327	0.160576	0.506457	18.485	5506.09	16470.3	17366.2	-71.515	0.0000000E+000	0.0000000E+000	0.0000000E+000	71.515	0.0000000E+000	0.0000000E+000	0.0000000E+000	-71.515	0.0000000E+000	0.0000000E+000	0.0000000E+000	-18.485	0.0000000E+000	0.0000000E+000	0.0000000E+000	18.485	2.99128	71.515	3.6921e-06	1.07514e-05	7829.81
2155.69	2.144	0.858412	2.30946	-21.8201	7.98567	0.290133	0.0326288	86.0078	11.8825	1	9	0.00513893	0.00222516	0	5.23164e-05	0.401979	0.160944	0.433001	21.8201	11882.5	29678.2	31968.6	-68.1799	0.0000000E+000	0.0000000E+000	0.0000000E+000	68.1799	0.0000000E+000	0.0000000E+000	0.0000000E+000	-68.1799	0.0000000E+000	0.0000000E+000	0.0000000E+000	-21.8201	0.0000000E+000	0.0000000E+000	0.0000000E+000	21.8201	2.49763	68.1799	2.35195e-06	9.46667e-06	8891.93
1000.32	2.48477	1.25344	2.78302	-26.7686	8.92169	0.290137	0.0305268	126.934	25.7485	1	9	0.00532195	0.0019123	0	5.97048e-05	0.320815	0.161834	0.359322	26.7686	25748.5	51042.9	57169.6	-63.2314	0.0000000E+000	0.0000000E+000	0.0000000E+000	63.2314	0.0000000E+000	0.0000000E+000	0.0000000E+000	-63.2314	0.0000000E+000	0.0000000E+000	0.0000000E+000	-26.7686	0.0000000E+000	0.0000000E+000	0.0000000E+000	26.7686	1.98236	63.2314	5.02551e-06	8.85697e-06	9504.34
463.961	3.00106	1.98234	3.59667	-33.4466	10.1112	0.29014	-0.00449345	173.046	52.5673	1	10	0.00522753	0.00145344	0	5.99425e-05	0.231992	0.153242	0.278035	33.4466	52567.3	79581.6	95375.9	-56.5534	0.0000000E+000	0.0000000E+000	0.0000000E+000	56.5534	0.0000000E+000	0.0000000E+000	0.0000000E+000	-56.5534	0.0000000E+000	0.0000000E+000	0.0000000E+000	-33.4466	0.0000000E+000	0.0000000E+000	0.0000000E+000	33.4466	1.5139	56.5534	1.62455e-07	-1.30373e-06	64569.6
215.345	4.00988	3.17902	5.11716	-38.4073	11.0454	0.290132	-0.00527651	232.484	89.7268	1	10	0.00506983	0.000990751	0	5.85443e-05	0.153135	0.121405	0.195421	38.4073	89726.8	113178	144430	-51.5927	0.0000000E+000	0.0000000E+000	0.0000000E+000	51.5927	0.0000000E+000	0.0000000E+000	0.0000000E+000	-51.5927	0.0000000E+000	0.0000000E+000	0.0000000E+000	-38.4073	0.0000000E+000	0.0000000E+000	0.0000000E+000	38.4073	1.26136	51.5927	-1.18398e-06	-1.53089e-06	54985.7
100.032	6.02086	4.65511	7.61057	-37.7099	11.9767	0.290138	-0.00568386	341.784	127.872	1	10	0.00501668	0.000659173	0	5.72983e-05	0.10395	0.0803703	0.131396	37.7099	127872	165389	209057	-52.2901	0.0000000E+000	0.0000000E+000	0.0000000E+000	52.2901	0.0000000E+000	0.0000000E+000	0.0000000E+000	-52.2901	0.0000000E+000	0.0000000E+000	0.0000000E+000	-37.7099	0.0000000E+000	0.0000000E+000	0.0000000E+000	37.7099	1.29339	52.2901	-5.9081e-07	-1.6491e-06	51045.9
46.4415	9.20267	5.51039	10.7263	-30.9124	12.9105	0.290134	-0.00691703	621.915	164.133	1	10	0.00500347	0.000466467	0	5.57391e-05	0.079986	0.0478942	0.0932288	30.9124	164133	274111	319494	-59.0876	0.0000000E+000	0.0000000E+000	0.0000000E+000	59.0876	0.0000000E+000	0.0000000E+000	0.0000000E+000	-59.0876	0.0000000E+000	0.0000000E+000	0.0000000E+000	-30.9124	0.0000000E+000	0.0000000E+000	0.0000000E+000	30.9124	1.67006	59.0876	-1.02318e-06	-2.00686e-06	41944.9
[...]
1.00006	17.6549	2.73305	17.8652	-8.79978	22.2492	0.290156	-0.00257367	58229.7	1362.78	1	12	0.00500174	0.000279972	0	3.83017e-05	0.055316	0.00856315	0.0559748	8.79978	1.36278e+06	8.80325e+06	8.9081e+06	-81.2002	0.0000000E+000	0.0000000E+000	0.0000000E+000	81.2002	0.0000000E+000	0.0000000E+000	0.0000000E+000	-81.2002	0.0000000E+000	0.0000000E+000	0.0000000E+000	-8.79978	0.0000000E+000	0.0000000E+000	0.0000000E+000	8.79978	6.45977	81.2002	-5.64052e-06	-7.46765e-07	112740
0.464091	19.0972	3.29925	19.3801	-9.80171	29.934	0.290152	-0.0028886	103945	3012.45	1	12	0.00500144	0.000258071	0	5.81919e-05	0.0508461	0.00878421	0.0515993	9.80171	3.01245e+06	1.74371e+07	1.76954e+07	-80.1983	0.0000000E+000	0.0000000E+000	0.0000000E+000	80.1983	0.0000000E+000	0.0000000E+000	0.0000000E+000	-80.1983	0.0000000E+000	0.0000000E+000	0.0000000E+000	-9.80171	0.0000000E+000	0.0000000E+000	0.0000000E+000	9.80171	5.78835	80.1983	1.4234e-05	-8.38131e-07	100447
0.215268	21.0951	3.70073	21.4172	-9.95022	46.414	0.290157	-0.00109171	199780	5964.89	1	12	0.00500269	0.000233582	0	7.27927e-05	0.0459891	0.00806792	0.0466914	9.95022	5.96489e+06	3.40013e+07	3.45206e+07	-80.0498	0.0000000E+000	0.0000000E+000	0.0000000E+000	80.0498	0.0000000E+000	0.0000000E+000	0.0000000E+000	-80.0498	0.0000000E+000	0.0000000E+000	0.0000000E+000	-9.95022	0.0000000E+000	0.0000000E+000	0.0000000E+000	9.95022	5.70024	80.0498	7.00268e-07	-3.16768e-07	265781
0.0999041	22.845	3.69313	23.1416	-9.18301	81.8197	0.290157	0.000317386	431362	10986.1	1	12	0.00500247	0.000216168	0	-6.93846e-06	0.0426584	0.00689618	0.0432122	9.18301	1.09861e+07	6.79581e+07	6.88404e+07	-80.817	0.0000000E+000	0.0000000E+000	0.0000000E+000	80.817	0.0000000E+000	0.0000000E+000	0.0000000E+000	-80.817	0.0000000E+000	0.0000000E+000	0.0000000E+000	-9.18301	0.0000000E+000	0.0000000E+000	0.0000000E+000	9.18301	6.18581	80.817	-5.58825e-05	9.20918e-08	914209
0.0464052	24.1445	4.09843	24.4899	-9.6339	158.055	0.290165	-0.00111717	836827	23436.8	1	12	0.00500033	0.000204179	0	-0.000181906	0.0402573	0.00683352	0.0408332	9.6339	2.34368e+07	1.3807e+08	1.40045e+08	-80.3661	0.0000000E+000	0.0000000E+000	0.0000000E+000	80.3661	0.0000000E+000	0.0000000E+000	0.0000000E+000	-80.3661	0.0000000E+000	0.0000000E+000	0.0000000E+000	-9.6339	0.0000000E+000	0.0000000E+000	0.0000000E+000	9.6339	5.89115	80.3661	-9.39806e-05	-3.24165e-07	259732
0.0215268	25.3185	6.11052	26.0455	-13.5686	322.285	0.290164	-0.00207342	1.20994e+06	66597.1	1	12	0.00500127	0.000192021	0	-0.000139443	0.0373228	0.00900771	0.0383944	13.5686	6.65971e+07	2.7594e+08	2.83863e+08	-76.4314	0.0000000E+000	0.0000000E+000	0.0000000E+000	76.4314	0.0000000E+000	0.0000000E+000	0.0000000E+000	-76.4314	0.0000000E+000	0.0000000E+000	0.0000000E+000	-13.5686	0.0000000E+000	0.0000000E+000	0.0000000E+000	13.5686	4.14343	76.4314	8.90579e-05	-6.01631e-07	139945
0.0100092	27.2433	9.839	28.9655	-19.8574	675.503	0.290153	-8.71917e-05	1.61611e+06	186471	1	12	0.00500336	0.000172735	0	0.000598184	0.0324711	0.011727	0.0345238	19.8574	1.86471e+08	5.16319e+08	5.4896e+08	-70.1426	0.0000000E+000	0.0000000E+000	0.0000000E+000	70.1426	0.0000000E+000	0.0000000E+000	0.0000000E+000	-70.1426	0.0000000E+000	0.0000000E+000	0.0000000E+000	-19.8574	0.0000000E+000	0.0000000E+000	0.0000000E+000	19.8574	2.7689	70.1426	0.000444793	-2.52989e-08	3.32776e+06

File: 17391_R279_UA649_SOC00_C01.mpt
EC-Lab ASCII FILE
Nb header lines : 63

Potentio Electrochemical Impedance Spectroscopy

Run on channel : 1 (SN 66354)
User :
CE vs. WE compliance from -10 V to 10 V
Electrode connection : standard
Potential control : Ewe
Ewe ctrl range : min = -10.00 V, max = 10.00 V
Safety Limits :
	Do not start on E overload
Acquisition started on : 09/11/2025 15:38:10.785
Loaded Setting File :  C:\Users\Celltest\OneDrive - store-dot.com\Documents\EC-Lab\Data\Gyutae\EIS_SOC0_C01.mpr
Saved on :
	File : 17391_C01.mpr
	Directory : C:\Users\Celltest\OneDrive - store-dot.com\Documents\EC-Lab\Data\Charmaine\R279\
	Host : 169.254.61.224
Device : VMP-3e (SN .003165)
Address : USB
EC-LAB for windows v11.62 (software)
Internet server v27.00 (firmware)
Command interpretor v12.03 (firmware)
Electrode material :
Initial state :
Electrolyte :
Comments :
Electrode surface area : 0.001 cm²
Characteristic mass : 0.001 g
Equivalent Weight : 0.000 g/eq.
Density : 0.000 g/cm3
Volume (V) : 0.001 cm³
Cycle Definition : Charge/Discharge alternance
Mode                Single sine
E (V)               0.0000
vs.                 Eoc
tE (h:m:s)          0:00:0.0000
record              0
dI                  0.000
unit dI             mA
dt (s)              0.000
fi                  100.000
unit fi             kHz
ff                  10.000
unit ff             mHz
Nd                  6
Points              per decade
spacing             Logarithmic
Va (mV)             5.0
pw                  0.10
Na                  2
corr                0
E range min (V)     -10.000
E range max (V)     10.000
I Range             Auto
Bandwidth           5
nc cycles           0
goto Ns'            0
nr cycles           0
inc. cycle          0

freq/Hz	Re(Z)/Ohm	-Im(Z)/Ohm	|Z|/Ohm	Phase(Z)/deg	time/s	<Ewe>/V	<I>/mA	Cs/µF	Cp/µF	cycle number	I Range	|Ewe|/V	|I|/A	Ns	(Q-Qo)/mA.h	Re(Y)/Ohm-1	Im(Y)/Ohm-1	|Y|/Ohm-1	Phase(Y)/deg	Re(C)/nF	Im(C)/nF	|C|/nF	Phase(C)/deg	Re(M)	Im(M)	|M|	Phase(M)/deg	Re(Permittivity)	Im(Permittivity)	|Permittivity|	Phase(Permittivity)/deg	Re(Resistivity)/Ohm.cm	Im(Resistivity)/Ohm.cm	|Resistivity|/Ohm.cm	Phase(Resistivity)/deg	Re(Conductivity)/mS/cm	Im(Conductivity)/mS/cm	|Conductivity|/mS/cm	Phase(Conductivity)/deg	Tan(Delta)	Loss Angle(Delta)/deg	dq/mA.h	Pwe/W	Rwe/Ohm
100004	1.55043	0.0932666	1.55324	-3.44249	2.70648	0.251722	0.0597328	17.0639	0.0615254	1	9	0.00464058	0.00298768	0	4.22596e-07	0.642655	0.038659	0.643817	3.44249	61.5255	1022.78	1024.63	-86.5575	0.0000000E+000	0.0000000E+000	0.0000000E+000	86.5575	0.0000000E+000	0.0000000E+000	0.0000000E+000	-86.5575	0.0000000E+000	0.0000000E+000	0.0000000E+000	-3.44249	0.0000000E+000	0.0000000E+000	0.0000000E+000	3.44249	16.6237	86.5575	4.22596e-07	1.50361e-05	4214.14
46420.4	1.61612	0.683523	1.75472	-22.9255	3.86348	0.251719	0.0662709	5.01601	0.761112	1	9	0.00509333	0.00290265	0	2.48717e-05	0.524877	0.221992	0.569891	22.9255	761.112	1799.57	1953.91	-67.0745	0.0000000E+000	0.0000000E+000	0.0000000E+000	67.0745	0.0000000E+000	0.0000000E+000	0.0000000E+000	-67.0745	0.0000000E+000	0.0000000E+000	0.0000000E+000	-22.9255	0.0000000E+000	0.0000000E+000	0.0000000E+000	22.9255	2.3644	67.0745	1.17033e-05	1.66817e-05	3798.34
21544.7	1.70448	0.923484	1.93857	-28.4488	4.8785	0.251737	0.0698473	7.99927	1.81528	1	9	0.00539408	0.0027825	0	5.31882e-05	0.453551	0.245734	0.515843	28.4488	1815.28	3350.48	3810.64	-61.5512	0.0000000E+000	0.0000000E+000	0.0000000E+000	61.5512	0.0000000E+000	0.0000000E+000	0.0000000E+000	-61.5512	0.0000000E+000	0.0000000E+000	0.0000000E+000	-28.4488	0.0000000E+000	0.0000000E+000	0.0000000E+000	28.4488	1.8457	61.5512	1.20565e-05	1.75832e-05	3604.1
10002.2	2.03743	0.790953	2.18557	-21.2168	5.75248	0.251729	0.0647994	20.1174	2.63477	1	9	0.00493171	0.00225648	0	7.19236e-05	0.426532	0.165584	0.457546	21.2168	2634.77	6786.96	7280.45	-68.7832	0.0000000E+000	0.0000000E+000	0.0000000E+000	68.7832	0.0000000E+000	0.0000000E+000	0.0000000E+000	-68.7832	0.0000000E+000	0.0000000E+000	0.0000000E+000	-21.2168	0.0000000E+000	0.0000000E+000	0.0000000E+000	21.2168	2.57592	68.7832	7.31965e-06	1.63119e-05	3884.75
4641.49	2.34651	0.783587	2.47389	-18.4661	6.82471	0.251742	0.101178	43.7598	4.39025	1	9	0.00485491	0.00196246	0	8.65995e-05	0.383409	0.128034	0.404221	18.4661	4390.25	13147	13860.6	-71.5339	0.0000000E+000	0.0000000E+000	0.0000000E+000	71.5339	0.0000000E+000	0.0000000E+000	0.0000000E+000	-71.5339	0.0000000E+000	0.0000000E+000	0.0000000E+000	-18.4661	0.0000000E+000	0.0000000E+000	0.0000000E+000	18.4661	2.99458	71.5339	1.68149e-05	2.54709e-05	2488.11
2155.69	2.64285	0.940925	2.80535	-19.5971	7.75868	0.251735	0.09559	78.4655	8.82704	1	9	0.00474135	0.00169011	0	0.000111505	0.335814	0.119559	0.356462	19.5971	8827.04	24793.2	26317.6	-70.4029	0.0000000E+000	0.0000000E+000	0.0000000E+000	70.4029	0.0000000E+000	0.0000000E+000	0.0000000E+000	-70.4029	0.0000000E+000	0.0000000E+000	0.0000000E+000	-19.5971	0.0000000E+000	0.0000000E+000	0.0000000E+000	19.5971	2.80878	70.4029	1.11478e-05	2.40634e-05	2633.49
1000.32	3.03614	1.36404	3.32847	-24.1928	8.94869	0.251706	-0.00774315	116.642	19.5892	1	10	0.00479795	0.00144149	0	0.000129541	0.274051	0.123122	0.300438	24.1928	19589.2	43602.7	47800.9	-65.8072	0.0000000E+000	0.0000000E+000	0.0000000E+000	65.8072	0.0000000E+000	0.0000000E+000	0.0000000E+000	-65.8072	0.0000000E+000	0.0000000E+000	0.0000000E+000	-24.1928	0.0000000E+000	0.0000000E+000	0.0000000E+000	24.1928	2.22585	65.8072	7.67816e-06	-1.949e-06	32507
463.961	3.62122	2.13956	4.20607	-30.5763	9.88322	0.251722	-0.00708348	160.33	41.487	1	10	0.00473724	0.00112629	0	0.000128379	0.204693	0.120941	0.237752	30.5763	41487	70217	81557.3	-59.4237	0.0000000E+000	0.0000000E+000	0.0000000E+000	59.4237	0.0000000E+000	0.0000000E+000	0.0000000E+000	-59.4237	0.0000000E+000	0.0000000E+000	0.0000000E+000	-30.5763	0.0000000E+000	0.0000000E+000	0.0000000E+000	30.5763	1.69251	59.4237	-1.0121e-06	-1.78307e-06	35536.4
215.345	4.73743	3.37628	5.81744	-35.4768	10.8175	0.251698	-0.0084755	218.901	73.733	1	10	0.00469539	0.000807124	0	0.000127675	0.139984	0.0997644	0.171897	35.4768	73733	103458	127044	-54.5232	0.0000000E+000	0.0000000E+000	0.0000000E+000	54.5232	0.0000000E+000	0.0000000E+000	0.0000000E+000	-54.5232	0.0000000E+000	0.0000000E+000	0.0000000E+000	-35.4768	0.0000000E+000	0.0000000E+000	0.0000000E+000	35.4768	1.40315	54.5232	-1.82697e-07	-2.13327e-06	29697.2
100.032	6.95953	4.77419	8.43966	-34.4499	11.7487	0.251704	-0.0080525	333.259	106.643	1	10	0.00469034	0.00055575	0	0.000124785	0.0977079	0.067027	0.118488	34.4499	106643	155457	188519	-55.5501	0.0000000E+000	0.0000000E+000	0.0000000E+000	55.5501	0.0000000E+000	0.0000000E+000	0.0000000E+000	-55.5501	0.0000000E+000	0.0000000E+000	0.0000000E+000	-34.4499	0.0000000E+000	0.0000000E+000	0.0000000E+000	34.4499	1.45774	55.5501	-1.47927e-06	-2.02685e-06	31257.9
46.4415	10.253	5.30745	11.5452	-27.3683	12.6825	0.251701	-0.0127093	645.695	136.456	1	10	0.00468524	0.000405816	0	0.000122313	0.0769208	0.039818	0.0866157	27.3683	136456	263607	296832	-62.6317	0.0000000E+000	0.0000000E+000	0.0000000E+000	62.6317	0.0000000E+000	0.0000000E+000	0.0000000E+000	-62.6317	0.0000000E+000	0.0000000E+000	0.0000000E+000	-27.3683	0.0000000E+000	0.0000000E+000	0.0000000E+000	27.3683	1.93181	62.6317	-1.51101e-06	-3.19895e-06	19804.4
[...]
1.00006	17.5164	2.33229	17.6709	-7.58429	22.0212	0.251755	-0.00238445	68235.3	1188.66	1	12	0.00468655	0.000265212	0	0.000119191	0.056095	0.00746902	0.0565901	7.58429	1.18866e+06	8.92723e+06	9.00602e+06	-82.4157	0.0000000E+000	0.0000000E+000	0.0000000E+000	82.4157	0.0000000E+000	0.0000000E+000	0.0000000E+000	-82.4157	0.0000000E+000	0.0000000E+000	0.0000000E+000	-7.58429	0.0000000E+000	0.0000000E+000	0.0000000E+000	7.58429	7.51035	82.4157	8.36602e-06	-6.00297e-07	105582
0.464091	18.8067	2.83206	19.0187	-8.5637	29.7059	0.251756	-0.00134532	121092	2685.08	1	12	0.00468554	0.000246365	0	0.000112784	0.0519936	0.0078296	0.0525798	8.5637	2.68508e+06	1.78306e+07	1.80317e+07	-81.4363	0.0000000E+000	0.0000000E+000	0.0000000E+000	81.4363	0.0000000E+000	0.0000000E+000	0.0000000E+000	-81.4363	0.0000000E+000	0.0000000E+000	0.0000000E+000	-8.5637	0.0000000E+000	0.0000000E+000	0.0000000E+000	8.5637	6.64064	81.4363	-9.30268e-06	-3.38694e-07	187134
0.215268	20.4256	3.09666	20.659	-8.6208	46.186	0.251757	-0.000825366	238752	5364.36	1	12	0.00468792	0.000226919	0	5.70393e-05	0.0478583	0.00725566	0.0484051	8.6208	5.36436e+06	3.53833e+07	3.57876e+07	-81.3792	0.0000000E+000	0.0000000E+000	0.0000000E+000	81.3792	0.0000000E+000	0.0000000E+000	0.0000000E+000	-81.3792	0.0000000E+000	0.0000000E+000	0.0000000E+000	-8.6208	0.0000000E+000	0.0000000E+000	0.0000000E+000	8.6208	6.59599	81.3792	-3.16742e-05	-2.07791e-07	305025
0.0999041	21.9673	3.27944	22.2108	-8.49083	81.5925	0.251753	-0.00268509	485777	10590.3	1	12	0.00468577	0.000210969	0	2.45498e-05	0.0445297	0.00664773	0.0450232	8.49083	1.05903e+07	7.09393e+07	7.17255e+07	-81.5092	0.0000000E+000	0.0000000E+000	0.0000000E+000	81.5092	0.0000000E+000	0.0000000E+000	0.0000000E+000	-81.5092	0.0000000E+000	0.0000000E+000	0.0000000E+000	-8.49083	0.0000000E+000	0.0000000E+000	0.0000000E+000	8.49083	6.69849	81.5092	-5.58277e-06	-6.75979e-07	93759.5
0.0464052	23.0097	4.01464	23.3573	-9.89711	157.829	0.25175	-0.00189918	854294	25238	1	12	0.00468439	0.000200554	0	0.000143164	0.042176	0.00735871	0.0428132	9.89711	2.5238e+07	1.4465e+08	1.46836e+08	-80.1029	0.0000000E+000	0.0000000E+000	0.0000000E+000	80.1029	0.0000000E+000	0.0000000E+000	0.0000000E+000	-80.1029	0.0000000E+000	0.0000000E+000	0.0000000E+000	-9.89711	0.0000000E+000	0.0000000E+000	0.0000000E+000	9.89711	5.73145	80.1029	9.16848e-05	-4.78119e-07	132558
0.0215268	24.3574	6.32359	25.1649	-14.5536	322.057	0.25175	0.00102584	1.16917e+06	73827	1	12	0.00468545	0.00018619	0	0.000416593	0.0384629	0.00998561	0.039738	14.5536	7.3827e+07	2.84369e+08	2.93796e+08	-75.4463	0.0000000E+000	0.0000000E+000	0.0000000E+000	75.4463	0.0000000E+000	0.0000000E+000	0.0000000E+000	-75.4463	0.0000000E+000	0.0000000E+000	0.0000000E+000	-14.5536	0.0000000E+000	0.0000000E+000	0.0000000E+000	14.5536	3.85183	75.4463	0.000125982	2.58255e-07	245409
0.0100092	26.0105	11.1083	28.2832	-23.1258	675.273	0.251754	0.000514479	1.43145e+06	220806	1	12	0.00468506	0.000165648	0	1.28083e-05	0.0325155	0.0138863	0.0353566	23.1258	2.20806e+08	5.17027e+08	5.62203e+08	-66.8742	0.0000000E+000	0.0000000E+000	0.0000000E+000	66.8742	0.0000000E+000	0.0000000E+000	0.0000000E+000	-66.8742	0.0000000E+000	0.0000000E+000	0.0000000E+000	-23.1258	0.0000000E+000	0.0000000E+000	0.0000000E+000	23.1258	2.34155	66.8742	-0.000360616	1.29522e-07	489339