Folder: EIS/txt (part 104)

File: 18610_R301_UA697_SOC00_C08.mpt
EC-Lab ASCII FILE
Nb header lines : 65

Potentio Electrochemical Impedance Spectroscopy

Run on channel : 8 (SN 65398)
User :
CE vs. WE compliance from -10 V to 10 V
Electrode connection : standard
Potential control : Ewe
Ewe ctrl range : min = -10.00 V, max = 10.00 V
Safety Limits :
	Do not start on E overload
Acquisition started on : 10/27/2025 16:24:52.507
Technique started on : 10/27/2025 16:24:54.418
Loaded Setting File :  C:\Users\Celltest\OneDrive - store-dot.com\Documents\EC-Lab\Data\@Biologic Test Protocols\anode half cell EIS SOC00.mps
Saved on :
	File : 18610_R301_UA697_SOC00_C08.mpr
	Directory : C:\Users\Celltest\OneDrive - store-dot.com\Documents\EC-Lab\Data\Gyutae\
	Host : 169.254.61.224
Device : VMP-3e (SN .003165)
Address : USB
EC-LAB for windows v11.62 (software)
Internet server v27.00 (firmware)
Command interpretor v12.03 (firmware)
Electrode material :
Initial state :
Electrolyte :
Comments :
Electrode surface area : 0.001 cm²
Characteristic mass : 0.001 g
Equivalent Weight : 0.000 g/eq.
Density : 0.000 g/cm3
Volume (V) : 0.001 cm³
Record Ece
Cycle Definition : Charge/Discharge alternance
Mode                Single sine
E (V)               0.0000
vs.                 Eoc
tE (h:m:s)          0:00:0.0000
record              0
dI                  0.000
unit dI             mA
dt (s)              0.000
fi                  100.000
unit fi             kHz
ff                  10.000
unit ff             mHz
Nd                  6
Points              per decade
spacing             Logarithmic
Va (mV)             5.0
pw                  0.10
Na                  2
corr                0
E range min (V)     -10.000
E range max (V)     10.000
I Range             Auto
Bandwidth           5
nc cycles           0
goto Ns'            0
nr cycles           0
inc. cycle          0

freq/Hz	Re(Z)/Ohm	-Im(Z)/Ohm	|Z|/Ohm	Phase(Z)/deg	time/s	<Ewe>/V	<I>/mA	Cs/µF	Cp/µF	cycle number	I Range	|Ewe|/V	|I|/A	Ns	(Q-Qo)/mA.h	<Ece>/V	|Ece|/V	Phase(Zce)/deg	|Zce|/Ohm	Re(Zce)/Ohm	-Im(Zce)/Ohm	Phase(Zwe-ce)/deg	|Zwe-ce|/Ohm	Re(Zwe-ce)/Ohm	-Im(Zwe-ce)/Ohm	Re(Y)/Ohm-1	Im(Y)/Ohm-1	|Y|/Ohm-1	Phase(Y)/deg	Re(C)/nF	Im(C)/nF	|C|/nF	Phase(C)/deg	Re(M)	Im(M)	|M|	Phase(M)/deg	Re(Permittivity)	Im(Permittivity)	|Permittivity|	Phase(Permittivity)/deg	Re(Resistivity)/Ohm.cm	Im(Resistivity)/Ohm.cm	|Resistivity|/Ohm.cm	Phase(Resistivity)/deg	Re(Conductivity)/mS/cm	Im(Conductivity)/mS/cm	|Conductivity|/mS/cm	Phase(Conductivity)/deg	Tan(Delta)	Loss Angle(Delta)/deg	dq/mA.h	Pwe/W	Pce/W	Pwe-ce/W	<Ewe-Ece>/V	Rwe/Ohm	Rce/Ohm	Rwe-ce/Ohm		Ewe-Ece/V
100004	1.11581	0.366102	1.17433	-18.1649	1.91056	0.217271	-0.00226691	4.34713	0.422497	1	9	0.00463779	0.0039493	0	-1.6587e-06	6.3091e-06	5.61125e-05	97.5185	0.0142082	-0.00185909	-0.014086	-17.5369	1.16824	1.11395	0.352015	0.80911	0.265473	0.851548	18.1649	422.497	1287.69	1355.23	-71.8351	0.0000000E+000	0.0000000E+000	0.0000000E+000	71.8351	0.0000000E+000	0.0000000E+000	0.0000000E+000	-71.8351	0.0000000E+000	0.0000000E+000	0.0000000E+000	-18.1649	0.0000000E+000	0.0000000E+000	0.0000000E+000	18.1649	3.04781	71.8351	-1.6587e-06	-4.92534e-07	-1.43022e-11	-4.9252e-07	0.217265	95844.4	2.78313	95841.7
31621.1	1.4451	0.528875	1.53884	-20.1016	3.43352	0.217257	-0.00401543	9.51676	1.12412	1	9	0.00511927	0.00332672	0	5.92841e-06	0.000178102	2.31873e-05	43.3565	0.00697003	0.00506788	-0.00478517	-19.8699	1.54196	1.45017	0.52409	0.610257	0.223341	0.649842	20.1016	1124.12	3071.53	3270.77	-69.8984	0.0000000E+000	0.0000000E+000	0.0000000E+000	69.8984	0.0000000E+000	0.0000000E+000	0.0000000E+000	-69.8984	0.0000000E+000	0.0000000E+000	0.0000000E+000	-20.1016	0.0000000E+000	0.0000000E+000	0.0000000E+000	20.1016	2.7324	69.8984	9.16368e-07	-8.72378e-07	-7.15154e-10	-8.71663e-07	0.217078	54105.5	44.3543	54061.1
10002.2	1.85888	0.719366	1.99322	-21.1559	4.45855	0.217261	-0.00449906	22.1194	2.88114	1	9	0.00505634	0.00253677	0	1.44481e-05	0.00019719	6.78147e-06	-99.8423	0.00267326	-0.000456958	0.00263392	-21.2312	1.99374	1.85842	0.722	0.467888	0.181067	0.501701	21.1559	2881.14	7445.01	7983.05	-68.8441	0.0000000E+000	0.0000000E+000	0.0000000E+000	68.8441	0.0000000E+000	0.0000000E+000	0.0000000E+000	-68.8441	0.0000000E+000	0.0000000E+000	0.0000000E+000	-21.1559	0.0000000E+000	0.0000000E+000	0.0000000E+000	21.1559	2.58405	68.8441	-8.45659e-08	-9.77472e-07	-8.87168e-10	-9.76585e-07	0.217064	48290.4	43.8291	48246.6
3163.08	2.40113	1.05097	2.62106	-23.6389	5.36166	0.217	-0.0876833	47.8762	7.69744	1	9	0.00459932	0.00175476	0	2.00123e-06	6.35733e-05	4.93613e-06	-25.072	0.002813	0.00254795	0.00119203	-23.6405	2.62387	2.40368	1.05216	0.349512	0.152981	0.381525	23.6389	7697.44	17586.2	19197	-66.3611	0.0000000E+000	0.0000000E+000	0.0000000E+000	66.3611	0.0000000E+000	0.0000000E+000	0.0000000E+000	-66.3611	0.0000000E+000	0.0000000E+000	0.0000000E+000	-23.6389	0.0000000E+000	0.0000000E+000	0.0000000E+000	23.6389	2.28468	66.3611	-9.69355e-06	-1.90273e-05	-5.57431e-09	-1.90217e-05	0.216936	2474.81	0.725033	2474.09
1000.32	3.18224	1.65014	3.58463	-27.4088	6.95979	0.217182	-0.0254257	96.4188	20.432	1	10	0.00460473	0.00128457	0	1.18151e-05	0.000159014	9.15723e-06	33.9079	0.00712862	0.0059163	-0.00397676	-27.3089	3.58806	3.18816	1.64616	0.247653	0.128419	0.278969	27.4088	20432	39402.6	44385	-62.5912	0.0000000E+000	0.0000000E+000	0.0000000E+000	62.5912	0.0000000E+000	0.0000000E+000	0.0000000E+000	-62.5912	0.0000000E+000	0.0000000E+000	0.0000000E+000	-27.4088	0.0000000E+000	0.0000000E+000	0.0000000E+000	27.4088	1.92847	62.5912	1.16397e-06	-5.522e-06	-4.04303e-09	-5.51796e-06	0.217023	8541.83	6.25405	8535.57
316.316	4.5036	2.94058	5.37861	-33.1421	8.31009	0.217185	-0.0259093	171.107	51.1437	1	10	0.00450512	0.000837601	0	1.98873e-06	0.000120837	9.07306e-06	92.1201	0.0108322	-0.000400739	-0.0108248	-33.0478	5.37236	4.5032	2.92975	0.155676	0.101647	0.185922	33.1421	51143.7	78328.4	93546.9	-56.8579	0.0000000E+000	0.0000000E+000	0.0000000E+000	56.8579	0.0000000E+000	0.0000000E+000	0.0000000E+000	-56.8579	0.0000000E+000	0.0000000E+000	0.0000000E+000	-33.1421	0.0000000E+000	0.0000000E+000	0.0000000E+000	33.1421	1.53154	56.8579	-3.59368e-06	-5.62711e-06	-3.13081e-09	-5.62398e-06	0.217064	8382.51	4.66386	8377.84
100.032	7.73706	4.51273	8.95694	-30.2534	9.87179	0.217174	-0.0260655	352.567	89.4954	1	10	0.00487076	0.000543797	0	-8.43802e-06	0.000101749	6.46296e-06	-12.2837	0.0118849	0.0116128	0.00252854	-30.2299	8.96825	7.74867	4.51526	0.0964398	0.0562496	0.111645	30.2534	89495.4	153440	177632	-59.7466	0.0000000E+000	0.0000000E+000	0.0000000E+000	59.7466	0.0000000E+000	0.0000000E+000	0.0000000E+000	-59.7466	0.0000000E+000	0.0000000E+000	0.0000000E+000	-30.2534	0.0000000E+000	0.0000000E+000	0.0000000E+000	30.2534	1.7145	59.7466	-3.71895e-06	-5.66076e-06	-2.65215e-09	-5.6581e-06	0.217072	8331.84	3.9036	8327.93
[...]
1.00006	15.6386	1.56265	15.7165	-5.7062	18.8898	0.217225	-0.0110581	101843	1006.8	1	11	0.00486573	0.000309595	0	-5.20397e-05	0.000178102	3.93065e-06	-8.55787	0.0126961	0.0125548	0.00188929	-5.7085	15.7291	15.6511	1.56454	0.0633123	0.00632632	0.0636275	5.7062	1.0068e+06	1.00758e+07	1.0126e+07	-84.2938	0.0000000E+000	0.0000000E+000	0.0000000E+000	84.2938	0.0000000E+000	0.0000000E+000	0.0000000E+000	-84.2938	0.0000000E+000	0.0000000E+000	0.0000000E+000	-5.7062	0.0000000E+000	0.0000000E+000	0.0000000E+000	5.7062	10.0078	84.2938	-1.46452e-05	-2.40209e-06	-1.96946e-09	-2.40012e-06	0.217047	19644	16.106	19627.9
0.316193	16.6675	2.20414	16.8126	-7.53318	34.7447	0.217224	-0.0174343	228365	3924.97	1	12	0.00486625	0.000289441	0	-0.000133154	0.000101749	3.98964e-06	12.0679	0.013784	0.0134793	-0.00288183	-7.51744	16.8256	16.681	2.20126	0.0589658	0.00779775	0.0594792	7.53318	3.92497e+06	2.96803e+07	2.99387e+07	-82.4668	0.0000000E+000	0.0000000E+000	0.0000000E+000	82.4668	0.0000000E+000	0.0000000E+000	0.0000000E+000	-82.4668	0.0000000E+000	0.0000000E+000	0.0000000E+000	-7.53318	0.0000000E+000	0.0000000E+000	0.0000000E+000	7.53318	7.56191	82.4668	-2.46184e-05	-3.78715e-06	-1.77393e-09	-3.78538e-06	0.217123	12459.6	5.83617	12453.8
0.0999041	18.1895	3.81636	18.5856	-11.8494	79.9526	0.217222	-0.0200979	417434	17600.9	1	12	0.0048666	0.000261848	0	-0.000236572	0.00019719	2.9682e-06	4.49371	0.0113356	0.0113007	-0.000888139	-11.8396	18.5964	18.2008	3.81547	0.0526586	0.0110484	0.0538052	11.8494	1.76009e+07	8.38893e+07	8.57158e+07	-78.1506	0.0000000E+000	0.0000000E+000	0.0000000E+000	78.1506	0.0000000E+000	0.0000000E+000	0.0000000E+000	-78.1506	0.0000000E+000	0.0000000E+000	0.0000000E+000	-11.8494	0.0000000E+000	0.0000000E+000	0.0000000E+000	11.8494	4.7662	78.1506	-6.05848e-05	-4.3657e-06	-3.9631e-09	-4.36174e-06	0.217024	10808.2	9.81144	10798.3
0.0315922	20.7331	7.89881	22.1867	-20.8557	222.837	0.217213	-0.0275954	637792	80837.9	1	12	0.00486661	0.000219348	0	-0.0014568	0.000120837	2.57565e-06	-27.9371	0.0117423	0.0103739	0.00550129	-20.8594	22.1984	20.7434	7.90431	0.0421189	0.0160463	0.045072	20.8557	8.08379e+07	2.12186e+08	2.27063e+08	-69.1443	0.0000000E+000	0.0000000E+000	0.0000000E+000	69.1443	0.0000000E+000	0.0000000E+000	0.0000000E+000	-69.1443	0.0000000E+000	0.0000000E+000	0.0000000E+000	-20.8557	0.0000000E+000	0.0000000E+000	0.0000000E+000	20.8557	2.62484	69.1443	-0.000690204	-5.9941e-06	-3.33456e-09	-5.99076e-06	0.217092	7871.35	4.37889	7866.97
0.0146812	24.5345	12.9511	27.743	-27.8284	463.877	0.217219	-0.0334513	837050	182415	1	12	0.00486579	0.000175388	0	-0.003997	0.000178102	2.79442e-06	-21.7684	0.0159328	0.0147966	0.00590876	-27.825	27.7588	24.5493	12.957	0.0318765	0.0168268	0.0360451	27.8284	1.82415e+08	3.45565e+08	3.90756e+08	-62.1716	0.0000000E+000	0.0000000E+000	0.0000000E+000	62.1716	0.0000000E+000	0.0000000E+000	0.0000000E+000	-62.1716	0.0000000E+000	0.0000000E+000	0.0000000E+000	-27.8284	0.0000000E+000	0.0000000E+000	0.0000000E+000	27.8284	1.89439	62.1716	-0.0014646	-7.26625e-06	-5.95773e-09	-7.26029e-06	0.21704	6493.57	5.3242	6488.25

File: 18611_R301_UA697_SOC00_C02.mpt
EC-Lab ASCII FILE
Nb header lines : 65

Potentio Electrochemical Impedance Spectroscopy

Run on channel : 2 (SN 66139)
User :
CE vs. WE compliance from -10 V to 10 V
Electrode connection : standard
Potential control : Ewe
Ewe ctrl range : min = -10.00 V, max = 10.00 V
Safety Limits :
	Do not start on E overload
Acquisition started on : 10/27/2025 16:35:03.060
Technique started on : 10/27/2025 16:35:04.929
Loaded Setting File :  C:\Users\Celltest\OneDrive - store-dot.com\Documents\EC-Lab\Data\@Biologic Test Protocols\anode half cell EIS SOC00.mps
Saved on :
	File : 18611_R301_UA697_SOC00_C02.mpr
	Directory : C:\Users\Celltest\OneDrive - store-dot.com\Documents\EC-Lab\Data\Gyutae\
	Host : 169.254.61.224
Device : VMP-3e (SN .003165)
Address : USB
EC-LAB for windows v11.62 (software)
Internet server v27.00 (firmware)
Command interpretor v12.03 (firmware)
Electrode material :
Initial state :
Electrolyte :
Comments :
Electrode surface area : 0.001 cm²
Characteristic mass : 0.001 g
Equivalent Weight : 0.000 g/eq.
Density : 0.000 g/cm3
Volume (V) : 0.001 cm³
Record Ece
Cycle Definition : Charge/Discharge alternance
Mode                Single sine
E (V)               0.0000
vs.                 Eoc
tE (h:m:s)          0:00:0.0000
record              0
dI                  0.000
unit dI             mA
dt (s)              0.000
fi                  100.000
unit fi             kHz
ff                  10.000
unit ff             mHz
Nd                  6
Points              per decade
spacing             Logarithmic
Va (mV)             5.0
pw                  0.10
Na                  2
corr                0
E range min (V)     -10.000
E range max (V)     10.000
I Range             Auto
Bandwidth           5
nc cycles           0
goto Ns'            0
nr cycles           0
inc. cycle          0

freq/Hz	Re(Z)/Ohm	-Im(Z)/Ohm	|Z|/Ohm	Phase(Z)/deg	time/s	<Ewe>/V	<I>/mA	Cs/µF	Cp/µF	cycle number	I Range	|Ewe|/V	|I|/A	Ns	(Q-Qo)/mA.h	<Ece>/V	|Ece|/V	Phase(Zce)/deg	|Zce|/Ohm	Re(Zce)/Ohm	-Im(Zce)/Ohm	Phase(Zwe-ce)/deg	|Zwe-ce|/Ohm	Re(Zwe-ce)/Ohm	-Im(Zwe-ce)/Ohm	Re(Y)/Ohm-1	Im(Y)/Ohm-1	|Y|/Ohm-1	Phase(Y)/deg	Re(C)/nF	Im(C)/nF	|C|/nF	Phase(C)/deg	Re(M)	Im(M)	|M|	Phase(M)/deg	Re(Permittivity)	Im(Permittivity)	|Permittivity|	Phase(Permittivity)/deg	Re(Resistivity)/Ohm.cm	Im(Resistivity)/Ohm.cm	|Resistivity|/Ohm.cm	Phase(Resistivity)/deg	Re(Conductivity)/mS/cm	Im(Conductivity)/mS/cm	|Conductivity|/mS/cm	Phase(Conductivity)/deg	Tan(Delta)	Loss Angle(Delta)/deg	dq/mA.h	Pwe/W	Pce/W	Pwe-ce/W	<Ewe-Ece>/V	Rwe/Ohm	Rce/Ohm	Rwe-ce/Ohm		Ewe-Ece/V
100004	1.18798	0.425572	1.2619	-19.7092	1.86852	0.224025	-0.0121026	3.73965	0.425329	1	9	0.00495256	0.00392468	0	9.77762e-07	0.000382159	2.09072e-05	92.069	0.00532711	-0.000192323	-0.00532363	-19.4842	1.25994	1.18778	0.420248	0.74603	0.267252	0.792454	19.7092	425.329	1187.3	1261.18	-70.2908	0.0000000E+000	0.0000000E+000	0.0000000E+000	70.2908	0.0000000E+000	0.0000000E+000	0.0000000E+000	-70.2908	0.0000000E+000	0.0000000E+000	0.0000000E+000	-19.7092	0.0000000E+000	0.0000000E+000	0.0000000E+000	19.7092	2.79148	70.2908	9.77762e-07	-2.71129e-06	-4.62513e-09	-2.70666e-06	0.223643	18510.5	31.5766	18478.9
31621.1	1.55625	0.566004	1.65598	-19.9862	3.38956	0.224008	-0.0128848	8.89249	1.03884	1	9	0.00508469	0.00307049	0	2.66455e-05	0.000248523	1.10915e-05	-7.19854	0.00361227	0.0035838	0.000452646	-19.9586	1.65951	1.55984	0.566457	0.567503	0.206399	0.603871	19.9862	1038.84	2856.34	3039.39	-70.0138	0.0000000E+000	0.0000000E+000	0.0000000E+000	70.0138	0.0000000E+000	0.0000000E+000	0.0000000E+000	-70.0138	0.0000000E+000	0.0000000E+000	0.0000000E+000	-19.9862	0.0000000E+000	0.0000000E+000	0.0000000E+000	19.9862	2.74954	70.0138	1.33604e-05	-2.88629e-06	-3.20217e-09	-2.88309e-06	0.223759	17385.4	19.2881	17366.2
10002.2	1.98769	0.751058	2.12485	-20.6993	4.54056	0.224006	-0.0156782	21.1861	2.64691	1	9	0.00497975	0.00234358	0	3.1346e-05	3.85242e-05	1.03069e-05	-130.548	0.00439796	-0.00285907	0.00334182	-20.8109	2.12336	1.98483	0.754399	0.440242	0.166347	0.470621	20.6993	2646.91	7005.1	7488.5	-69.3007	0.0000000E+000	0.0000000E+000	0.0000000E+000	69.3007	0.0000000E+000	0.0000000E+000	0.0000000E+000	-69.3007	0.0000000E+000	0.0000000E+000	0.0000000E+000	-20.6993	0.0000000E+000	0.0000000E+000	0.0000000E+000	20.6993	2.64652	69.3007	-6.29304e-07	-3.51202e-06	-6.03991e-10	-3.51142e-06	0.223968	14287.7	2.45717	14285.2
3163.08	2.56363	1.09418	2.78737	-23.1132	5.43861	0.223802	-0.0693496	45.9857	7.08613	1	9	0.00451215	0.00161879	0	2.05484e-05	3.42479e-07	4.75337e-06	48.2608	0.00293638	0.00195487	-0.00219108	-23.056	2.7883	2.56558	1.09198	0.329964	0.140831	0.358762	23.1132	7086.13	16602.6	18051.6	-66.8868	0.0000000E+000	0.0000000E+000	0.0000000E+000	66.8868	0.0000000E+000	0.0000000E+000	0.0000000E+000	-66.8868	0.0000000E+000	0.0000000E+000	0.0000000E+000	-23.1132	0.0000000E+000	0.0000000E+000	0.0000000E+000	23.1132	2.34298	66.8868	-6.0193e-06	-1.55206e-05	-2.37508e-11	-1.55206e-05	0.223802	3227.16	0.00493844	3227.15
1000.32	3.34558	1.73841	3.77028	-27.4569	7.25182	0.223952	-0.0285833	91.5229	19.4574	1	10	0.0049085	0.00130189	0	2.96376e-05	-1.87484e-05	5.46378e-06	-131.119	0.00419679	-0.00275993	0.00316162	-27.5189	3.76929	3.34282	1.74157	0.235356	0.122294	0.265232	27.4569	19457.4	37446.1	42199.5	-62.5431	0.0000000E+000	0.0000000E+000	0.0000000E+000	62.5431	0.0000000E+000	0.0000000E+000	0.0000000E+000	-62.5431	0.0000000E+000	0.0000000E+000	0.0000000E+000	-27.4569	0.0000000E+000	0.0000000E+000	0.0000000E+000	27.4569	1.92451	62.5431	-2.74427e-06	-6.40128e-06	5.35891e-10	-6.40182e-06	0.22397	7835.04	0.655919	7835.7
316.316	4.71569	3.168	5.68101	-33.8932	8.60203	0.223947	-0.0285722	158.823	49.3892	1	10	0.00481506	0.00084757	0	1.88772e-05	5.7615e-05	8.98181e-06	75.0521	0.0105971	0.00273343	-0.0102385	-33.792	5.67758	4.71842	3.15776	0.146115	0.0981597	0.176025	33.8932	49389.2	73517.8	88567.3	-56.1068	0.0000000E+000	0.0000000E+000	0.0000000E+000	56.1068	0.0000000E+000	0.0000000E+000	0.0000000E+000	-56.1068	0.0000000E+000	0.0000000E+000	0.0000000E+000	-33.8932	0.0000000E+000	0.0000000E+000	0.0000000E+000	33.8932	1.48854	56.1068	-3.70303e-06	-6.39866e-06	-1.64619e-09	-6.39702e-06	0.22389	7837.95	2.01647	7835.94
100.032	8.2277	5.01941	9.63792	-31.3858	9.94981	0.223945	-0.0282034	316.978	85.974	1	10	0.00480159	0.000498198	0	7.77805e-06	9.57967e-05	6.96946e-06	-5.75395	0.0139893	0.0139189	0.00140252	-31.3498	9.65053	8.24162	5.02081	0.0885752	0.0540363	0.103757	31.3858	85974	140927	165081	-58.6142	0.0000000E+000	0.0000000E+000	0.0000000E+000	58.6142	0.0000000E+000	0.0000000E+000	0.0000000E+000	-58.6142	0.0000000E+000	0.0000000E+000	0.0000000E+000	-31.3858	0.0000000E+000	0.0000000E+000	0.0000000E+000	31.3858	1.63918	58.6142	-2.97962e-06	-6.31601e-06	-2.70179e-09	-6.31331e-06	0.223849	7940.36	3.39664	7936.96
[...]
1.00006	17.2387	1.63383	17.316	-5.41412	20.0146	0.223998	-0.0114984	97406.1	867.17	1	12	0.00478972	0.000276607	0	-2.39059e-05	0.000267614	3.69666e-06	-3.22022	0.0133643	0.0133432	0.000750722	-5.41243	17.3293	17.2521	1.63458	0.0574925	0.00544894	0.0577501	5.41412	867170	9.14963e+06	9.19063e+06	-84.5859	0.0000000E+000	0.0000000E+000	0.0000000E+000	84.5859	0.0000000E+000	0.0000000E+000	0.0000000E+000	-84.5859	0.0000000E+000	0.0000000E+000	0.0000000E+000	-5.41412	0.0000000E+000	0.0000000E+000	0.0000000E+000	5.41412	10.5511	84.5859	-3.29048e-07	-2.57563e-06	-3.07715e-09	-2.57255e-06	0.22373	19480.7	23.274	19457.4
0.316193	18.267	2.22195	18.4017	-6.93524	34.3582	0.223998	-0.00835836	226534	3302.84	1	12	0.00478834	0.000260212	0	-7.30788e-05	7.67059e-05	3.20239e-06	5.64638	0.0123068	0.0122471	-0.00121085	-6.9269	18.4137	18.2793	2.22074	0.0539453	0.00656176	0.0543429	6.93524	3.30285e+06	2.71532e+07	2.73533e+07	-83.0648	0.0000000E+000	0.0000000E+000	0.0000000E+000	83.0648	0.0000000E+000	0.0000000E+000	0.0000000E+000	-83.0648	0.0000000E+000	0.0000000E+000	0.0000000E+000	-6.93524	0.0000000E+000	0.0000000E+000	0.0000000E+000	6.93524	8.22116	83.0648	-3.38101e-05	-1.87225e-06	-6.41135e-10	-1.87161e-06	0.223921	26799.2	9.17714	26790.1
0.0999041	19.7833	3.88321	20.1608	-11.1052	79.5664	0.223996	-0.0123817	410247	15219.9	1	12	0.00479015	0.000237597	0	-0.000293832	0.00017216	3.02233e-06	-1.65851	0.0127204	0.0127151	0.000368159	-11.0993	20.1734	19.796	3.88358	0.0486723	0.00955375	0.0496011	11.1052	1.52199e+07	7.75388e+07	7.90184e+07	-78.8948	0.0000000E+000	0.0000000E+000	0.0000000E+000	78.8948	0.0000000E+000	0.0000000E+000	0.0000000E+000	-78.8948	0.0000000E+000	0.0000000E+000	0.0000000E+000	-11.1052	0.0000000E+000	0.0000000E+000	0.0000000E+000	11.1052	5.09458	78.8948	-8.36777e-05	-2.77345e-06	-2.13163e-09	-2.77132e-06	0.223824	18090.9	13.9044	18077
0.0315922	22.3595	8.01013	23.751	-19.7097	222.451	0.223996	-0.0127912	628927	71534.7	1	12	0.00478899	0.000201633	0	-0.000459652	0.000153069	2.43823e-06	22.3866	0.0120924	0.0111811	-0.00460544	-19.6902	23.76	22.3707	8.00553	0.0396368	0.0141996	0.0421035	19.7097	7.15347e+07	1.99682e+08	2.12109e+08	-70.2903	0.0000000E+000	0.0000000E+000	0.0000000E+000	70.2903	0.0000000E+000	0.0000000E+000	0.0000000E+000	-70.2903	0.0000000E+000	0.0000000E+000	0.0000000E+000	-19.7097	0.0000000E+000	0.0000000E+000	0.0000000E+000	19.7097	2.7914	70.2903	-5.24784e-05	-2.86517e-06	-1.95793e-09	-2.86322e-06	0.223843	17511.8	11.9668	17499.8
0.0100092	28.4708	17.6256	33.485	-31.7606	673.674	0.223998	-0.0144917	902150	249956	1	12	0.00479013	0.000143053	0	-0.00245306	9.57967e-05	2.18701e-06	-2.55904	0.0152881	0.0152729	0.000682595	-31.7479	33.4984	28.4861	17.6262	0.0253921	0.0157196	0.0298641	31.7606	2.49956e+08	4.03757e+08	4.74866e+08	-58.2394	0.0000000E+000	0.0000000E+000	0.0000000E+000	58.2394	0.0000000E+000	0.0000000E+000	0.0000000E+000	-58.2394	0.0000000E+000	0.0000000E+000	0.0000000E+000	-31.7606	0.0000000E+000	0.0000000E+000	0.0000000E+000	31.7606	1.61531	58.2394	-0.00118049	-3.2461e-06	-1.38825e-09	-3.24471e-06	0.223902	15457	6.61047	15450.4