Folder: EIS/txt (part 162)

File: 19121_R311_UC96_SOC50_C03.mpt
EC-Lab ASCII FILE
Nb header lines : 65

Potentio Electrochemical Impedance Spectroscopy

Run on channel : 3 (SN 65921)
Grouped channel(s) : 1, 2, 3, 4
User :
CE vs. WE compliance from -10 V to 10 V
Electrode connection : standard
Potential control : Ewe
Ewe ctrl range : min = -10.00 V, max = 10.00 V
Safety Limits :
	Do not start on E overload
Acquisition started on : 11/11/2025 16:20:14.228
Loaded Setting File :  C:\Users\Celltest\OneDrive - store-dot.com\Documents\EC-Lab\Data\@Biologic Test Protocols\cathode half cell EIS SOC50.mps
Saved on :
	File : 19119_R311_UC96_SOC50_C03.mpr
	Directory : C:\Users\Celltest\OneDrive - store-dot.com\Documents\EC-Lab\Data\Gyutae\
	Host : 169.254.61.224
Device : VMP-3e (SN .003165)
Address : USB
EC-LAB for windows v11.62 (software)
Internet server v27.00 (firmware)
Command interpretor v12.03 (firmware)
Electrode material :
Initial state :
Electrolyte :
Comments :
Electrode surface area : 0.001 cm²
Characteristic mass : 0.001 g
Equivalent Weight : 0.000 g/eq.
Density : 0.000 g/cm3
Volume (V) : 0.001 cm³
Record Ece
Cycle Definition : Charge/Discharge alternance
Mode                Multi sine
E (V)               0.0000
vs.                 Eoc
tE (h:m:s)          0:00:0.0000
record              0
dI                  0.000
unit dI             mA
dt (s)              0.000
fi                  1.000
unit fi             MHz
ff                  0.100
unit ff             mHz
Nd                  10
Points              per decade
spacing             Logarithmic
Va (mV)             5.0
pw                  0.10
Na                  2
corr                0
E range min (V)     -10.000
E range max (V)     10.000
I Range             Auto
Bandwidth           5
nc cycles           0
goto Ns'            0
nr cycles           0
inc. cycle          0

freq/Hz	Re(Z)/Ohm	-Im(Z)/Ohm	|Z|/Ohm	Phase(Z)/deg	time/s	<Ewe>/V	<I>/mA	Cs/µF	Cp/µF	cycle number	I Range	|Ewe|/V	|I|/A	Ns	(Q-Qo)/mA.h	<Ece>/V	|Ece|/V	Phase(Zce)/deg	|Zce|/Ohm	Re(Zce)/Ohm	-Im(Zce)/Ohm	Phase(Zwe-ce)/deg	|Zwe-ce|/Ohm	Re(Zwe-ce)/Ohm	-Im(Zwe-ce)/Ohm	Re(Y)/Ohm-1	Im(Y)/Ohm-1	|Y|/Ohm-1	Phase(Y)/deg	Re(C)/nF	Im(C)/nF	|C|/nF	Phase(C)/deg	Re(M)	Im(M)	|M|	Phase(M)/deg	Re(Permittivity)	Im(Permittivity)	|Permittivity|	Phase(Permittivity)/deg	Re(Resistivity)/Ohm.cm	Im(Resistivity)/Ohm.cm	|Resistivity|/Ohm.cm	Phase(Resistivity)/deg	Re(Conductivity)/mS/cm	Im(Conductivity)/mS/cm	|Conductivity|/mS/cm	Phase(Conductivity)/deg	Tan(Delta)	Loss Angle(Delta)/deg	dq/mA.h	Pwe/W	Pce/W	Pwe-ce/W	<Ewe-Ece>/V	Rwe/Ohm	Rce/Ohm	Rwe-ce/Ohm		Ewe-Ece/V
1.00002e+06	2.40253	2.54967	3.50328	-46.7018	2.23353	3.91163	-0.00660822	0.0624207	0.0330633	1	10	0.000221651	6.32696e-05	0	-1.29263e-05	-0.000214507	0.000201031	-66.2575	3.17737	1.27929	2.90845	-55.998	6.58383	3.68182	5.45812	0.195758	0.207747	0.285447	46.7018	33.0633	31.1553	45.4294	-43.2982	0.0000000E+000	0.0000000E+000	0.0000000E+000	43.2982	0.0000000E+000	0.0000000E+000	0.0000000E+000	-43.2982	0.0000000E+000	0.0000000E+000	0.0000000E+000	-46.7018	0.0000000E+000	0.0000000E+000	0.0000000E+000	46.7018	0.942292	43.2982	-1.29263e-05	-2.58489e-05	1.41751e-09	-2.58503e-05	3.91184	591933	32.4607	591966
251206	1.19221	0.213066	1.2111	-10.1326	4.93456	3.91125	0.0117038	2.97356	0.0920324	1	9	0.00290454	0.00239826	0	-7.82461e-06	-0.000138131	5.19131e-05	114.674	0.0216461	-0.00903644	-0.0196697	-9.28317	1.19888	1.18318	0.193396	0.812815	0.145262	0.825693	10.1326	92.0324	514.97	523.129	-79.8674	0.0000000E+000	0.0000000E+000	0.0000000E+000	79.8674	0.0000000E+000	0.0000000E+000	0.0000000E+000	-79.8674	0.0000000E+000	0.0000000E+000	0.0000000E+000	-10.1326	0.0000000E+000	0.0000000E+000	0.0000000E+000	10.1326	5.59552	79.8674	1.39633e-06	4.57763e-05	-1.61666e-09	4.5778e-05	3.91138	334187	11.8023	334198
63093.8	1.54265	0.580962	1.64842	-20.6363	7.11052	3.91117	0.00364839	4.34195	0.539317	1	9	0.00524018	0.0031789	0	1.79991e-05	-0.000176319	2.19444e-05	43.0489	0.00690315	0.00504462	-0.00471225	-20.4217	1.65149	1.5477	0.57625	0.567716	0.213802	0.606641	20.6363	539.317	1432.07	1530.26	-69.3637	0.0000000E+000	0.0000000E+000	0.0000000E+000	69.3637	0.0000000E+000	0.0000000E+000	0.0000000E+000	-69.3637	0.0000000E+000	0.0000000E+000	0.0000000E+000	-20.6363	0.0000000E+000	0.0000000E+000	0.0000000E+000	20.6363	2.65534	69.3637	1.61921e-06	1.42695e-05	-6.43281e-10	1.42701e-05	3.91135	1.07203e+06	48.328	1.07208e+06
15847.7	2.2039	0.962245	2.40481	-23.5865	9.40752	3.91118	0.018342	10.4368	1.67101	1	9	0.00515951	0.0021455	0	2.66212e-05	-4.47269e-06	5.40534e-06	-89.3733	0.00251939	2.75544e-05	0.00251923	-23.6413	2.40584	2.20393	0.964764	0.381094	0.166389	0.415834	23.5865	1671.01	3827.24	4176.13	-66.4135	0.0000000E+000	0.0000000E+000	0.0000000E+000	66.4135	0.0000000E+000	0.0000000E+000	0.0000000E+000	-66.4135	0.0000000E+000	0.0000000E+000	0.0000000E+000	-23.5865	0.0000000E+000	0.0000000E+000	0.0000000E+000	23.5865	2.29038	66.4135	1.12452e-06	7.1739e-05	-8.20383e-11	7.1739e-05	3.91119	213236	0.24385	213236
3983.6	3.18032	1.443	3.49238	-24.4051	11.2541	3.9111	0.0135684	27.6872	4.7268	1	9	0.00542501	0.00155338	0	3.10754e-05	-4.26608e-05	8.95744e-06	2.94063	0.0057664	0.00575881	-0.000295823	-24.3617	3.4975	3.18608	1.4427	0.260753	0.11831	0.286338	24.4051	4726.8	10417.7	11439.9	-65.5949	0.0000000E+000	0.0000000E+000	0.0000000E+000	65.5949	0.0000000E+000	0.0000000E+000	0.0000000E+000	-65.5949	0.0000000E+000	0.0000000E+000	0.0000000E+000	-24.4051	0.0000000E+000	0.0000000E+000	0.0000000E+000	24.4051	2.20397	65.5949	-2.85618e-07	5.30675e-05	-5.7884e-10	5.30681e-05	3.91115	288251	3.14413	288254
1000.32	4.64341	2.39652	5.22537	-27.2988	14.1278	3.91112	-0.026897	66.3897	13.9646	1	10	0.00521693	0.000998384	0	1.29886e-05	-0.000138131	9.99563e-06	67.3116	0.0100118	0.00386174	-0.00923705	-27.1894	5.22458	4.64727	2.38728	0.17006	0.08777	0.191374	27.2988	13964.6	27057.2	30448.4	-62.7012	0.0000000E+000	0.0000000E+000	0.0000000E+000	62.7012	0.0000000E+000	0.0000000E+000	0.0000000E+000	-62.7012	0.0000000E+000	0.0000000E+000	0.0000000E+000	-27.2988	0.0000000E+000	0.0000000E+000	0.0000000E+000	27.2988	1.93756	62.7012	-2.66317e-06	-0.000105198	3.71532e-09	-0.000105201	3.91126	145411	5.13555	145416
251.044	7.57017	3.51022	8.34441	-24.8768	16.828	3.91112	-0.0246075	180.607	31.9605	1	10	0.00509864	0.000611025	0	-5.61177e-06	0.000205562	6.15346e-06	-27.0007	0.0100707	0.00897303	0.00457213	-24.8793	8.35447	7.57914	3.5148	0.108721	0.0504131	0.119841	24.8768	31960.5	68926.2	75975.6	-65.1232	0.0000000E+000	0.0000000E+000	0.0000000E+000	65.1232	0.0000000E+000	0.0000000E+000	0.0000000E+000	-65.1232	0.0000000E+000	0.0000000E+000	0.0000000E+000	-24.8768	0.0000000E+000	0.0000000E+000	0.0000000E+000	24.8768	2.15661	65.1232	-3.48444e-06	-9.62431e-05	-5.05837e-09	-9.6238e-05	3.91092	158940	8.35362	158932
[...]
0.0602816	15.2603	2.75312	15.5066	-10.2268	240.184	3.91113	-0.0134825	958980	30229.2	1	11	0.00505787	0.000326175	0	-0.00236563	-0.000119037	3.5591e-07	-26.794	0.00109116	0.000974008	0.00049188	-10.2279	15.5077	15.2612	2.75361	0.0634641	0.0114496	0.0644886	10.2268	3.02292e+07	1.67557e+08	1.70262e+08	-79.7732	0.0000000E+000	0.0000000E+000	0.0000000E+000	79.7732	0.0000000E+000	0.0000000E+000	0.0000000E+000	-79.7732	0.0000000E+000	0.0000000E+000	0.0000000E+000	-10.2268	0.0000000E+000	0.0000000E+000	0.0000000E+000	10.2268	5.54289	79.7732	0.000000000000000E+000	-5.27319e-05	1.60492e-09	-5.27335e-05	3.91125	290089	8.82899	290098
0.00796479	21.6165	7.28769	22.8119	-18.6308	20329	3.91114	0.000127926	2.74193e+06	279841	1	11	0.0050518	0.000221454	0	-0.0145636	0.00014828	1.05162e-06	-161.613	0.00474871	-0.00450629	0.00149788	-18.638	22.8081	21.612	7.28919	0.0415395	0.0140044	0.0438367	18.6308	2.79841e+08	8.30057e+08	8.7596e+08	-71.3692	0.0000000E+000	0.0000000E+000	0.0000000E+000	71.3692	0.0000000E+000	0.0000000E+000	0.0000000E+000	-71.3692	0.0000000E+000	0.0000000E+000	0.0000000E+000	-18.6308	0.0000000E+000	0.0000000E+000	0.0000000E+000	18.6308	2.96617	71.3692	-0.012198	5.00338e-07	1.89689e-11	5.00319e-07	3.911	3.05734e+07	1159.1	3.05723e+07
0.0019912	28.5566	10.6073	30.463	-20.3775	20329	3.91114	0.000127926	7.53528e+06	913625	1	11	0.00506558	0.000166287	0	-0.0145636	0.00014828	8.84318e-07	-140.244	0.00531804	-0.00408835	0.00340101	-20.3862	30.4603	28.5525	10.6107	0.0307724	0.0114304	0.0328267	20.3775	9.13625e+08	2.45962e+09	2.62382e+09	-69.6225	0.0000000E+000	0.0000000E+000	0.0000000E+000	69.6225	0.0000000E+000	0.0000000E+000	0.0000000E+000	-69.6225	0.0000000E+000	0.0000000E+000	0.0000000E+000	-20.3775	0.0000000E+000	0.0000000E+000	0.0000000E+000	20.3775	2.69215	69.6225	0.000000000000000E+000	5.00338e-07	1.89689e-11	5.00319e-07	3.911	3.05734e+07	1159.1	3.05723e+07
0.000497799	31.8376	21.6516	38.5023	-34.2182	20329	3.91114	0.000127926	1.47664e+07	4.66964e+06	1	11	0.00506474	0.000131544	0	-0.0145636	0.00014828	1.29355e-06	-121.02	0.00983362	-0.00506765	0.00842728	-34.2328	38.5028	31.8326	21.66	0.0214767	0.0146055	0.0259725	34.2182	4.66964e+09	6.86647e+09	8.30385e+09	-55.7818	0.0000000E+000	0.0000000E+000	0.0000000E+000	55.7818	0.0000000E+000	0.0000000E+000	0.0000000E+000	-55.7818	0.0000000E+000	0.0000000E+000	0.0000000E+000	-34.2182	0.0000000E+000	0.0000000E+000	0.0000000E+000	34.2182	1.47045	55.7818	0.000000000000000E+000	5.00338e-07	1.89689e-11	5.00319e-07	3.911	3.05734e+07	1159.1	3.05723e+07
9.95598e-05	42.9755	108.976	117.144	-68.4778	20329	3.91114	0.000127926	1.46692e+07	1.26949e+07	1	11	0.0050666	4.32511e-05	0	-0.0145636	0.00014828	1.97578e-06	-37.7158	0.0456816	0.0361367	0.0279455	-68.4664	117.183	43.0117	109.004	0.00313173	0.00794132	0.00853653	68.4778	1.26949e+10	5.00633e+09	1.36464e+10	-21.5222	0.0000000E+000	0.0000000E+000	0.0000000E+000	21.5222	0.0000000E+000	0.0000000E+000	0.0000000E+000	-21.5222	0.0000000E+000	0.0000000E+000	0.0000000E+000	-68.4778	0.0000000E+000	0.0000000E+000	0.0000000E+000	68.4778	0.394358	21.5222	0.000000000000000E+000	5.00338e-07	1.89689e-11	5.00319e-07	3.911	3.05734e+07	1159.1	3.05723e+07

File: 19122_R311_UC96_SOC50_C04.mpt
EC-Lab ASCII FILE
Nb header lines : 65

Potentio Electrochemical Impedance Spectroscopy

Run on channel : 4 (SN 66756)
Grouped channel(s) : 1, 2, 3, 4
User :
CE vs. WE compliance from -10 V to 10 V
Electrode connection : standard
Potential control : Ewe
Ewe ctrl range : min = -10.00 V, max = 10.00 V
Safety Limits :
	Do not start on E overload
Acquisition started on : 11/11/2025 16:20:14.228
Loaded Setting File :  C:\Users\Celltest\OneDrive - store-dot.com\Documents\EC-Lab\Data\@Biologic Test Protocols\cathode half cell EIS SOC50.mps
Saved on :
	File : 19119_R311_UC96_SOC50_C04.mpr
	Directory : C:\Users\Celltest\OneDrive - store-dot.com\Documents\EC-Lab\Data\Gyutae\
	Host : 169.254.61.224
Device : VMP-3e (SN .003165)
Address : USB
EC-LAB for windows v11.62 (software)
Internet server v27.00 (firmware)
Command interpretor v12.03 (firmware)
Electrode material :
Initial state :
Electrolyte :
Comments :
Electrode surface area : 0.001 cm²
Characteristic mass : 0.001 g
Equivalent Weight : 0.000 g/eq.
Density : 0.000 g/cm3
Volume (V) : 0.001 cm³
Record Ece
Cycle Definition : Charge/Discharge alternance
Mode                Multi sine
E (V)               0.0000
vs.                 Eoc
tE (h:m:s)          0:00:0.0000
record              0
dI                  0.000
unit dI             mA
dt (s)              0.000
fi                  1.000
unit fi             MHz
ff                  0.100
unit ff             mHz
Nd                  10
Points              per decade
spacing             Logarithmic
Va (mV)             5.0
pw                  0.10
Na                  2
corr                0
E range min (V)     -10.000
E range max (V)     10.000
I Range             Auto
Bandwidth           5
nc cycles           0
goto Ns'            0
nr cycles           0
inc. cycle          0

freq/Hz	Re(Z)/Ohm	-Im(Z)/Ohm	|Z|/Ohm	Phase(Z)/deg	time/s	<Ewe>/V	<I>/mA	Cs/µF	Cp/µF	cycle number	I Range	|Ewe|/V	|I|/A	Ns	(Q-Qo)/mA.h	<Ece>/V	|Ece|/V	Phase(Zce)/deg	|Zce|/Ohm	Re(Zce)/Ohm	-Im(Zce)/Ohm	Phase(Zwe-ce)/deg	|Zwe-ce|/Ohm	Re(Zwe-ce)/Ohm	-Im(Zwe-ce)/Ohm	Re(Y)/Ohm-1	Im(Y)/Ohm-1	|Y|/Ohm-1	Phase(Y)/deg	Re(C)/nF	Im(C)/nF	|C|/nF	Phase(C)/deg	Re(M)	Im(M)	|M|	Phase(M)/deg	Re(Permittivity)	Im(Permittivity)	|Permittivity|	Phase(Permittivity)/deg	Re(Resistivity)/Ohm.cm	Im(Resistivity)/Ohm.cm	|Resistivity|/Ohm.cm	Phase(Resistivity)/deg	Re(Conductivity)/mS/cm	Im(Conductivity)/mS/cm	|Conductivity|/mS/cm	Phase(Conductivity)/deg	Tan(Delta)	Loss Angle(Delta)/deg	dq/mA.h	Pwe/W	Pce/W	Pwe-ce/W	<Ewe-Ece>/V	Rwe/Ohm	Rce/Ohm	Rwe-ce/Ohm		Ewe-Ece/V
1.00002e+06	3.07728	2.48764	3.95702	-38.9517	1.77453	3.89863	0.0317676	0.0639771	0.025285	1	10	0.000216717	5.47678e-05	0	-3.1011e-06	-0.0003741	0.000185492	-64.9163	3.38689	1.43584	3.06747	-50.9086	7.15734	4.51312	5.55511	0.196531	0.158873	0.252715	38.9517	25.285	31.2783	40.2202	-51.0483	0.0000000E+000	0.0000000E+000	0.0000000E+000	51.0483	0.0000000E+000	0.0000000E+000	0.0000000E+000	-51.0483	0.0000000E+000	0.0000000E+000	0.0000000E+000	-38.9517	0.0000000E+000	0.0000000E+000	0.0000000E+000	38.9517	1.23703	51.0483	-3.1011e-06	0.00012385	-1.18843e-08	0.000123862	3.899	122723	11.7761	122735
251206	1.52369	0.184314	1.5348	-6.89728	4.47752	3.89724	-0.0654794	3.43742	0.0495729	1	9	0.00314088	0.00204644	0	-4.44327e-05	-0.00024033	5.61808e-05	70.9955	0.0274529	0.00893983	-0.0259565	-5.89908	1.54079	1.53263	0.158357	0.646836	0.0782446	0.651551	6.89728	49.5729	409.811	412.799	-83.1027	0.0000000E+000	0.0000000E+000	0.0000000E+000	83.1027	0.0000000E+000	0.0000000E+000	0.0000000E+000	-83.1027	0.0000000E+000	0.0000000E+000	0.0000000E+000	-6.89728	0.0000000E+000	0.0000000E+000	0.0000000E+000	6.89728	8.26684	83.1027	-9.87002e-06	-0.000255189	1.57367e-08	-0.000255205	3.89749	59518.7	3.67032	59522.3
63093.8	1.84153	0.614909	1.94148	-18.4648	6.65152	3.89714	-0.0798761	4.10225	0.411509	1	9	0.005261	0.00270979	0	-9.12376e-05	-6.83407e-05	2.504e-05	45.0524	0.00924058	0.00652809	-0.00654005	-18.2212	1.94562	1.84806	0.608369	0.488555	0.163135	0.515072	18.4648	411.509	1232.39	1299.27	-71.5352	0.0000000E+000	0.0000000E+000	0.0000000E+000	71.5352	0.0000000E+000	0.0000000E+000	0.0000000E+000	-71.5352	0.0000000E+000	0.0000000E+000	0.0000000E+000	-18.4648	0.0000000E+000	0.0000000E+000	0.0000000E+000	18.4648	2.9948	71.5352	-1.54387e-05	-0.000311288	5.45879e-09	-0.000311294	3.89721	48789.8	0.855583	48790.6
15847.7	2.5267	1.06979	2.74384	-22.9476	8.95156	3.89714	-0.0933405	9.3876	1.42704	1	9	0.00523081	0.00190638	0	-0.000147527	0.000180089	1.1447e-05	-78.2694	0.00600459	0.0012208	0.00587918	-23.0505	2.74726	2.52792	1.07567	0.33561	0.142096	0.364452	22.9476	1427.04	3370.46	3660.12	-67.0524	0.0000000E+000	0.0000000E+000	0.0000000E+000	67.0524	0.0000000E+000	0.0000000E+000	0.0000000E+000	-67.0524	0.0000000E+000	0.0000000E+000	0.0000000E+000	-22.9476	0.0000000E+000	0.0000000E+000	0.0000000E+000	22.9476	2.36186	67.0524	-1.1169e-05	-0.000363761	-1.68096e-08	-0.000363744	3.89696	41751.9	1.92937	41750
3983.6	3.62423	1.71956	4.01147	-25.3825	11.3681	3.89715	-0.0928053	23.2342	4.26927	1	10	0.00495386	0.00123492	0	-0.000201024	6.5429e-05	1.58881e-05	6.20756	0.0128656	0.0127902	-0.00139117	-25.2865	4.02244	3.63702	1.71817	0.225221	0.106859	0.249285	25.3825	4269.27	8998.13	9959.57	-64.6175	0.0000000E+000	0.0000000E+000	0.0000000E+000	64.6175	0.0000000E+000	0.0000000E+000	0.0000000E+000	-64.6175	0.0000000E+000	0.0000000E+000	0.0000000E+000	-25.3825	0.0000000E+000	0.0000000E+000	0.0000000E+000	25.3825	2.10765	64.6175	-1.30181e-05	-0.000361676	-6.07216e-09	-0.00036167	3.89708	41992.7	0.705014	41992
1000.32	5.40678	2.82757	6.10151	-27.6081	13.9968	3.89712	-0.111479	56.2688	12.0843	1	10	0.00494295	0.00081012	0	-0.000274807	-3.01208e-05	9.39631e-06	10.824	0.0115987	0.0113923	-0.00217815	-27.5405	6.1106	5.41817	2.82539	0.145233	0.075952	0.163894	27.6081	12084.3	23107.1	26076.2	-62.3919	0.0000000E+000	0.0000000E+000	0.0000000E+000	62.3919	0.0000000E+000	0.0000000E+000	0.0000000E+000	-62.3919	0.0000000E+000	0.0000000E+000	0.0000000E+000	-27.6081	0.0000000E+000	0.0000000E+000	0.0000000E+000	27.6081	1.91216	62.3919	-1.29868e-05	-0.000434446	3.35782e-09	-0.000434449	3.89715	34958.5	0.270193	34958.8
251.044	8.81957	4.11879	9.73392	-25.0328	16.6981	3.89713	-0.119073	153.922	27.559	1	10	0.004765	0.000489526	0	-0.000358186	-0.000106561	4.86895e-06	3.60443	0.00994627	0.00992659	-0.000625299	-25.0048	9.74265	8.8295	4.11816	0.0930833	0.0434704	0.102733	25.0328	27559	59012.1	65130.1	-64.9672	0.0000000E+000	0.0000000E+000	0.0000000E+000	64.9672	0.0000000E+000	0.0000000E+000	0.0000000E+000	-64.9672	0.0000000E+000	0.0000000E+000	0.0000000E+000	-25.0328	0.0000000E+000	0.0000000E+000	0.0000000E+000	25.0328	2.1413	64.9672	-1.43947e-05	-0.000464044	1.26885e-08	-0.000464056	3.89724	32728.9	0.894917	32729.7
[...]
0.0602816	18.3941	3.24366	18.678	-10.0008	240.046	3.89712	-0.15539	813953	24547.8	1	11	0.0050869	0.000272348	0	-0.0111643	-0.00022122	5.07395e-07	73.0525	0.00186304	0.000543067	-0.00178213	-9.99517	18.6782	18.3947	3.24188	0.0527255	0.00929773	0.0535391	10.0008	2.45478e+07	1.39205e+08	1.41353e+08	-79.9992	0.0000000E+000	0.0000000E+000	0.0000000E+000	79.9992	0.0000000E+000	0.0000000E+000	0.0000000E+000	-79.9992	0.0000000E+000	0.0000000E+000	0.0000000E+000	-10.0008	0.0000000E+000	0.0000000E+000	0.0000000E+000	10.0008	5.67079	79.9992	0.000000000000000E+000	-0.000605575	3.43755e-08	-0.000605609	3.89734	25079.5	1.42364	25081
0.00796479	25.9099	8.285	27.2023	-17.7323	20329	3.89711	-0.000667247	2.41187e+06	223732	1	11	0.00507557	0.000186586	0	-0.0680969	-0.00024033	6.86606e-07	-6.24057	0.00367983	0.00365803	0.00040001	-17.7308	27.2059	25.9135	8.2854	0.0350151	0.0111965	0.0367617	17.7323	2.23732e+08	6.99683e+08	7.34583e+08	-72.2677	0.0000000E+000	0.0000000E+000	0.0000000E+000	72.2677	0.0000000E+000	0.0000000E+000	0.0000000E+000	-72.2677	0.0000000E+000	0.0000000E+000	0.0000000E+000	-17.7323	0.0000000E+000	0.0000000E+000	0.0000000E+000	17.7323	3.12732	72.2677	-0.0569325	-2.60033e-06	1.6036e-10	-2.60049e-06	3.89735	5.84058e+06	360.182	5.84094e+06
0.0019912	34.3991	12.0749	36.4569	-19.3423	20329	3.89711	-0.000667247	6.61944e+06	726160	1	11	0.00509037	0.000139627	0	-0.0680969	-0.00024033	7.1064e-07	-26.1038	0.00508956	0.00457041	0.0022394	-19.3433	36.4619	34.4037	12.0772	0.0258814	0.00908502	0.0274297	19.3423	7.26159e+08	2.06869e+09	2.19243e+09	-70.6577	0.0000000E+000	0.0000000E+000	0.0000000E+000	70.6577	0.0000000E+000	0.0000000E+000	0.0000000E+000	-70.6577	0.0000000E+000	0.0000000E+000	0.0000000E+000	-19.3423	0.0000000E+000	0.0000000E+000	0.0000000E+000	19.3423	2.8488	70.6577	0.000000000000000E+000	-2.60033e-06	1.6036e-10	-2.60049e-06	3.89735	5.84058e+06	360.182	5.84094e+06
0.000497799	39.7835	19.1742	44.163	-25.7324	20329	3.89711	-0.000667247	1.66744e+07	3.14315e+06	1	11	0.00509183	0.000115296	0	-0.0680969	-0.00024033	1.01576e-06	-84.1937	0.00880999	0.000891271	0.0087648	-25.7421	44.1676	39.7844	19.1829	0.0203979	0.00983103	0.0226434	25.7324	3.14315e+09	6.52155e+09	7.23948e+09	-64.2676	0.0000000E+000	0.0000000E+000	0.0000000E+000	64.2676	0.0000000E+000	0.0000000E+000	0.0000000E+000	-64.2676	0.0000000E+000	0.0000000E+000	0.0000000E+000	-25.7324	0.0000000E+000	0.0000000E+000	0.0000000E+000	25.7324	2.07485	64.2676	0.000000000000000E+000	-2.60033e-06	1.6036e-10	-2.60049e-06	3.89735	5.84058e+06	360.182	5.84094e+06
9.95598e-05	48.3786	124.401	133.477	-68.7493	20329	3.89711	-0.000667247	1.28503e+07	1.11621e+07	1	11	0.00509199	3.81489e-05	0	-0.0680969	-0.00024033	2.35054e-06	-27.5932	0.0616151	0.0546069	0.0285395	-68.7319	133.523	48.4332	124.429	0.00271545	0.00698251	0.00749194	68.7493	1.11621e+10	4.34088e+09	1.19765e+10	-21.2507	0.0000000E+000	0.0000000E+000	0.0000000E+000	21.2507	0.0000000E+000	0.0000000E+000	0.0000000E+000	-21.2507	0.0000000E+000	0.0000000E+000	0.0000000E+000	-68.7493	0.0000000E+000	0.0000000E+000	0.0000000E+000	68.7493	0.388893	21.2507	0.000000000000000E+000	-2.60033e-06	1.6036e-10	-2.60049e-06	3.89735	5.84058e+06	360.182	5.84094e+06