Folder: EIS/txt (part 111)

File: 18702_R307_UC91_26p5_SOC50_C03.mpt
EC-Lab ASCII FILE
Nb header lines : 65

Potentio Electrochemical Impedance Spectroscopy

Run on channel : 3 (SN 65921)
User :
CE vs. WE compliance from -10 V to 10 V
Electrode connection : standard
Potential control : Ewe
Ewe ctrl range : min = -10.00 V, max = 10.00 V
Safety Limits :
	Do not start on E overload
Acquisition started on : 10/30/2025 15:43:11.205
Technique started on : 10/30/2025 15:43:13.439
Loaded Setting File :  C:\Users\Celltest\OneDrive - store-dot.com\Documents\EC-Lab\Data\@Biologic Test Protocols\cathode half cell EIS SOC50.mps
Saved on :
	File : 18702_R307_UC91_26p5_SOC50_C03.mpr
	Directory : C:\Users\Celltest\OneDrive - store-dot.com\Documents\EC-Lab\Data\Anna\
	Host : 169.254.61.224
Device : VMP-3e (SN .003165)
Address : USB
EC-LAB for windows v11.62 (software)
Internet server v27.00 (firmware)
Command interpretor v12.03 (firmware)
Electrode material :
Initial state :
Electrolyte :
Comments :
Electrode surface area : 0.001 cm²
Characteristic mass : 0.001 g
Equivalent Weight : 0.000 g/eq.
Density : 0.000 g/cm3
Volume (V) : 0.001 cm³
Record Ece
Cycle Definition : Charge/Discharge alternance
Mode                Multi sine
E (V)               0.0000
vs.                 Eoc
tE (h:m:s)          0:00:0.0000
record              0
dI                  0.000
unit dI             mA
dt (s)              0.000
fi                  1.000
unit fi             MHz
ff                  0.100
unit ff             mHz
Nd                  10
Points              per decade
spacing             Logarithmic
Va (mV)             5.0
pw                  0.10
Na                  2
corr                0
E range min (V)     -10.000
E range max (V)     10.000
I Range             Auto
Bandwidth           5
nc cycles           0
goto Ns'            0
nr cycles           0
inc. cycle          0

freq/Hz	Re(Z)/Ohm	-Im(Z)/Ohm	|Z|/Ohm	Phase(Z)/deg	time/s	<Ewe>/V	<I>/mA	Cs/µF	Cp/µF	cycle number	I Range	|Ewe|/V	|I|/A	Ns	(Q-Qo)/mA.h	<Ece>/V	|Ece|/V	Phase(Zce)/deg	|Zce|/Ohm	Re(Zce)/Ohm	-Im(Zce)/Ohm	Phase(Zwe-ce)/deg	|Zwe-ce|/Ohm	Re(Zwe-ce)/Ohm	-Im(Zwe-ce)/Ohm	Re(Y)/Ohm-1	Im(Y)/Ohm-1	|Y|/Ohm-1	Phase(Y)/deg	Re(C)/nF	Im(C)/nF	|C|/nF	Phase(C)/deg	Re(M)	Im(M)	|M|	Phase(M)/deg	Re(Permittivity)	Im(Permittivity)	|Permittivity|	Phase(Permittivity)/deg	Re(Resistivity)/Ohm.cm	Im(Resistivity)/Ohm.cm	|Resistivity|/Ohm.cm	Phase(Resistivity)/deg	Re(Conductivity)/mS/cm	Im(Conductivity)/mS/cm	|Conductivity|/mS/cm	Phase(Conductivity)/deg	Tan(Delta)	Loss Angle(Delta)/deg	dq/mA.h	Pwe/W	Pce/W	Pwe-ce/W	<Ewe-Ece>/V	Rwe/Ohm	Rce/Ohm	Rwe-ce/Ohm		Ewe-Ece/V
1.00002e+06	2.97111	2.73046	4.03521	-42.5831	2.23354	3.96925	-0.0275645	0.0582875	0.026688	1	10	0.000222822	5.52194e-05	0	-2.03513e-05	7.22374e-05	0.000188819	-66.2065	3.41943	1.37954	3.1288	-53.4052	7.29788	4.35065	5.85926	0.182468	0.167689	0.247818	42.5831	26.688	29.0401	39.4408	-47.4169	0.0000000E+000	0.0000000E+000	0.0000000E+000	47.4169	0.0000000E+000	0.0000000E+000	0.0000000E+000	-47.4169	0.0000000E+000	0.0000000E+000	0.0000000E+000	-42.5831	0.0000000E+000	0.0000000E+000	0.0000000E+000	42.5831	1.08813	47.4169	-2.03513e-05	-0.00010941	-1.99119e-09	-0.000109408	3.96917	143998	2.62067	143996
251206	1.34959	0.33905	1.39153	-14.1023	4.93555	3.96881	0.00308893	1.86864	0.110936	1	9	0.00215894	0.00155149	0	-2.1484e-05	-8.05151e-05	6.00261e-05	90.6513	0.0386893	-0.000439777	-0.0386868	-12.5512	1.38218	1.34915	0.300363	0.696978	0.175098	0.718636	14.1023	110.936	441.579	455.301	-75.8977	0.0000000E+000	0.0000000E+000	0.0000000E+000	75.8977	0.0000000E+000	0.0000000E+000	0.0000000E+000	-75.8977	0.0000000E+000	0.0000000E+000	0.0000000E+000	-14.1023	0.0000000E+000	0.0000000E+000	0.0000000E+000	14.1023	3.9805	75.8977	-3.73536e-07	1.22594e-05	-2.48705e-10	1.22596e-05	3.96889	1.28485e+06	26.0657	1.28488e+06
63093.8	1.80292	1.25336	2.19578	-34.8063	7.60556	3.96876	0.00290251	2.01261	0.655741	1	9	0.00571355	0.00260206	0	-1.04025e-05	-0.000118703	1.95979e-05	41.6658	0.00753167	0.00562642	-0.00500693	-34.6154	2.19755	1.80855	1.24835	0.373939	0.259955	0.45542	34.8063	655.741	943.266	1148.8	-55.1937	0.0000000E+000	0.0000000E+000	0.0000000E+000	55.1937	0.0000000E+000	0.0000000E+000	0.0000000E+000	-55.1937	0.0000000E+000	0.0000000E+000	0.0000000E+000	-34.8063	0.0000000E+000	0.0000000E+000	0.0000000E+000	34.8063	1.43847	55.1937	3.56416e-06	1.15194e-05	-3.44537e-10	1.15197e-05	3.96888	1.36736e+06	40.8967	1.3674e+06
15847.7	3.41041	2.51503	4.23749	-36.4072	10.2775	3.96877	-0.00381039	3.9931	1.40663	1	9	0.00542354	0.00127989	0	-1.51206e-05	-4.23269e-05	3.68568e-06	-94.709	0.00287968	-0.000236406	0.00286996	-36.4403	4.239	3.41018	2.5179	0.189928	0.140064	0.235989	36.4072	1406.63	1907.41	2369.99	-53.5928	0.0000000E+000	0.0000000E+000	0.0000000E+000	53.5928	0.0000000E+000	0.0000000E+000	0.0000000E+000	-53.5928	0.0000000E+000	0.0000000E+000	0.0000000E+000	-36.4072	0.0000000E+000	0.0000000E+000	0.0000000E+000	36.4072	1.35601	53.5928	2.34921e-07	-1.51226e-05	1.61282e-10	-1.51227e-05	3.96881	1.04156e+06	11.1083	1.04158e+06
3983.6	6.06873	3.47564	6.99353	-29.8003	12.5271	3.96872	-0.0410183	11.495	2.83913	1	10	0.00489364	0.000699739	0	-3.67494e-05	-0.000347832	8.0495e-06	-32.5368	0.0115036	0.00969805	0.0061871	-29.8048	7.00502	6.07842	3.48182	0.124081	0.0710626	0.142989	29.8003	2839.13	4957.34	5712.78	-60.1997	0.0000000E+000	0.0000000E+000	0.0000000E+000	60.1997	0.0000000E+000	0.0000000E+000	0.0000000E+000	-60.1997	0.0000000E+000	0.0000000E+000	0.0000000E+000	-29.8003	0.0000000E+000	0.0000000E+000	0.0000000E+000	29.8003	1.74608	60.1997	-2.7043e-06	-0.00016279	1.42675e-08	-0.000162805	3.96907	96754.8	8.47991	96763.3
1000.32	9.43778	4.77172	10.5755	-26.8211	15.1558	3.96868	-0.0345786	33.3431	6.78821	1	10	0.00454662	0.000429921	0	-6.20324e-05	-9.96091e-05	9.09867e-06	80.1062	0.0211636	0.00363637	-0.0208488	-26.7113	10.5693	9.44141	4.75087	0.0843857	0.0426652	0.0945583	26.8211	6788.21	13426.1	15044.6	-63.1789	0.0000000E+000	0.0000000E+000	0.0000000E+000	63.1789	0.0000000E+000	0.0000000E+000	0.0000000E+000	-63.1789	0.0000000E+000	0.0000000E+000	0.0000000E+000	-26.8211	0.0000000E+000	0.0000000E+000	0.0000000E+000	26.8211	1.97786	63.1789	-4.40564e-06	-0.000137231	3.44434e-09	-0.000137235	3.96878	114773	2.88066	114776
251.044	14.9675	5.86761	16.0766	-21.4063	18.071	3.96867	-0.0345748	108.046	14.3928	1	10	0.00499699	0.000310824	0	-9.01626e-05	-0.000252362	3.47166e-05	18.1308	0.111692	0.106146	-0.0347571	-21.1542	16.1629	15.0737	5.83285	0.0579114	0.0227025	0.0622023	21.4063	14392.8	36714.1	39434.5	-68.5937	0.0000000E+000	0.0000000E+000	0.0000000E+000	68.5937	0.0000000E+000	0.0000000E+000	0.0000000E+000	-68.5937	0.0000000E+000	0.0000000E+000	0.0000000E+000	-21.4063	0.0000000E+000	0.0000000E+000	0.0000000E+000	21.4063	2.55088	68.5937	-4.38279e-06	-0.000137216	8.72536e-09	-0.000137225	3.96892	114785	7.299	114792
[...]
0.0602816	26.182	3.38281	26.3997	-7.36202	241.436	3.9687	-0.0237615	780473	12814.9	1	11	0.00505567	0.000191505	0	-0.00254507	0.000110426	2.88513e-07	-42.988	0.00150655	0.00110204	0.00102724	-7.36393	26.4009	26.1831	3.38384	0.037567	0.00485378	0.0378793	7.36202	1.28149e+07	9.9184e+07	1.00008e+08	-82.638	0.0000000E+000	0.0000000E+000	0.0000000E+000	82.638	0.0000000E+000	0.0000000E+000	0.0000000E+000	-82.638	0.0000000E+000	0.0000000E+000	0.0000000E+000	-7.36202	0.0000000E+000	0.0000000E+000	0.0000000E+000	7.36202	7.73974	82.638	0.000000000000000E+000	-9.43023e-05	-2.62388e-09	-9.42997e-05	3.96859	167022	4.64724	167018
0.00796479	34.6696	7.69167	35.5126	-12.5088	20330.3	3.9687	-0.00038706	2.59792e+06	121871	1	11	0.00505314	0.000142291	0	-0.0152021	7.22374e-05	8.52436e-07	-0.422133	0.00599077	0.00599061	4.41373e-05	-12.5068	35.5185	34.6756	7.69171	0.0274906	0.00609896	0.028159	12.5088	1.21871e+08	5.49326e+08	5.62683e+08	-77.4912	0.0000000E+000	0.0000000E+000	0.0000000E+000	77.4912	0.0000000E+000	0.0000000E+000	0.0000000E+000	-77.4912	0.0000000E+000	0.0000000E+000	0.0000000E+000	-12.5088	0.0000000E+000	0.0000000E+000	0.0000000E+000	12.5088	4.50743	77.4912	-0.012657	-1.53612e-06	-2.79602e-11	-1.5361e-06	3.96862	1.02534e+07	186.631	1.02532e+07
0.0019912	42.3528	10.9764	43.7521	-14.5294	20330.3	3.9687	-0.00038706	7.28193e+06	458320	1	11	0.005067	0.000115812	0	-0.0152021	7.22374e-05	6.62945e-07	-153.988	0.00572434	-0.00514447	0.00251047	-14.5343	43.7477	42.3477	10.9789	0.0221251	0.00573406	0.0228561	14.5294	4.5832e+08	1.76844e+09	1.82687e+09	-75.4706	0.0000000E+000	0.0000000E+000	0.0000000E+000	75.4706	0.0000000E+000	0.0000000E+000	0.0000000E+000	-75.4706	0.0000000E+000	0.0000000E+000	0.0000000E+000	-14.5294	0.0000000E+000	0.0000000E+000	0.0000000E+000	14.5294	3.85854	75.4706	0.000000000000000E+000	-1.53612e-06	-2.79602e-11	-1.5361e-06	3.96862	1.02534e+07	186.631	1.02532e+07
0.000497799	47.1482	17.2994	50.2217	-20.1489	20330.3	3.9687	-0.00038706	1.84814e+07	2.19287e+06	1	11	0.00506653	0.000100883	0	-0.0152021	7.22374e-05	1.06157e-06	52.8185	0.0105228	0.00635935	-0.00838374	-20.1374	50.2248	47.1546	17.291	0.0186931	0.00685879	0.0199117	20.1489	2.19287e+09	5.97651e+09	6.36611e+09	-69.8512	0.0000000E+000	0.0000000E+000	0.0000000E+000	69.8512	0.0000000E+000	0.0000000E+000	0.0000000E+000	-69.8512	0.0000000E+000	0.0000000E+000	0.0000000E+000	-20.1489	0.0000000E+000	0.0000000E+000	0.0000000E+000	20.1489	2.72543	69.8512	0.000000000000000E+000	-1.53612e-06	-2.79602e-11	-1.5361e-06	3.96862	1.02534e+07	186.631	1.02532e+07
9.95598e-05	55.4006	85.871	102.191	-57.1715	20330.3	3.9687	-0.00038706	1.86161e+07	1.31448e+07	1	11	0.0050711	4.96236e-05	0	-0.0152021	7.22374e-05	3.76031e-06	99.4118	0.0757765	-0.0123917	-0.0747565	-57.1546	102.122	55.3882	85.7962	0.00530502	0.00822279	0.00978557	57.1715	1.31448e+10	8.48053e+09	1.56431e+10	-32.8285	0.0000000E+000	0.0000000E+000	0.0000000E+000	32.8285	0.0000000E+000	0.0000000E+000	0.0000000E+000	-32.8285	0.0000000E+000	0.0000000E+000	0.0000000E+000	-57.1715	0.0000000E+000	0.0000000E+000	0.0000000E+000	57.1715	0.645161	32.8285	0.000000000000000E+000	-1.53612e-06	-2.79602e-11	-1.5361e-06	3.96862	1.02534e+07	186.631	1.02532e+07

File: 18703_R307_UC91_26p5_SOC50_C04.mpt
EC-Lab ASCII FILE
Nb header lines : 65

Potentio Electrochemical Impedance Spectroscopy

Run on channel : 4 (SN 66756)
User :
CE vs. WE compliance from -10 V to 10 V
Electrode connection : standard
Potential control : Ewe
Ewe ctrl range : min = -10.00 V, max = 10.00 V
Safety Limits :
	Do not start on E overload
Acquisition started on : 10/30/2025 15:43:20.131
Technique started on : 10/30/2025 15:43:22.366
Loaded Setting File :  C:\Users\Celltest\OneDrive - store-dot.com\Documents\EC-Lab\Data\@Biologic Test Protocols\cathode half cell EIS SOC50.mps
Saved on :
	File : 18703_R307_UC91_26p5_SOC50_C04.mpr
	Directory : C:\Users\Celltest\OneDrive - store-dot.com\Documents\EC-Lab\Data\Anna\
	Host : 169.254.61.224
Device : VMP-3e (SN .003165)
Address : USB
EC-LAB for windows v11.62 (software)
Internet server v27.00 (firmware)
Command interpretor v12.03 (firmware)
Electrode material :
Initial state :
Electrolyte :
Comments :
Electrode surface area : 0.001 cm²
Characteristic mass : 0.001 g
Equivalent Weight : 0.000 g/eq.
Density : 0.000 g/cm3
Volume (V) : 0.001 cm³
Record Ece
Cycle Definition : Charge/Discharge alternance
Mode                Multi sine
E (V)               0.0000
vs.                 Eoc
tE (h:m:s)          0:00:0.0000
record              0
dI                  0.000
unit dI             mA
dt (s)              0.000
fi                  1.000
unit fi             MHz
ff                  0.100
unit ff             mHz
Nd                  10
Points              per decade
spacing             Logarithmic
Va (mV)             5.0
pw                  0.10
Na                  2
corr                0
E range min (V)     -10.000
E range max (V)     10.000
I Range             Auto
Bandwidth           5
nc cycles           0
goto Ns'            0
nr cycles           0
inc. cycle          0

freq/Hz	Re(Z)/Ohm	-Im(Z)/Ohm	|Z|/Ohm	Phase(Z)/deg	time/s	<Ewe>/V	<I>/mA	Cs/µF	Cp/µF	cycle number	I Range	|Ewe|/V	|I|/A	Ns	(Q-Qo)/mA.h	<Ece>/V	|Ece|/V	Phase(Zce)/deg	|Zce|/Ohm	Re(Zce)/Ohm	-Im(Zce)/Ohm	Phase(Zwe-ce)/deg	|Zwe-ce|/Ohm	Re(Zwe-ce)/Ohm	-Im(Zwe-ce)/Ohm	Re(Y)/Ohm-1	Im(Y)/Ohm-1	|Y|/Ohm-1	Phase(Y)/deg	Re(C)/nF	Im(C)/nF	|C|/nF	Phase(C)/deg	Re(M)	Im(M)	|M|	Phase(M)/deg	Re(Permittivity)	Im(Permittivity)	|Permittivity|	Phase(Permittivity)/deg	Re(Resistivity)/Ohm.cm	Im(Resistivity)/Ohm.cm	|Resistivity|/Ohm.cm	Phase(Resistivity)/deg	Re(Conductivity)/mS/cm	Im(Conductivity)/mS/cm	|Conductivity|/mS/cm	Phase(Conductivity)/deg	Tan(Delta)	Loss Angle(Delta)/deg	dq/mA.h	Pwe/W	Pce/W	Pwe-ce/W	<Ewe-Ece>/V	Rwe/Ohm	Rce/Ohm	Rwe-ce/Ohm		Ewe-Ece/V
1.00002e+06	2.59701	2.6188	3.68816	-45.2394	2.23457	3.97915	0.015948	0.060773	0.0306404	1	10	0.00022233	6.02822e-05	0	-2.50627e-06	-3.46116e-05	0.000184766	-67.4445	3.06501	1.17567	2.83057	-55.3046	6.62787	3.77268	5.44936	0.190921	0.192523	0.271138	45.2394	30.6404	30.3854	43.1521	-44.7606	0.0000000E+000	0.0000000E+000	0.0000000E+000	44.7606	0.0000000E+000	0.0000000E+000	0.0000000E+000	-44.7606	0.0000000E+000	0.0000000E+000	0.0000000E+000	-45.2394	0.0000000E+000	0.0000000E+000	0.0000000E+000	45.2394	0.99168	44.7607	-2.50627e-06	6.34593e-05	-5.51985e-10	6.34598e-05	3.97918	249508	2.17029	249510
251206	1.75248	0.565252	1.84139	-17.8768	4.93752	3.97773	-0.0612275	1.12085	0.105619	1	9	0.00443785	0.00241006	0	-4.27524e-05	-0.000149271	5.8002e-05	77.0567	0.0240666	0.00539062	-0.0234551	-17.1299	1.83947	1.75787	0.541797	0.516849	0.166706	0.543069	17.8768	105.619	327.456	344.068	-72.1232	0.0000000E+000	0.0000000E+000	0.0000000E+000	72.1232	0.0000000E+000	0.0000000E+000	0.0000000E+000	-72.1232	0.0000000E+000	0.0000000E+000	0.0000000E+000	-17.8768	0.0000000E+000	0.0000000E+000	0.0000000E+000	17.8768	3.10036	72.1232	-9.04611e-06	-0.000243547	9.13951e-09	-0.000243556	3.97788	64966.5	2.43798	64968.9
63093.8	2.57023	1.32344	2.89095	-27.2444	7.23755	3.97763	-0.0495161	1.90603	0.399444	1	9	0.00529965	0.00183318	0	-8.90997e-05	6.09381e-05	1.28189e-05	55.5554	0.0069927	0.00395514	-0.00576669	-27.1069	2.89183	2.57419	1.31767	0.307533	0.158352	0.345907	27.2444	399.444	775.755	872.555	-62.7556	0.0000000E+000	0.0000000E+000	0.0000000E+000	62.7556	0.0000000E+000	0.0000000E+000	0.0000000E+000	-62.7556	0.0000000E+000	0.0000000E+000	0.0000000E+000	-27.2444	0.0000000E+000	0.0000000E+000	0.0000000E+000	27.2444	1.94209	62.7556	-7.86675e-06	-0.000196957	-3.01742e-09	-0.000196954	3.97757	80330.1	1.23067	80328.8
15847.7	4.03284	2.04029	4.51958	-26.8357	9.81453	3.97766	-0.0301943	4.92222	1.00311	1	10	0.00479374	0.00106066	0	-0.000125839	-5.37216e-05	1.32596e-05	-64.5622	0.0125013	0.00536968	0.0112893	-26.9325	4.52948	4.03821	2.05158	0.197431	0.099884	0.221259	26.8357	1003.11	1982.75	2222.06	-63.1643	0.0000000E+000	0.0000000E+000	0.0000000E+000	63.1643	0.0000000E+000	0.0000000E+000	0.0000000E+000	-63.1643	0.0000000E+000	0.0000000E+000	0.0000000E+000	-26.8357	0.0000000E+000	0.0000000E+000	0.0000000E+000	26.8357	1.9766	63.1643	-4.23219e-06	-0.000120102	1.62208e-09	-0.000120104	3.97771	131735	1.7792	131737
3983.6	5.94628	3.10786	6.70948	-27.5941	11.7851	3.9776	-0.0362036	12.8553	2.75822	1	10	0.00495876	0.000739068	0	-0.000143002	3.60827e-06	1.13227e-05	-22.9196	0.0153202	0.0141107	0.00596629	-27.5834	6.72475	5.96039	3.11383	0.13209	0.0690373	0.149043	27.5941	2758.22	5277.31	5954.64	-62.4059	0.0000000E+000	0.0000000E+000	0.0000000E+000	62.4059	0.0000000E+000	0.0000000E+000	0.0000000E+000	-62.4059	0.0000000E+000	0.0000000E+000	0.0000000E+000	-27.5941	0.0000000E+000	0.0000000E+000	0.0000000E+000	27.5941	1.91331	62.4059	-3.14777e-06	-0.000144004	-1.30632e-10	-0.000144004	3.9776	109868	0.099666	109867
1000.32	9.23676	5.23349	10.6164	-29.5356	14.4138	3.97758	-0.0246065	30.4011	7.3879	1	10	0.0046882	0.000441601	0	-0.000162905	-0.000340371	1.00701e-05	-47.5295	0.0228037	0.0153973	0.0168205	-29.5736	10.638	9.25215	5.25031	0.0819537	0.0464344	0.0941943	29.5356	7387.9	13039.2	14986.7	-60.4644	0.0000000E+000	0.0000000E+000	0.0000000E+000	60.4644	0.0000000E+000	0.0000000E+000	0.0000000E+000	-60.4644	0.0000000E+000	0.0000000E+000	0.0000000E+000	-29.5356	0.0000000E+000	0.0000000E+000	0.0000000E+000	29.5356	1.76493	60.4644	-2.65704e-06	-9.78742e-05	8.37534e-09	-9.78826e-05	3.97792	161647	13.8326	161661
251.044	15.7983	7.29668	17.402	-24.7905	17.1141	3.97757	-0.0246475	86.8849	15.2756	1	10	0.00461611	0.000265264	0	-0.000182111	-0.000531471	2.9506e-05	-114.901	0.111233	-0.0468341	0.100892	-25.1568	17.4021	15.7515	7.39758	0.0521692	0.0240951	0.0574648	24.7905	15275.6	33073.8	36431	-65.2095	0.0000000E+000	0.0000000E+000	0.0000000E+000	65.2095	0.0000000E+000	0.0000000E+000	0.0000000E+000	-65.2095	0.0000000E+000	0.0000000E+000	0.0000000E+000	-24.7905	0.0000000E+000	0.0000000E+000	0.0000000E+000	24.7905	2.16514	65.2095	-3.18449e-06	-9.80373e-05	1.30994e-08	-9.80503e-05	3.9781	161378	21.5628	161399
[...]
0.0602816	30.0032	3.84945	30.2492	-7.31117	241.383	3.97759	-0.0144393	685862	11107.3	1	11	0.00508473	0.000168095	0	-0.00188933	-7.28316e-05	1.03503e-06	-9.41974	0.00615743	0.0060744	0.00100776	-7.3116	30.2553	30.0093	3.85046	0.03279	0.00420699	0.0330588	7.31117	1.11073e+07	8.65718e+07	8.72814e+07	-82.6888	0.0000000E+000	0.0000000E+000	0.0000000E+000	82.6888	0.0000000E+000	0.0000000E+000	0.0000000E+000	-82.6888	0.0000000E+000	0.0000000E+000	0.0000000E+000	-7.31117	0.0000000E+000	0.0000000E+000	0.0000000E+000	7.31117	7.79416	82.6888	0.000000000000000E+000	-5.74335e-05	1.05163e-09	-5.74345e-05	3.97766	275470	5.04399	275475
0.00796479	39.833	8.23149	40.6747	-11.6758	20330.3	3.97759	-0.000559324	2.42755e+06	99420.6	1	11	0.00507582	0.000124791	0	-0.0122245	0.000252038	3.99757e-07	-13.3902	0.00320342	0.00311633	0.000741852	-11.6759	40.6779	39.8362	8.23223	0.0240766	0.00497543	0.0245853	11.6758	9.94206e+07	4.81107e+08	4.91272e+08	-78.3242	0.0000000E+000	0.0000000E+000	0.0000000E+000	78.3242	0.0000000E+000	0.0000000E+000	0.0000000E+000	-78.3242	0.0000000E+000	0.0000000E+000	0.0000000E+000	-11.6758	0.0000000E+000	0.0000000E+000	0.0000000E+000	11.6758	4.83911	78.3242	-0.0103352	-2.22476e-06	-1.40971e-10	-2.22462e-06	3.97734	7.11142e+06	450.611	7.11097e+06
0.0019912	48.0312	11.9462	49.4945	-13.967	20330.3	3.97759	-0.000559324	6.69079e+06	389782	1	11	0.00509044	0.000102849	0	-0.0122245	0.000252038	5.3667e-07	43.4721	0.00521806	0.00378679	-0.00359003	-13.962	49.4973	48.035	11.9426	0.0196069	0.00487658	0.0202043	13.967	3.89781e+08	1.56717e+09	1.61491e+09	-76.033	0.0000000E+000	0.0000000E+000	0.0000000E+000	76.033	0.0000000E+000	0.0000000E+000	0.0000000E+000	-76.033	0.0000000E+000	0.0000000E+000	0.0000000E+000	-13.967	0.0000000E+000	0.0000000E+000	0.0000000E+000	13.967	4.02063	76.033	0.000000000000000E+000	-2.22476e-06	-1.40971e-10	-2.22462e-06	3.97734	7.11142e+06	450.611	7.11097e+06
0.000497799	53.5724	18.1737	56.571	-18.7388	20330.3	3.97759	-0.000559324	1.75923e+07	1.8156e+06	1	11	0.00509358	9.00387e-05	0	-0.0122245	0.000252038	1.96197e-06	19.6674	0.0217903	0.0205191	-0.00733374	-18.7251	56.5881	53.5929	18.1663	0.0167399	0.00567878	0.0176769	18.7388	1.8156e+09	5.35203e+09	5.65161e+09	-71.2612	0.0000000E+000	0.0000000E+000	0.0000000E+000	71.2612	0.0000000E+000	0.0000000E+000	0.0000000E+000	-71.2612	0.0000000E+000	0.0000000E+000	0.0000000E+000	-18.7388	0.0000000E+000	0.0000000E+000	0.0000000E+000	18.7388	2.9478	71.2612	0.000000000000000E+000	-2.22476e-06	-1.40971e-10	-2.22462e-06	3.97734	7.11142e+06	450.611	7.11097e+06
9.95598e-05	62.8666	86.5801	106.997	-54.0163	20330.3	3.97759	-0.000559324	1.84637e+07	1.20896e+07	1	11	0.00508869	4.75593e-05	0	-0.0122245	0.000252038	4.66252e-06	49.4909	0.0980358	0.0636811	-0.0745368	-53.9652	106.974	62.9303	86.5055	0.00549134	0.00756269	0.00934607	54.0163	1.20896e+10	8.77838e+09	1.49405e+10	-35.9837	0.0000000E+000	0.0000000E+000	0.0000000E+000	35.9837	0.0000000E+000	0.0000000E+000	0.0000000E+000	-35.9837	0.0000000E+000	0.0000000E+000	0.0000000E+000	-54.0163	0.0000000E+000	0.0000000E+000	0.0000000E+000	54.0163	0.726109	35.9837	0.000000000000000E+000	-2.22476e-06	-1.40971e-10	-2.22462e-06	3.97734	7.11142e+06	450.611	7.11097e+06