Folder: EIS/txt (part 132)

File: 18819_R307_UA701_3p84_SOC00_C06.mpt
EC-Lab ASCII FILE
Nb header lines : 65

Potentio Electrochemical Impedance Spectroscopy

Run on channel : 6 (SN 65795)
User :
CE vs. WE compliance from -10 V to 10 V
Electrode connection : standard
Potential control : Ewe
Ewe ctrl range : min = -10.00 V, max = 10.00 V
Safety Limits :
	Do not start on E overload
Acquisition started on : 11/03/2025 16:09:12.763
Technique started on : 11/03/2025 16:09:14.490
Loaded Setting File :  C:\Users\Celltest\OneDrive - store-dot.com\Documents\EC-Lab\Data\@Biologic Test Protocols\anode half cell EIS SOC00.mps
Saved on :
	File : 18819_R307_UA701_3p84_SOC00_C06.mpr
	Directory : C:\Users\Celltest\OneDrive - store-dot.com\Documents\EC-Lab\Data\Anna\
	Host : 169.254.61.224
Device : VMP-3e (SN .003165)
Address : USB
EC-LAB for windows v11.62 (software)
Internet server v27.00 (firmware)
Command interpretor v12.03 (firmware)
Electrode material :
Initial state :
Electrolyte :
Comments :
Electrode surface area : 0.001 cm²
Characteristic mass : 0.001 g
Equivalent Weight : 0.000 g/eq.
Density : 0.000 g/cm3
Volume (V) : 0.001 cm³
Record Ece
Cycle Definition : Charge/Discharge alternance
Mode                Single sine
E (V)               0.0000
vs.                 Eoc
tE (h:m:s)          0:00:0.0000
record              0
dI                  0.000
unit dI             mA
dt (s)              0.000
fi                  100.000
unit fi             kHz
ff                  10.000
unit ff             mHz
Nd                  6
Points              per decade
spacing             Logarithmic
Va (mV)             5.0
pw                  0.10
Na                  2
corr                0
E range min (V)     -10.000
E range max (V)     10.000
I Range             Auto
Bandwidth           5
nc cycles           0
goto Ns'            0
nr cycles           0
inc. cycle          0

freq/Hz	Re(Z)/Ohm	-Im(Z)/Ohm	|Z|/Ohm	Phase(Z)/deg	time/s	<Ewe>/V	<I>/mA	Cs/µF	Cp/µF	cycle number	I Range	|Ewe|/V	|I|/A	Ns	(Q-Qo)/mA.h	<Ece>/V	|Ece|/V	Phase(Zce)/deg	|Zce|/Ohm	Re(Zce)/Ohm	-Im(Zce)/Ohm	Phase(Zwe-ce)/deg	|Zwe-ce|/Ohm	Re(Zwe-ce)/Ohm	-Im(Zwe-ce)/Ohm	Re(Y)/Ohm-1	Im(Y)/Ohm-1	|Y|/Ohm-1	Phase(Y)/deg	Re(C)/nF	Im(C)/nF	|C|/nF	Phase(C)/deg	Re(M)	Im(M)	|M|	Phase(M)/deg	Re(Permittivity)	Im(Permittivity)	|Permittivity|	Phase(Permittivity)/deg	Re(Resistivity)/Ohm.cm	Im(Resistivity)/Ohm.cm	|Resistivity|/Ohm.cm	Phase(Resistivity)/deg	Re(Conductivity)/mS/cm	Im(Conductivity)/mS/cm	|Conductivity|/mS/cm	Phase(Conductivity)/deg	Tan(Delta)	Loss Angle(Delta)/deg	dq/mA.h	Pwe/W	Pce/W	Pwe-ce/W	<Ewe-Ece>/V	Rwe/Ohm	Rce/Ohm	Rwe-ce/Ohm		Ewe-Ece/V
100004	0.973025	0.400068	1.05206	-22.3504	1.72655	0.246339	0.0454382	3.97805	0.575249	1	9	0.00496693	0.00472114	0	-1.36195e-06	0.000344552	5.75329e-05	87.1165	0.0121862	0.000613027	-0.0121708	-21.7223	1.04806	0.973638	0.387897	0.879108	0.361453	0.950515	22.3504	575.249	1399.09	1512.74	-67.6496	0.0000000E+000	0.0000000E+000	0.0000000E+000	67.6496	0.0000000E+000	0.0000000E+000	0.0000000E+000	-67.6496	0.0000000E+000	0.0000000E+000	0.0000000E+000	-22.3504	0.0000000E+000	0.0000000E+000	0.0000000E+000	22.3504	2.43215	67.6496	-1.36195e-06	1.11932e-05	1.56558e-08	1.11775e-05	0.245994	5421.4	7.58287	5413.82
31621.1	1.3191	0.529888	1.42155	-21.8855	3.24753	0.246307	0.0468164	9.49857	1.31978	1	9	0.00501234	0.00352597	0	2.70522e-05	-9.4703e-05	1.19193e-05	31.7188	0.00338043	0.00287552	-0.00177726	-21.776	1.42356	1.32198	0.528111	0.652759	0.262216	0.703456	21.8855	1319.78	3285.45	3540.62	-68.1145	0.0000000E+000	0.0000000E+000	0.0000000E+000	68.1145	0.0000000E+000	0.0000000E+000	0.0000000E+000	-68.1145	0.0000000E+000	0.0000000E+000	0.0000000E+000	-21.8855	0.0000000E+000	0.0000000E+000	0.0000000E+000	21.8855	2.4894	68.1145	1.40403e-05	1.15312e-05	-4.43365e-09	1.15356e-05	0.246402	5261.13	2.02286	5263.15
10002.2	1.71528	0.701364	1.85313	-22.2393	4.27454	0.246322	0.0416386	22.6871	3.24978	1	9	0.00501081	0.00270397	0	3.6673e-05	9.62774e-05	5.47934e-06	-145.61	0.00202641	-0.00167221	0.00114457	-22.2916	1.85202	1.71361	0.702509	0.499485	0.204235	0.539627	22.2393	3249.78	7947.78	8586.52	-67.7607	0.0000000E+000	0.0000000E+000	0.0000000E+000	67.7607	0.0000000E+000	0.0000000E+000	0.0000000E+000	-67.7607	0.0000000E+000	0.0000000E+000	0.0000000E+000	-22.2393	0.0000000E+000	0.0000000E+000	0.0000000E+000	22.2393	2.44563	67.7607	3.99557e-06	1.02565e-05	4.00886e-09	1.02525e-05	0.246225	5915.7	2.31221	5913.39
3163.08	2.24598	1.01446	2.46446	-24.3076	5.17564	0.246098	-0.0434403	49.5995	8.40429	1	9	0.00461958	0.00187448	0	3.96354e-05	0.000325454	8.12946e-06	-55.1371	0.00433691	0.00247904	0.00355853	-24.3592	2.46818	2.24846	1.01801	0.369797	0.167029	0.405769	24.3076	8404.29	18606.9	20416.9	-65.6924	0.0000000E+000	0.0000000E+000	0.0000000E+000	65.6924	0.0000000E+000	0.0000000E+000	0.0000000E+000	-65.6924	0.0000000E+000	0.0000000E+000	0.0000000E+000	-24.3076	0.0000000E+000	0.0000000E+000	0.0000000E+000	24.3076	2.21398	65.6924	-2.43108e-06	-1.06906e-05	-1.41378e-08	-1.06764e-05	0.245772	5665.19	7.49198	5657.7
1000.32	2.98432	1.60162	3.38694	-28.2215	6.98886	0.246223	-0.0189949	99.3394	22.2139	1	10	0.00508765	0.00150214	0	5.04569e-05	0.00036365	1.00672e-05	-42.9302	0.00670188	0.00490701	0.0045647	-28.2502	3.39342	2.98923	1.60619	0.260154	0.139619	0.295252	28.2215	22213.9	41391.5	46975.7	-61.7785	0.0000000E+000	0.0000000E+000	0.0000000E+000	61.7785	0.0000000E+000	0.0000000E+000	0.0000000E+000	-61.7785	0.0000000E+000	0.0000000E+000	0.0000000E+000	-28.2215	0.0000000E+000	0.0000000E+000	0.0000000E+000	28.2215	1.86331	61.7785	6.70416e-07	-4.677e-06	-6.9075e-09	-4.67009e-06	0.24586	12962.6	19.1446	12943.4
316.316	4.34216	2.81877	5.17686	-32.9902	8.33906	0.246223	-0.0196173	178.5	52.9209	1	10	0.00497008	0.000960057	0	4.45672e-05	7.87179e-07	3.66453e-06	5.20884	0.00381699	0.00380123	-0.00034653	-32.9641	5.17986	4.34596	2.81843	0.162022	0.105179	0.193167	32.9902	52920.9	81521.6	97192.5	-57.0098	0.0000000E+000	0.0000000E+000	0.0000000E+000	57.0098	0.0000000E+000	0.0000000E+000	0.0000000E+000	-57.0098	0.0000000E+000	0.0000000E+000	0.0000000E+000	-32.9902	0.0000000E+000	0.0000000E+000	0.0000000E+000	32.9902	1.54044	57.0098	-1.65156e-06	-4.83022e-06	-1.54423e-11	-4.8302e-06	0.246222	12551.3	0.0401268	12551.3
100.032	7.34278	4.05735	8.38919	-28.9234	9.68583	0.246204	-0.0198446	392.138	91.724	1	10	0.00493162	0.000587854	0	3.74539e-05	7.71793e-05	3.2149e-05	13.6614	0.0546887	0.0531415	-0.0129166	-28.6718	8.42954	7.39593	4.04443	0.104333	0.0576503	0.119201	28.9234	91724	165998	189654	-61.0766	0.0000000E+000	0.0000000E+000	0.0000000E+000	61.0766	0.0000000E+000	0.0000000E+000	0.0000000E+000	-61.0766	0.0000000E+000	0.0000000E+000	0.0000000E+000	-28.9234	0.0000000E+000	0.0000000E+000	0.0000000E+000	28.9234	1.80975	61.0766	-2.44417e-06	-4.88582e-06	-1.53159e-09	-4.88429e-06	0.246127	12406.6	3.88919	12402.7
[...]
1.00006	15.293	1.30741	15.3488	-4.88637	18.7	0.246242	-0.00636816	121725	883.19	1	11	0.00493569	0.000321568	0	1.21981e-05	0.000287258	5.30627e-06	51.1908	0.0165012	0.0103418	-0.0128584	-4.83529	15.358	15.3034	1.29455	0.0649148	0.0055496	0.0651515	4.88637	883190	1.03308e+07	1.03685e+07	-85.1136	0.0000000E+000	0.0000000E+000	0.0000000E+000	85.1136	0.0000000E+000	0.0000000E+000	0.0000000E+000	-85.1136	0.0000000E+000	0.0000000E+000	0.0000000E+000	-4.88637	0.0000000E+000	0.0000000E+000	0.0000000E+000	4.88637	11.6972	85.1136	-8.95252e-06	-1.5681e-06	-1.8293e-09	-1.56628e-06	0.245954	38667.6	45.1085	38622.5
0.316193	15.9583	1.46369	16.0253	-5.2405	36.2518	0.246241	-0.00655168	343888	2868.84	1	12	0.00493662	0.000308052	0	-6.06237e-05	0.000249062	2.90315e-06	-5.18005	0.00942422	0.00938573	0.000850873	-5.24047	16.0347	15.9677	1.46454	0.0621406	0.00569953	0.0624014	5.2405	2.86884e+06	3.12783e+07	3.14096e+07	-84.7595	0.0000000E+000	0.0000000E+000	0.0000000E+000	84.7595	0.0000000E+000	0.0000000E+000	0.0000000E+000	-84.7595	0.0000000E+000	0.0000000E+000	0.0000000E+000	-5.2405	0.0000000E+000	0.0000000E+000	0.0000000E+000	5.2405	10.9028	84.7595	-2.91363e-05	-1.61329e-06	-1.63177e-09	-1.61166e-06	0.245992	37584.3	38.0149	37546.3
0.0999041	16.8299	2.6944	17.0442	-9.09566	81.4588	0.246225	-0.00521518	591254	14775.6	1	12	0.00493664	0.000289637	0	2.22607e-06	0.000191768	1.36214e-06	40.6187	0.00470291	0.00356978	-0.00306169	-9.0836	17.0473	16.8335	2.69134	0.0579332	0.0092749	0.058671	9.09566	1.47756e+07	9.22921e+07	9.34674e+07	-80.9043	0.0000000E+000	0.0000000E+000	0.0000000E+000	80.9043	0.0000000E+000	0.0000000E+000	0.0000000E+000	-80.9043	0.0000000E+000	0.0000000E+000	0.0000000E+000	-9.09566	0.0000000E+000	0.0000000E+000	0.0000000E+000	9.09566	6.24624	80.9043	4.88898e-05	-1.28411e-06	-1.0001e-09	-1.28311e-06	0.246033	47213.1	36.771	47176.4
0.0315922	18.6368	6.13738	19.6213	-18.2275	224.342	0.246227	-0.00115569	820837	80309.4	1	12	0.00493599	0.000251563	0	-0.000106152	0.000134473	2.00573e-06	-19.3161	0.00797307	0.00752426	0.00263733	-18.228	19.6293	18.6443	6.14002	0.0484076	0.0159414	0.0509649	18.2275	8.03094e+07	2.43867e+08	2.56751e+08	-71.7725	0.0000000E+000	0.0000000E+000	0.0000000E+000	71.7725	0.0000000E+000	0.0000000E+000	0.0000000E+000	-71.7725	0.0000000E+000	0.0000000E+000	0.0000000E+000	-18.2275	0.0000000E+000	0.0000000E+000	0.0000000E+000	18.2275	3.0366	71.7725	-0.00015776	-2.84562e-07	-1.5541e-10	-2.84407e-07	0.246092	213055	116.357	212939
0.0100092	22.787	14.1048	26.7991	-31.7569	675.563	0.246215	-0.00328554	1.12734e+06	312283	1	12	0.00493719	0.000184229	0	-0.00129459	7.71793e-05	1.69359e-06	31.6431	0.00919283	0.00782615	-0.0048228	-31.7393	26.8033	22.7948	14.1	0.0317282	0.0196393	0.0373146	31.7569	3.12283e+08	5.04508e+08	5.93337e+08	-58.2431	0.0000000E+000	0.0000000E+000	0.0000000E+000	58.2431	0.0000000E+000	0.0000000E+000	0.0000000E+000	-58.2431	0.0000000E+000	0.0000000E+000	0.0000000E+000	-31.7569	0.0000000E+000	0.0000000E+000	0.0000000E+000	31.7569	1.61555	58.2431	-0.000348943	-8.08949e-07	-2.53576e-10	-8.08695e-07	0.246137	74938.8	23.4906	74915.3

File: 18820_R307_UA701_3p84_SOC00_C07.mpt
EC-Lab ASCII FILE
Nb header lines : 65

Potentio Electrochemical Impedance Spectroscopy

Run on channel : 7 (SN 66126)
User :
CE vs. WE compliance from -10 V to 10 V
Electrode connection : standard
Potential control : Ewe
Ewe ctrl range : min = -10.00 V, max = 10.00 V
Safety Limits :
	Do not start on E overload
Acquisition started on : 11/03/2025 16:09:20.167
Technique started on : 11/03/2025 16:09:22.078
Loaded Setting File :  C:\Users\Celltest\OneDrive - store-dot.com\Documents\EC-Lab\Data\@Biologic Test Protocols\anode half cell EIS SOC00.mps
Saved on :
	File : 18820_R307_UA701_3p84_SOC00_C07.mpr
	Directory : C:\Users\Celltest\OneDrive - store-dot.com\Documents\EC-Lab\Data\Anna\
	Host : 169.254.61.224
Device : VMP-3e (SN .003165)
Address : USB
EC-LAB for windows v11.62 (software)
Internet server v27.00 (firmware)
Command interpretor v12.03 (firmware)
Electrode material :
Initial state :
Electrolyte :
Comments :
Electrode surface area : 0.001 cm²
Characteristic mass : 0.001 g
Equivalent Weight : 0.000 g/eq.
Density : 0.000 g/cm3
Volume (V) : 0.001 cm³
Record Ece
Cycle Definition : Charge/Discharge alternance
Mode                Single sine
E (V)               0.0000
vs.                 Eoc
tE (h:m:s)          0:00:0.0000
record              0
dI                  0.000
unit dI             mA
dt (s)              0.000
fi                  100.000
unit fi             kHz
ff                  10.000
unit ff             mHz
Nd                  6
Points              per decade
spacing             Logarithmic
Va (mV)             5.0
pw                  0.10
Na                  2
corr                0
E range min (V)     -10.000
E range max (V)     10.000
I Range             Auto
Bandwidth           5
nc cycles           0
goto Ns'            0
nr cycles           0
inc. cycle          0

freq/Hz	Re(Z)/Ohm	-Im(Z)/Ohm	|Z|/Ohm	Phase(Z)/deg	time/s	<Ewe>/V	<I>/mA	Cs/µF	Cp/µF	cycle number	I Range	|Ewe|/V	|I|/A	Ns	(Q-Qo)/mA.h	<Ece>/V	|Ece|/V	Phase(Zce)/deg	|Zce|/Ohm	Re(Zce)/Ohm	-Im(Zce)/Ohm	Phase(Zwe-ce)/deg	|Zwe-ce|/Ohm	Re(Zwe-ce)/Ohm	-Im(Zwe-ce)/Ohm	Re(Y)/Ohm-1	Im(Y)/Ohm-1	|Y|/Ohm-1	Phase(Y)/deg	Re(C)/nF	Im(C)/nF	|C|/nF	Phase(C)/deg	Re(M)	Im(M)	|M|	Phase(M)/deg	Re(Permittivity)	Im(Permittivity)	|Permittivity|	Phase(Permittivity)/deg	Re(Resistivity)/Ohm.cm	Im(Resistivity)/Ohm.cm	|Resistivity|/Ohm.cm	Phase(Resistivity)/deg	Re(Conductivity)/mS/cm	Im(Conductivity)/mS/cm	|Conductivity|/mS/cm	Phase(Conductivity)/deg	Tan(Delta)	Loss Angle(Delta)/deg	dq/mA.h	Pwe/W	Pce/W	Pwe-ce/W	<Ewe-Ece>/V	Rwe/Ohm	Rce/Ohm	Rwe-ce/Ohm		Ewe-Ece/V
100004	1.10589	0.424861	1.1847	-21.0157	1.91055	0.250371	0.0472972	3.74591	0.481765	1	9	0.00453376	0.00382693	0	3.9134e-06	-0.000307521	4.54225e-05	92.9309	0.0118692	-0.000606899	-0.0118536	-20.4889	1.17993	1.10529	0.413007	0.78795	0.302713	0.844097	21.0157	481.765	1254.01	1343.37	-68.9843	0.0000000E+000	0.0000000E+000	0.0000000E+000	68.9843	0.0000000E+000	0.0000000E+000	0.0000000E+000	-68.9843	0.0000000E+000	0.0000000E+000	0.0000000E+000	-21.0157	0.0000000E+000	0.0000000E+000	0.0000000E+000	21.0157	2.60296	68.9843	3.9134e-06	1.18418e-05	-1.45449e-08	1.18564e-05	0.250679	5293.57	6.50189	5300.08
31621.1	1.46999	0.560494	1.57322	-20.8714	3.43156	0.250396	0.0522868	8.97991	1.13982	1	9	0.0050744	0.00322549	0	3.26482e-05	-7.86157e-05	1.38005e-05	31.1279	0.00427859	0.00366254	-0.00221182	-20.7488	1.57586	1.47365	0.558282	0.59393	0.226461	0.63564	20.8714	1139.82	2989.36	3199.29	-69.1286	0.0000000E+000	0.0000000E+000	0.0000000E+000	69.1286	0.0000000E+000	0.0000000E+000	0.0000000E+000	-69.1286	0.0000000E+000	0.0000000E+000	0.0000000E+000	-20.8714	0.0000000E+000	0.0000000E+000	0.0000000E+000	20.8714	2.62266	69.1286	8.98075e-06	1.30924e-05	-4.11056e-09	1.30965e-05	0.250475	4788.9	1.50355	4790.4
10002.2	1.89228	0.733833	2.02959	-21.1965	4.58652	0.250399	0.0441321	21.6834	2.83469	1	9	0.0049729	0.0024502	0	4.88152e-05	-0.000441049	1.28825e-05	-42.6911	0.00525775	0.00386455	0.00356499	-21.2507	2.03448	1.89614	0.737398	0.459377	0.178148	0.492711	21.1965	2834.69	7309.58	7839.99	-68.8035	0.0000000E+000	0.0000000E+000	0.0000000E+000	68.8035	0.0000000E+000	0.0000000E+000	0.0000000E+000	-68.8035	0.0000000E+000	0.0000000E+000	0.0000000E+000	-21.1965	0.0000000E+000	0.0000000E+000	0.0000000E+000	21.1965	2.57862	68.8035	5.26006e-06	1.10506e-05	-1.94644e-08	1.10701e-05	0.25084	5673.86	9.99384	5683.85
3163.08	2.44269	1.0512	2.65928	-23.2844	5.66268	0.250143	-0.0483251	47.8658	7.47942	1	9	0.00496242	0.00186608	0	4.65446e-05	-0.000288445	4.22726e-06	-57.7261	0.00226532	0.0012096	0.00191534	-23.312	2.66114	2.4439	1.05311	0.345415	0.148648	0.376042	23.2844	7479.42	17380.1	18921.1	-66.7156	0.0000000E+000	0.0000000E+000	0.0000000E+000	66.7156	0.0000000E+000	0.0000000E+000	0.0000000E+000	-66.7156	0.0000000E+000	0.0000000E+000	0.0000000E+000	-23.2844	0.0000000E+000	0.0000000E+000	0.0000000E+000	23.2844	2.32372	66.7156	-4.37925e-06	-1.20882e-05	1.39392e-08	-1.21021e-05	0.250432	5176.25	5.96885	5182.22
1000.32	3.22412	1.65604	3.62456	-27.1869	7.26078	0.250318	-0.020024	96.0748	20.0559	1	10	0.00498142	0.00137435	0	6.67365e-05	3.58368e-05	7.56141e-06	-76.9164	0.00550181	0.00124546	0.00535898	-27.2532	3.62812	3.22537	1.6614	0.245415	0.126055	0.275896	27.1869	20055.9	39046.5	43896.1	-62.8131	0.0000000E+000	0.0000000E+000	0.0000000E+000	62.8131	0.0000000E+000	0.0000000E+000	0.0000000E+000	-62.8131	0.0000000E+000	0.0000000E+000	0.0000000E+000	-27.1869	0.0000000E+000	0.0000000E+000	0.0000000E+000	27.1869	1.94688	62.8131	4.05874e-06	-5.01235e-06	-7.17594e-10	-5.01163e-06	0.250282	12500.9	1.7897	12499.1
316.316	4.60048	2.86778	5.42112	-31.9379	8.61208	0.250324	-0.0195512	175.45	49.0982	1	10	0.00488758	0.00090158	0	6.03242e-05	-0.000326596	8.99921e-06	73.4502	0.00998159	0.00284324	-0.00956808	-31.8362	5.41848	4.60333	2.85821	0.15654	0.0975813	0.184464	31.9379	49098.2	78763.3	92813.2	-58.0621	0.0000000E+000	0.0000000E+000	0.0000000E+000	58.0621	0.0000000E+000	0.0000000E+000	0.0000000E+000	-58.0621	0.0000000E+000	0.0000000E+000	0.0000000E+000	-31.9379	0.0000000E+000	0.0000000E+000	0.0000000E+000	31.9379	1.6042	58.0621	-1.73567e-06	-4.89412e-06	6.38534e-09	-4.90051e-06	0.25065	12803.5	16.7047	12820.2
100.032	7.59545	4.15362	8.65699	-28.6723	9.95782	0.250319	-0.0198453	383.049	88.1808	1	10	0.00486802	0.000562323	0	5.27872e-05	-0.000173993	8.25924e-06	26.7914	0.0146877	0.013111	-0.00662039	-28.5923	8.66533	7.60857	4.147	0.101349	0.0554234	0.115514	28.6723	88180.8	161250	183787	-61.3277	0.0000000E+000	0.0000000E+000	0.0000000E+000	61.3277	0.0000000E+000	0.0000000E+000	0.0000000E+000	-61.3277	0.0000000E+000	0.0000000E+000	0.0000000E+000	-28.6723	0.0000000E+000	0.0000000E+000	0.0000000E+000	28.6723	1.82864	61.3277	-2.18721e-06	-4.96765e-06	3.45294e-09	-4.9711e-06	0.250493	12613.5	8.76747	12622.3
[...]
1.00006	16.5249	1.46982	16.5901	-5.08286	20.0199	0.25037	-0.00314874	108275	849.884	1	12	0.00485835	0.000292846	0	2.86872e-05	-0.000383823	4.09128e-06	22.1239	0.0139708	0.0129421	-0.00526154	-5.06082	16.6025	16.5378	1.46456	0.0600399	0.00534032	0.0602769	5.08286	849884	9.55504e+06	9.59276e+06	-84.9171	0.0000000E+000	0.0000000E+000	0.0000000E+000	84.9171	0.0000000E+000	0.0000000E+000	0.0000000E+000	-84.9171	0.0000000E+000	0.0000000E+000	0.0000000E+000	-5.08286	0.0000000E+000	0.0000000E+000	0.0000000E+000	5.08286	11.2428	84.9171	-1.10155e-05	-7.88351e-07	1.20856e-09	-7.89559e-07	0.250754	79514.2	121.897	79636.1
0.316193	17.2606	1.63678	17.338	-5.41703	34.3629	0.250368	-0.00548878	307522	2740.69	1	12	0.00486214	0.000280432	0	-3.56424e-06	-0.000154917	1.42676e-06	76.8955	0.00508773	0.00115353	-0.00495524	-5.40037	17.3387	17.2618	1.63183	0.0574191	0.00544492	0.0576766	5.41703	2.74069e+06	2.89017e+07	2.90314e+07	-84.583	0.0000000E+000	0.0000000E+000	0.0000000E+000	84.583	0.0000000E+000	0.0000000E+000	0.0000000E+000	-84.583	0.0000000E+000	0.0000000E+000	0.0000000E+000	-5.41703	0.0000000E+000	0.0000000E+000	0.0000000E+000	5.41703	10.5454	84.583	-3.53479e-06	-1.37422e-06	8.50307e-10	-1.37507e-06	0.250523	45614.6	28.2244	45642.8
0.0999041	18.2632	2.92748	18.4964	-9.10667	79.571	0.250375	-0.00199488	544181	13631.9	1	12	0.00486025	0.000262768	0	8.93866e-05	-0.000173993	1.68272e-06	7.07094	0.00640382	0.00635512	-0.000788299	-9.10115	18.5025	18.2696	2.92669	0.0533832	0.00855698	0.0540647	9.10667	1.36319e+07	8.50436e+07	8.61292e+07	-80.8933	0.0000000E+000	0.0000000E+000	0.0000000E+000	80.8933	0.0000000E+000	0.0000000E+000	0.0000000E+000	-80.8933	0.0000000E+000	0.0000000E+000	0.0000000E+000	-9.10667	0.0000000E+000	0.0000000E+000	0.0000000E+000	9.10667	6.23856	80.8933	4.16945e-05	-4.99467e-07	3.47094e-10	-4.99814e-07	0.250549	125509	87.2198	125596
0.0315922	20.1789	6.39236	21.1672	-17.5773	222.455	0.250377	-0.00125299	788096	71874.1	1	12	0.00485982	0.000229592	0	-0.000186965	-0.000250295	1.91766e-06	6.89819	0.0083525	0.00829204	-0.00100318	-17.568	21.1748	20.1872	6.39135	0.0450371	0.014267	0.0472428	17.5773	7.18741e+07	2.26887e+08	2.37999e+08	-72.4227	0.0000000E+000	0.0000000E+000	0.0000000E+000	72.4227	0.0000000E+000	0.0000000E+000	0.0000000E+000	-72.4227	0.0000000E+000	0.0000000E+000	0.0000000E+000	-17.5773	0.0000000E+000	0.0000000E+000	0.0000000E+000	17.5773	3.15673	72.4227	-0.000217194	-3.13719e-07	3.13615e-10	-3.14033e-07	0.250627	199824	199.759	200024
0.0100092	24.4097	14.7406	28.5152	-31.1272	673.678	0.250378	-0.00313674	1.07871e+06	288260	1	12	0.00485913	0.000170405	0	-0.000870323	-0.000193068	1.76411e-06	37.6081	0.0103525	0.00820127	-0.00631767	-31.1078	28.519	24.4179	14.7343	0.0300198	0.0181285	0.035069	31.1272	2.8826e+08	4.77343e+08	5.57629e+08	-58.8728	0.0000000E+000	0.0000000E+000	0.0000000E+000	58.8728	0.0000000E+000	0.0000000E+000	0.0000000E+000	-58.8728	0.0000000E+000	0.0000000E+000	0.0000000E+000	-31.1272	0.0000000E+000	0.0000000E+000	0.0000000E+000	31.1272	1.65594	58.8728	-5.00716e-05	-7.85372e-07	6.05606e-10	-7.85977e-07	0.250571	79821	61.5505	79882.5