Folder: EIS/txt (part 61)

File: 17710_R287_UA662_SOC00_C08.mpt
EC-Lab ASCII FILE

Nb header lines : 63

Potentio Electrochemical Impedance Spectroscopy

Run on channel : 8 (SN 65398)
User :
CE vs. WE compliance from -10 V to 10 V
Electrode connection : standard
Potential control : Ewe
Ewe ctrl range : min = -10.00 V, max = 10.00 V
Safety Limits :
	Do not start on E overload
Acquisition started on : 09/22/2025 10:03:51.870
Loaded Setting File :  C:\Users\Celltest\OneDrive - store-dot.com\Documents\EC-Lab\Data\Charmaine\17688_R288_UA670_SOC00_C03.mpr
Saved on :
	File : 17710_R287_UA662_SOC00_C08.mpr
	Directory : C:\Users\Celltest\OneDrive - store-dot.com\Documents\EC-Lab\Data\Charmaine\
	Host : 169.254.61.224
Device : VMP-3e (SN .003165)
Address : USB
EC-LAB for windows v11.62 (software)
Internet server v27.00 (firmware)
Command interpretor v12.03 (firmware)
Electrode material :
Initial state :
Electrolyte :
Comments :
Electrode surface area : 0.001 cm²
Characteristic mass : 0.001 g
Equivalent Weight : 0.000 g/eq.
Density : 0.000 g/cm3
Volume (V) : 0.001 cm³
Cycle Definition : Charge/Discharge alternance
Mode                Single sine
E (V)               0.0000
vs.                 Eoc
tE (h:m:s)          0:00:0.0000
record              0
dI                  0.000
unit dI             mA
dt (s)              0.000
fi                  100.000
unit fi             kHz
ff                  10.000
unit ff             mHz
Nd                  6
Points              per decade
spacing             Logarithmic
Va (mV)             5.0
pw                  0.10
Na                  2
corr                0
E range min (V)     -10.000
E range max (V)     10.000
I Range             Auto
Bandwidth           5
nc cycles           0
goto Ns'            0
nr cycles           0
inc. cycle          0

freq/Hz	Re(Z)/Ohm	-Im(Z)/Ohm	|Z|/Ohm	Phase(Z)/deg	time/s	<Ewe>/V	<I>/mA	Cs/µF	Cp/µF	cycle number	I Range	|Ewe|/V	|I|/A	Ns	(Q-Qo)/mA.h	Re(Y)/Ohm-1	Im(Y)/Ohm-1	|Y|/Ohm-1	Phase(Y)/deg	Re(C)/nF	Im(C)/nF	|C|/nF	Phase(C)/deg	Re(M)	Im(M)	|M|	Phase(M)/deg	Re(Permittivity)	Im(Permittivity)	|Permittivity|	Phase(Permittivity)/deg	Re(Resistivity)/Ohm.cm	Im(Resistivity)/Ohm.cm	|Resistivity|/Ohm.cm	Phase(Resistivity)/deg	Re(Conductivity)/mS/cm	Im(Conductivity)/mS/cm	|Conductivity|/mS/cm	Phase(Conductivity)/deg	Tan(Delta)	Loss Angle(Delta)/deg	dq/mA.h	Pwe/W	Rwe/Ohm
100004	1.34163	0.237224	1.36245	-10.0272	2.07749	0.272291	0.0486257	6.70881	0.203387	1	9	0.00490996	0.00360378	0	6.6592e-06	0.722763	0.127797	0.733974	10.0272	203.387	1150.27	1168.11	-79.9728	0.0000000E+000	0.0000000E+000	0.0000000E+000	79.9728	0.0000000E+000	0.0000000E+000	0.0000000E+000	-79.9728	0.0000000E+000	0.0000000E+000	0.0000000E+000	-10.0272	0.0000000E+000	0.0000000E+000	0.0000000E+000	10.0272	5.65556	79.9728	6.6592e-06	1.32403e-05	5599.73
46420.4	1.45821	0.329419	1.49496	-12.7298	3.09248	0.272301	0.0506533	10.4079	0.505364	1	9	0.00508747	0.00340309	0	2.43379e-05	0.652474	0.147398	0.668916	12.7298	505.364	2237.05	2293.42	-77.2702	0.0000000E+000	0.0000000E+000	0.0000000E+000	77.2702	0.0000000E+000	0.0000000E+000	0.0000000E+000	-77.2702	0.0000000E+000	0.0000000E+000	0.0000000E+000	-12.7298	0.0000000E+000	0.0000000E+000	0.0000000E+000	12.7298	4.42661	77.2702	7.28203e-06	1.37929e-05	5375.78
21544.7	1.62615	0.443131	1.68545	-15.2432	4.1075	0.2723	0.0444963	16.6705	1.15234	1	9	0.00507808	0.00301289	0	2.89902e-05	0.57244	0.155992	0.593314	15.2432	1152.34	4228.73	4382.93	-74.7568	0.0000000E+000	0.0000000E+000	0.0000000E+000	74.7568	0.0000000E+000	0.0000000E+000	0.0000000E+000	-74.7568	0.0000000E+000	0.0000000E+000	0.0000000E+000	-15.2432	0.0000000E+000	0.0000000E+000	0.0000000E+000	15.2432	3.66968	74.7568	4.86841e-06	1.21163e-05	6119.61
10002.2	1.84605	0.583927	1.9362	-17.5527	5.12248	0.272292	0.0430454	27.2499	2.47845	1	9	0.00506226	0.00261453	0	3.81532e-05	0.492428	0.15576	0.516475	17.5527	2478.45	7835.49	8218.13	-72.4473	0.0000000E+000	0.0000000E+000	0.0000000E+000	72.4473	0.0000000E+000	0.0000000E+000	0.0000000E+000	-72.4473	0.0000000E+000	0.0000000E+000	0.0000000E+000	-17.5527	0.0000000E+000	0.0000000E+000	0.0000000E+000	17.5527	3.16144	72.4473	6.80802e-06	1.17209e-05	6325.69
4641.49	2.13636	0.771072	2.27125	-19.8459	6.37271	0.272289	0.0314569	44.4701	5.12538	1	9	0.00548325	0.0024142	0	4.53619e-05	0.414136	0.149473	0.440285	19.8459	5125.38	14200.6	15097.2	-70.1541	0.0000000E+000	0.0000000E+000	0.0000000E+000	70.1541	0.0000000E+000	0.0000000E+000	0.0000000E+000	-70.1541	0.0000000E+000	0.0000000E+000	0.0000000E+000	-19.8459	0.0000000E+000	0.0000000E+000	0.0000000E+000	19.8459	2.77064	70.1541	8.48153e-06	8.56537e-06	8655.94
2155.69	2.50074	1.02417	2.70234	-22.2714	7.7527	0.272289	0.033782	72.0877	10.3545	1	9	0.00510831	0.00189033	0	5.2703e-05	0.342444	0.140247	0.37005	22.2714	10354.5	25282.7	27320.9	-67.7286	0.0000000E+000	0.0000000E+000	0.0000000E+000	67.7286	0.0000000E+000	0.0000000E+000	0.0000000E+000	-67.7286	0.0000000E+000	0.0000000E+000	0.0000000E+000	-22.2714	0.0000000E+000	0.0000000E+000	0.0000000E+000	22.2714	2.44172	67.7286	5.08356e-06	9.19847e-06	8060.18
1000.32	2.98127	1.39439	3.29125	-25.0663	9.1677	0.272298	-0.00148213	114.103	20.4807	1	10	0.00517345	0.00157188	0	6.39152e-05	0.27522	0.128725	0.303836	25.0663	20480.7	43788.6	48341.5	-64.9337	0.0000000E+000	0.0000000E+000	0.0000000E+000	64.9337	0.0000000E+000	0.0000000E+000	0.0000000E+000	-64.9337	0.0000000E+000	0.0000000E+000	0.0000000E+000	-25.0663	0.0000000E+000	0.0000000E+000	0.0000000E+000	25.0663	2.13804	64.9337	3.71451e-06	-4.03582e-07	183721
463.961	3.61953	1.98249	4.1269	-28.7104	10.1022	0.272303	-0.00119012	173.032	39.9303	1	10	0.00499086	0.00120935	0	6.39161e-05	0.212522	0.116403	0.242313	28.7104	39930.3	72902.7	83121.8	-61.2896	0.0000000E+000	0.0000000E+000	0.0000000E+000	61.2896	0.0000000E+000	0.0000000E+000	0.0000000E+000	-61.2896	0.0000000E+000	0.0000000E+000	0.0000000E+000	-28.7104	0.0000000E+000	0.0000000E+000	0.0000000E+000	28.7104	1.82575	61.2896	-3.65286e-08	-3.24074e-07	228803
215.345	4.59223	2.88975	5.42579	-32.1809	11.0364	0.272302	-0.00162536	255.756	72.5471	1	10	0.00483749	0.000891573	0	6.49169e-05	0.15599	0.0981599	0.184305	32.1809	72547.1	115288	136214	-57.8191	0.0000000E+000	0.0000000E+000	0.0000000E+000	57.8191	0.0000000E+000	0.0000000E+000	0.0000000E+000	-57.8191	0.0000000E+000	0.0000000E+000	0.0000000E+000	-32.1809	0.0000000E+000	0.0000000E+000	0.0000000E+000	32.1809	1.58915	57.8191	4.53399e-07	-4.42589e-07	167533
100.032	6.28039	4.12948	7.51638	-33.3257	11.9677	0.272303	-0.00219639	385.288	116.294	1	10	0.00477145	0.000634807	0	6.33094e-05	0.111165	0.0730934	0.133043	33.3257	116294	176869	211676	-56.6743	0.0000000E+000	0.0000000E+000	0.0000000E+000	56.6743	0.0000000E+000	0.0000000E+000	0.0000000E+000	-56.6743	0.0000000E+000	0.0000000E+000	0.0000000E+000	-33.3257	0.0000000E+000	0.0000000E+000	0.0000000E+000	33.3257	1.52087	56.6743	-9.25789e-07	-5.98083e-07	123978
46.4415	9.01004	5.085	10.3459	-29.4391	12.9016	0.272295	-0.00229497	673.942	162.805	1	10	0.00475049	0.000459166	0	6.20733e-05	0.0841761	0.0475065	0.0966565	29.4391	162805	288471	331241	-60.5609	0.0000000E+000	0.0000000E+000	0.0000000E+000	60.5609	0.0000000E+000	0.0000000E+000	0.0000000E+000	-60.5609	0.0000000E+000	0.0000000E+000	0.0000000E+000	-29.4391	0.0000000E+000	0.0000000E+000	0.0000000E+000	29.4391	1.77188	60.5609	-5.94557e-07	-6.2491e-07	118649
[...]
0.464091	19.304	1.84314	19.3918	-5.45404	29.9256	0.272315	-0.00125005	186063	1680.88	1	12	0.00474388	0.000244633	0	6.04466e-05	0.0513347	0.00490141	0.0515681	5.45404	1.68088e+06	1.76047e+07	1.76847e+07	-84.546	0.0000000E+000	0.0000000E+000	0.0000000E+000	84.546	0.0000000E+000	0.0000000E+000	0.0000000E+000	-84.546	0.0000000E+000	0.0000000E+000	0.0000000E+000	-5.45404	0.0000000E+000	0.0000000E+000	0.0000000E+000	5.45404	10.4735	84.546	-5.15965e-06	-3.40408e-07	217843
0.215268	19.906	1.95675	20.002	-5.61411	46.4039	0.272324	-0.000581719	377838	3616.03	1	12	0.00474051	0.000237002	0	6.36905e-06	0.0497553	0.00489092	0.0499951	5.61411	3.61603e+06	3.67858e+07	3.69631e+07	-84.3859	0.0000000E+000	0.0000000E+000	0.0000000E+000	84.3859	0.0000000E+000	0.0000000E+000	0.0000000E+000	-84.3859	0.0000000E+000	0.0000000E+000	0.0000000E+000	-5.61411	0.0000000E+000	0.0000000E+000	0.0000000E+000	5.61411	10.173	84.3859	-3.38608e-05	-1.58416e-07	468136
0.0999041	20.6187	2.56155	20.7772	-7.08182	81.8111	0.272309	-0.00263251	621920	9452.92	1	12	0.00473525	0.000227906	0	-5.42464e-05	0.0477626	0.00593375	0.0481297	7.08182	9.45292e+06	7.60894e+07	7.66744e+07	-82.9182	0.0000000E+000	0.0000000E+000	0.0000000E+000	82.9182	0.0000000E+000	0.0000000E+000	0.0000000E+000	-82.9182	0.0000000E+000	0.0000000E+000	0.0000000E+000	-7.08182	0.0000000E+000	0.0000000E+000	0.0000000E+000	7.08182	8.04931	82.9182	-2.21832e-05	-7.16857e-07	103441
0.0464052	21.4494	3.94696	21.8095	-10.4265	158.048	0.272305	-0.002509	868941	28459.4	1	12	0.00474265	0.000217458	0	4.83716e-05	0.0450945	0.00829798	0.0458516	10.4265	2.84594e+07	1.5466e+08	1.57256e+08	-79.5735	0.0000000E+000	0.0000000E+000	0.0000000E+000	79.5735	0.0000000E+000	0.0000000E+000	0.0000000E+000	-79.5735	0.0000000E+000	0.0000000E+000	0.0000000E+000	-10.4265	0.0000000E+000	0.0000000E+000	0.0000000E+000	10.4265	5.43439	79.5735	8.79855e-05	-6.83215e-07	108531
0.0215268	23.1067	6.32495	23.9567	-15.3085	322.277	0.272306	0.000203112	1.16892e+06	81478.8	1	12	0.00474512	0.000198071	0	0.00035518	0.0402609	0.0110206	0.041742	15.3085	8.14788e+07	2.97663e+08	3.08613e+08	-74.6915	0.0000000E+000	0.0000000E+000	0.0000000E+000	74.6915	0.0000000E+000	0.0000000E+000	0.0000000E+000	-74.6915	0.0000000E+000	0.0000000E+000	0.0000000E+000	-15.3085	0.0000000E+000	0.0000000E+000	0.0000000E+000	15.3085	3.65326	74.6915	0.00014867	5.53086e-08	1.34067e+06
0.0146812	24.1418	8.22868	25.5057	-18.8215	465.472	0.272308	0.000639968	1.31744e+06	137125	1	12	0.00474227	0.00018593	0	0.000350994	0.0371105	0.012649	0.039207	18.8215	1.37125e+08	4.02306e+08	4.25033e+08	-71.1785	0.0000000E+000	0.0000000E+000	0.0000000E+000	71.1785	0.0000000E+000	0.0000000E+000	0.0000000E+000	-71.1785	0.0000000E+000	0.0000000E+000	0.0000000E+000	-18.8215	0.0000000E+000	0.0000000E+000	0.0000000E+000	18.8215	2.93386	71.1785	-4.18567e-06	1.74268e-07	425502

0.0100092	25.2382	10.5121	27.3399	-22.6125	675.493	0.272314	0.000206001	1.51263e+06	223623	1	12	0.00474379	0.000173511	0	2.0008e-05	0.0337648	0.0140636	0.0365766	22.6125	2.23623e+08	5.36891e+08	5.81601e+08	-67.3875	0.0000000E+000	0.0000000E+000	0.0000000E+000	67.3875	0.0000000E+000	0.0000000E+000	0.0000000E+000	-67.3875	0.0000000E+000	0.0000000E+000	0.0000000E+000	-22.6125	0.0000000E+000	0.0000000E+000	0.0000000E+000	22.6125	2.40087	67.3875	-0.000330986	5.6097e-08	1.3219e+06

File: 17711_R287_UA663_SOC00_C01.mpt
EC-Lab ASCII FILE
Nb header lines : 63

Potentio Electrochemical Impedance Spectroscopy

Run on channel : 1 (SN 66354)
User :
CE vs. WE compliance from -10 V to 10 V
Electrode connection : standard
Potential control : Ewe
Ewe ctrl range : min = -10.00 V, max = 10.00 V
Safety Limits :
	Do not start on E overload
Acquisition started on : 09/22/2025 10:24:53.423
Loaded Setting File :  C:\Users\Celltest\OneDrive - store-dot.com\Documents\EC-Lab\Data\txt_done\14380_R229_UA592_SOC00_C01.mpr
Saved on :
	File : 17711_R287_UA663_SOC00_C01.mpr
	Directory : C:\Users\Celltest\OneDrive - store-dot.com\Documents\EC-Lab\Data\Charmaine\
	Host : 169.254.61.224
Device : VMP-3e (SN .003165)
Address : USB
EC-LAB for windows v11.62 (software)
Internet server v27.00 (firmware)
Command interpretor v12.03 (firmware)
Electrode material :
Initial state :
Electrolyte :
Comments :
Electrode surface area : 0.001 cm²
Characteristic mass : 0.001 g
Equivalent Weight : 0.000 g/eq.
Density : 0.000 g/cm3
Volume (V) : 0.001 cm³
Cycle Definition : Charge/Discharge alternance
Mode                Single sine
E (V)               0.0000
vs.                 Eoc
tE (h:m:s)          0:00:0.0000
record              0
dI                  0.000
unit dI             mA
dt (s)              0.000
fi                  100.000
unit fi             kHz
ff                  10.000
unit ff             mHz
Nd                  6
Points              per decade
spacing             Logarithmic
Va (mV)             5.0
pw                  0.10
Na                  2
corr                0
E range min (V)     -10.000
E range max (V)     10.000
I Range             Auto
Bandwidth           5
nc cycles           0
goto Ns'            0
nr cycles           0
inc. cycle          0

freq/Hz	Re(Z)/Ohm	-Im(Z)/Ohm	|Z|/Ohm	Phase(Z)/deg	time/s	<Ewe>/V	<I>/mA	Cs/µF	Cp/µF	cycle number	I Range	|Ewe|/V	|I|/A	Ns	(Q-Qo)/mA.h	Re(Y)/Ohm-1	Im(Y)/Ohm-1	|Y|/Ohm-1	Phase(Y)/deg	Re(C)/nF	Im(C)/nF	|C|/nF	Phase(C)/deg	Re(M)	Im(M)	|M|	Phase(M)/deg	Re(Permittivity)	Im(Permittivity)	|Permittivity|	Phase(Permittivity)/deg	Re(Resistivity)/Ohm.cm	Im(Resistivity)/Ohm.cm	|Resistivity|/Ohm.cm	Phase(Resistivity)/deg	Re(Conductivity)/mS/cm	Im(Conductivity)/mS/cm	|Conductivity|/mS/cm	Phase(Conductivity)/deg	Tan(Delta)	Loss Angle(Delta)/deg	dq/mA.h	Pwe/W	Rwe/Ohm
100004	1.02737	0.221932	1.05106	-12.1898	2.06648	0.269834	0.0792168	7.17106	0.319717	1	9	0.00478176	0.00454945	0	8.71217e-06	0.929966	0.200892	0.951417	12.1898	319.717	1480.03	1514.17	-77.8102	0.0000000E+000	0.0000000E+000	0.0000000E+000	77.8102	0.0000000E+000	0.0000000E+000	0.0000000E+000	-77.8102	0.0000000E+000	0.0000000E+000	0.0000000E+000	-12.1898	0.0000000E+000	0.0000000E+000	0.0000000E+000	12.1898	4.62919	77.8102	8.71217e-06	2.13754e-05	3406.27
46420.4	1.13664	0.268726	1.16797	-13.3017	3.0815	0.269831	0.0816011	12.7586	0.675392	1	9	0.00504165	0.00431658	0	3.14795e-05	0.833214	0.19699	0.856184	13.3017	675.392	2856.72	2935.48	-76.6983	0.0000000E+000	0.0000000E+000	0.0000000E+000	76.6983	0.0000000E+000	0.0000000E+000	0.0000000E+000	-76.6983	0.0000000E+000	0.0000000E+000	0.0000000E+000	-13.3017	0.0000000E+000	0.0000000E+000	0.0000000E+000	13.3017	4.22973	76.6983	1.42189e-05	2.20185e-05	3306.71
21544.7	1.26967	0.344574	1.31559	-15.1837	4.09648	0.269835	0.0801295	21.4386	1.47068	1	9	0.00538258	0.00409136	0	5.18213e-05	0.733578	0.199085	0.760113	15.1837	1470.68	5419.09	5615.11	-74.8163	0.0000000E+000	0.0000000E+000	0.0000000E+000	74.8163	0.0000000E+000	0.0000000E+000	0.0000000E+000	-74.8163	0.0000000E+000	0.0000000E+000	0.0000000E+000	-15.1837	0.0000000E+000	0.0000000E+000	0.0000000E+000	15.1837	3.68475	74.8163	1.03634e-05	2.16217e-05	3367.48
10002.2	1.42393	0.443727	1.49146	-17.3082	4.82948	0.269833	0.0744296	35.8598	3.17406	1	9	0.0050103	0.00335932	0	7.15794e-05	0.640123	0.199477	0.670483	17.3082	3174.06	10185.6	10668.7	-72.6918	0.0000000E+000	0.0000000E+000	0.0000000E+000	72.6918	0.0000000E+000	0.0000000E+000	0.0000000E+000	-72.6918	0.0000000E+000	0.0000000E+000	0.0000000E+000	-17.3082	0.0000000E+000	0.0000000E+000	0.0000000E+000	17.3082	3.20901	72.6918	1.07259e-05	2.00836e-05	3625.35
4641.49	1.61275	0.613682	1.72556	-20.8328	5.67869	0.269782	0.0880833	55.8753	7.06716	1	9	0.0045118	0.00261468	0	8.10279e-05	0.541633	0.206102	0.579521	20.8328	7067.16	18572.4	19871.6	-69.1672	0.0000000E+000	0.0000000E+000	0.0000000E+000	69.1672	0.0000000E+000	0.0000000E+000	0.0000000E+000	-69.1672	0.0000000E+000	0.0000000E+000	0.0000000E+000	-20.8328	0.0000000E+000	0.0000000E+000	0.0000000E+000	20.8328	2.62799	69.1672	1.22145e-05	2.37633e-05	3062.8
2155.69	1.86093	0.901464	2.06778	-25.8462	6.83569	0.26978	0.0870216	81.9003	15.5659	1	9	0.00488504	0.00236246	0	0.000105438	0.435234	0.210834	0.48361	25.8462	15565.9	32133.4	35705	-64.1538	0.0000000E+000	0.0000000E+000	0.0000000E+000	64.1538	0.0000000E+000	0.0000000E+000	0.0000000E+000	-64.1538	0.0000000E+000	0.0000000E+000	0.0000000E+000	-25.8462	0.0000000E+000	0.0000000E+000	0.0000000E+000	25.8462	2.06435	64.1538	9.50279e-06	2.34767e-05	3100.15
1000.32	2.22557	1.40899	2.63408	-32.3376	7.7717	0.269782	0.0895362	112.921	32.3094	1	9	0.00484464	0.00183921	0	0.000127626	0.320761	0.203071	0.379639	32.3376	32309.4	51034.4	60402	-57.6624	0.0000000E+000	0.0000000E+000	0.0000000E+000	57.6624	0.0000000E+000	0.0000000E+000	0.0000000E+000	-57.6624	0.0000000E+000	0.0000000E+000	0.0000000E+000	-32.3376	0.0000000E+000	0.0000000E+000	0.0000000E+000	32.3376	1.57955	57.6624	1.01781e-05	2.41553e-05	3013.11
463.961	2.8539	2.26248	3.64192	-38.4063	8.96022	0.269795	-0.0138796	151.619	58.5145	1	10	0.0048871	0.0013419	0	0.000142017	0.215168	0.170579	0.274581	38.4063	58514.6	73810.3	94190.8	-51.5937	0.0000000E+000	0.0000000E+000	0.0000000E+000	51.5937	0.0000000E+000	0.0000000E+000	0.0000000E+000	-51.5937	0.0000000E+000	0.0000000E+000	0.0000000E+000	-38.4063	0.0000000E+000	0.0000000E+000	0.0000000E+000	38.4063	1.2614	51.5937	3.39569e-06	-3.74463e-06	19438.3
215.345	3.96539	3.55835	5.32787	-41.9033	9.89442	0.269793	-0.0152921	207.7	92.6462	1	10	0.00483873	0.000908193	0	0.000138808	0.139694	0.125355	0.187692	41.9033	92646.2	103244	138718	-48.0967	0.0000000E+000	0.0000000E+000	0.0000000E+000	48.0967	0.0000000E+000	0.0000000E+000	0.0000000E+000	-48.0967	0.0000000E+000	0.0000000E+000	0.0000000E+000	-41.9033	0.0000000E+000	0.0000000E+000	0.0000000E+000	41.9033	1.11439	48.0967	-1.15259e-06	-4.12569e-06	17642.7
100.032	5.90963	5.31267	7.94658	-41.9551	10.8257	0.269787	-0.015007	299.48	133.855	1	10	0.00481623	0.000606076	0	0.00013525	0.0935836	0.0841302	0.12584	41.9551	133855	148895	200217	-48.0449	0.0000000E+000	0.0000000E+000	0.0000000E+000	48.0449	0.0000000E+000	0.0000000E+000	0.0000000E+000	-48.0449	0.0000000E+000	0.0000000E+000	0.0000000E+000	-41.9551	0.0000000E+000	0.0000000E+000	0.0000000E+000	41.9551	1.11237	48.0449	-1.79406e-06	-4.04869e-06	17977.4
46.4415	9.20704	7.18891	11.6812	-37.9829	11.7595	0.269792	-0.0181059	476.706	180.552	1	10	0.00480902	0.00041169	0	0.000131993	0.0674756	0.0526853	0.0856078	37.9829	180552	231238	293377	-52.0171	0.0000000E+000	0.0000000E+000	0.0000000E+000	52.0171	0.0000000E+000	0.0000000E+000	0.0000000E+000	-52.0171	0.0000000E+000	0.0000000E+000	0.0000000E+000	-37.9829	0.0000000E+000	0.0000000E+000	0.0000000E+000	37.9829	1.28073	52.0171	-1.82484e-06	-4.88483e-06	14900.7
[...]
1.00006	27.69	4.52171	28.0568	-9.27439	21.0813	0.269848	-0.00351701	35195.7	914.153	1	12	0.0048149	0.000171613	0	0.000111219	0.0351761	0.00574416	0.035642	9.27439	914153	5.59809e+06	5.67224e+06	-80.7256	0.0000000E+000	0.0000000E+000	0.0000000E+000	80.7256	0.0000000E+000	0.0000000E+000	0.0000000E+000	-80.7256	0.0000000E+000	0.0000000E+000	0.0000000E+000	-9.27439	0.0000000E+000	0.0000000E+000	0.0000000E+000	9.27439	6.1238	80.7256	-8.48951e-06	-9.49058e-07	76726.6
0.464091	29.5657	3.8051	29.8095	-7.33365	28.7669	0.26984	-0.00398183	90126.2	1468.5	1	12	0.00481763	0.000161614	0	0.000110342	0.0332719	0.00428209	0.0335463	7.33365	1.4685e+06	1.14102e+07	1.15043e+07	-82.6664	0.0000000E+000	0.0000000E+000	0.0000000E+000	82.6664	0.0000000E+000	0.0000000E+000	0.0000000E+000	-82.6664	0.0000000E+000	0.0000000E+000	0.0000000E+000	-7.33365	0.0000000E+000	0.0000000E+000	0.0000000E+000	7.33365	7.77001	82.6664	2.54147e-06	-1.07446e-06	67767.8
0.215268	31.1099	3.41553	31.2968	-6.26537	45.247	0.269843	-0.00304232	216463	2578.1	1	12	0.00481318	0.000153791	0	0.000126762	0.0317613	0.00348705	0.0319522	6.26537	2.5781e+06	2.34822e+07	2.36233e+07	-83.7346	0.0000000E+000	0.0000000E+000	0.0000000E+000	83.7346	0.0000000E+000	0.0000000E+000	0.0000000E+000	-83.7346	0.0000000E+000	0.0000000E+000	0.0000000E+000	-6.26537	0.0000000E+000	0.0000000E+000	0.0000000E+000	6.26537	9.10835	83.7346	7.94163e-06	-8.20949e-07	88696.5
0.0999041	32.5455	3.73199	32.7588	-6.54154	80.6535	0.26984	-0.00138581	426870	5540.16	1	12	0.00481388	0.000146949	0	9.75572e-05	0.0303274	0.00347765	0.0305262	6.54154	5.54016e+06	4.8314e+07	4.86306e+07	-83.4585	0.0000000E+000	0.0000000E+000	0.0000000E+000	83.4585	0.0000000E+000	0.0000000E+000	0.0000000E+000	-83.4585	0.0000000E+000	0.0000000E+000	0.0000000E+000	-6.54154	0.0000000E+000	0.0000000E+000	0.0000000E+000	6.54154	8.72067	83.4585	-2.64876e-05	-3.73947e-07	194716
0.0464052	34.0854	4.88085	34.433	-8.14907	156.89	0.269838	-0.00101539	702681	14118.8	1	12	0.00481379	0.000139801	0	-5.73947e-05	0.0287486	0.00411666	0.0290419	8.14907	1.41188e+07	9.85986e+07	9.96043e+07	-81.8509	0.0000000E+000	0.0000000E+000	0.0000000E+000	81.8509	0.0000000E+000	0.0000000E+000	0.0000000E+000	-81.8509	0.0000000E+000	0.0000000E+000	0.0000000E+000	-8.14907	0.0000000E+000	0.0000000E+000	0.0000000E+000	8.14907	6.98349	81.8509	-9.79878e-05	-2.73991e-07	265748
0.0215268	36.3424	7.56172	37.1208	-11.7538	321.118	0.269832	-0.00207392	977733	40572.1	1	12	0.00481555	0.000129727	0	-0.000239592	0.0263742	0.00548765	0.0269391	11.7538	4.05721e+07	1.94994e+08	1.9917e+08	-78.2462	0.0000000E+000	0.0000000E+000	0.0000000E+000	78.2462	0.0000000E+000	0.0000000E+000	0.0000000E+000	-78.2462	0.0000000E+000	0.0000000E+000	0.0000000E+000	-11.7538	0.0000000E+000	0.0000000E+000	0.0000000E+000	11.7538	4.80611	78.2462	-7.02787e-05	-5.5961e-07	130107
0.0100092	39.1508	12.019	40.9541	-17.066	674.334	0.269836	-0.00128367	1.32299e+06	113945	1	12	0.00481397	0.000117545	0	5.09526e-05	0.0233424	0.00716591	0.0244176	17.066	1.13945e+08	3.71165e+08	3.88262e+08	-72.934	0.0000000E+000	0.0000000E+000	0.0000000E+000	72.934	0.0000000E+000	0.0000000E+000	0.0000000E+000	-72.934	0.0000000E+000	0.0000000E+000	0.0000000E+000	-17.066	0.0000000E+000	0.0000000E+000	0.0000000E+000	17.066	3.25742	72.934	0.000236911	-3.46381e-07	210206