Folder: EIS/txt (part 97)

File: 18506_R303_UC88_11mm_SOC50_C05.mpt
EC-Lab ASCII FILE
Nb header lines : 65

Potentio Electrochemical Impedance Spectroscopy

Run on channel : 5 (SN 65912)
User :
CE vs. WE compliance from -10 V to 10 V
Electrode connection : standard
Potential control : Ewe
Ewe ctrl range : min = -10.00 V, max = 10.00 V
Safety Limits :
	Do not start on E overload
Acquisition started on : 10/20/2025 14:15:43.480
Technique started on : 10/20/2025 14:15:46.349
Loaded Setting File :  C:\Users\Celltest\OneDrive - store-dot.com\Documents\EC-Lab\Data\txt_done\UC80_17231_EIS_50SOC.mps
Saved on :
	File : 18506_R303_UC88_11mm_SOC50_C05.mpr
	Directory : C:\Users\Celltest\OneDrive - store-dot.com\Documents\EC-Lab\Data\Michael\
	Host : 169.254.61.224
Device : VMP-3e (SN .003165)
Address : USB
EC-LAB for windows v11.62 (software)
Internet server v27.00 (firmware)
Command interpretor v12.03 (firmware)
Electrode material :
Initial state :
Electrolyte :
Comments :
Electrode surface area : 0.001 cm²
Characteristic mass : 0.001 g
Equivalent Weight : 0.000 g/eq.
Density : 0.000 g/cm3
Volume (V) : 0.001 cm³
Record Ece
Cycle Definition : Charge/Discharge alternance
Mode                Multi sine
E (V)               0.0000
vs.                 Eoc
tE (h:m:s)          0:00:0.0000
record              0
dI                  0.000
unit dI             mA
dt (s)              0.000
fi                  1.000
unit fi             MHz
ff                  0.100
unit ff             mHz
Nd                  10
Points              per decade
spacing             Logarithmic
Va (mV)             5.0
pw                  0.10
Na                  2
corr                0
E range min (V)     -10.000
E range max (V)     10.000
I Range             Auto
Bandwidth           5
nc cycles           0
goto Ns'            0
nr cycles           0
inc. cycle          0

freq/Hz	Re(Z)/Ohm	-Im(Z)/Ohm	|Z|/Ohm	Phase(Z)/deg	time/s	<Ewe>/V	<I>/mA	Cs/µF	Cp/µF	cycle number	I Range	|Ewe|/V	|I|/A	Ns	(Q-Qo)/mA.h	<Ece>/V	|Ece|/V	Phase(Zce)/deg	|Zce|/Ohm	Re(Zce)/Ohm	-Im(Zce)/Ohm	Phase(Zwe-ce)/deg	|Zwe-ce|/Ohm	Re(Zwe-ce)/Ohm	-Im(Zwe-ce)/Ohm	Re(Y)/Ohm-1	Im(Y)/Ohm-1	|Y|/Ohm-1	Phase(Y)/deg	Re(C)/nF	Im(C)/nF	|C|/nF	Phase(C)/deg	Re(M)	Im(M)	|M|	Phase(M)/deg	Re(Permittivity)	Im(Permittivity)	|Permittivity|	Phase(Permittivity)/deg	Re(Resistivity)/Ohm.cm	Im(Resistivity)/Ohm.cm	|Resistivity|/Ohm.cm	Phase(Resistivity)/deg	Re(Conductivity)/mS/cm	Im(Conductivity)/mS/cm	|Conductivity|/mS/cm	Phase(Conductivity)/deg	Tan(Delta)	Loss Angle(Delta)/deg	dq/mA.h	Pwe/W	Pce/W	Pwe-ce/W	<Ewe-Ece>/V	Rwe/Ohm	Rce/Ohm	Rwe-ce/Ohm		Ewe-Ece/V
1.00002e+06	0.945145	-0.176874	0.961552	10.5997	2.86856	3.82732	0.102984	-0.899805	-0.030446	1	9	0.000203546	0.000211685	0	3.70849e-05	0.000149454	0.000196682	0.578476	0.929126	0.929078	-0.00938058	5.67524	1.88345	1.87422	-0.186254	1.02224	-0.191301	1.03999	-10.5997	-30.446	162.691	165.516	-100.6	0.0000000E+000	0.0000000E+000	0.0000000E+000	100.6	0.0000000E+000	0.0000000E+000	0.0000000E+000	-100.6	0.0000000E+000	0.0000000E+000	0.0000000E+000	10.5997	0.0000000E+000	0.0000000E+000	0.0000000E+000	-10.5997	5.34361	79.4003	3.70849e-05	0.000394152	1.53914e-08	0.000394136	3.82717	37164.3	1.45124	37162.9
251206	0.806869	0.354776	0.881421	-23.7348	5.16855	3.82569	-0.021211	1.78581	0.289319	1	9	0.00239537	0.00271763	0	3.99422e-05	-9.87315e-05	5.14969e-05	103.729	0.0189492	-0.00449733	-0.0184078	-22.7443	0.870025	0.802372	0.336368	1.03857	0.456654	1.13453	23.7348	289.319	658	718.797	-66.2652	0.0000000E+000	0.0000000E+000	0.0000000E+000	66.2652	0.0000000E+000	0.0000000E+000	0.0000000E+000	-66.2652	0.0000000E+000	0.0000000E+000	0.0000000E+000	-23.7348	0.0000000E+000	0.0000000E+000	0.0000000E+000	23.7348	2.27431	66.2652	-2.3779e-06	-8.11466e-05	2.09419e-09	-8.11487e-05	3.82579	180364	4.65474	180368
63093.8	1.34641	1.00694	1.6813	-36.7918	7.46656	3.82539	-0.0156622	2.50512	0.898565	1	9	0.00549348	0.00326741	0	-1.40341e-05	-0.00023237	2.07435e-05	105.527	0.00634861	-0.00169948	-0.00611691	-36.6591	1.67628	1.34471	1.00083	0.476309	0.356218	0.594779	36.7918	898.565	1201.5	1500.34	-53.2082	0.0000000E+000	0.0000000E+000	0.0000000E+000	53.2082	0.0000000E+000	0.0000000E+000	0.0000000E+000	-53.2082	0.0000000E+000	0.0000000E+000	0.0000000E+000	-36.7918	0.0000000E+000	0.0000000E+000	0.0000000E+000	36.7918	1.33713	53.2082	-7.87337e-06	-5.99142e-05	3.63943e-09	-5.99178e-05	3.82563	244243	14.8363	244258
15847.7	2.63102	1.57743	3.06766	-30.9448	9.89253	3.8254	-0.00992733	6.36656	1.68341	1	9	0.00505861	0.00164901	0	-2.31425e-05	-0.000117823	1.08009e-05	-56.7133	0.00654993	0.00359479	0.00547532	-30.9978	3.07356	2.63462	1.5829	0.279582	0.167623	0.325981	30.9448	1683.41	2807.78	3273.76	-59.0552	0.0000000E+000	0.0000000E+000	0.0000000E+000	59.0552	0.0000000E+000	0.0000000E+000	0.0000000E+000	-59.0552	0.0000000E+000	0.0000000E+000	0.0000000E+000	-30.9448	0.0000000E+000	0.0000000E+000	0.0000000E+000	30.9448	1.66792	59.0552	-1.04797e-07	-3.7976e-05	1.16967e-09	-3.79772e-05	3.82551	385340	11.8685	385352
3983.6	4.08575	1.97477	4.53796	-25.7959	11.7731	3.82527	-0.0280133	20.2315	3.83124	1	10	0.00492461	0.0010852	0	-3.25087e-05	0.000264002	6.81486e-06	5.11374	0.0062798	0.00625481	-0.000559739	-25.7552	4.54335	4.09201	1.97421	0.198404	0.0958947	0.220363	25.7959	3831.24	7926.74	8804.07	-64.2041	0.0000000E+000	0.0000000E+000	0.0000000E+000	64.2041	0.0000000E+000	0.0000000E+000	0.0000000E+000	-64.2041	0.0000000E+000	0.0000000E+000	0.0000000E+000	-25.7959	0.0000000E+000	0.0000000E+000	0.0000000E+000	25.7959	2.06898	64.2041	-1.37163e-06	-0.000107159	-7.39557e-09	-0.000107151	3.82501	136552	9.42414	136542
1000.32	6.06608	2.66599	6.62607	-23.7251	14.4008	3.82526	-0.00407183	59.6792	9.66112	1	10	0.00469114	0.000707982	0	-3.73733e-05	0.000111272	1.53094e-05	-34.5595	0.021624	0.0178082	0.0122665	-23.7601	6.64731	6.08388	2.67825	0.138164	0.0607221	0.150919	23.7251	9661.13	21982.5	24011.8	-66.2749	0.0000000E+000	0.0000000E+000	0.0000000E+000	66.2749	0.0000000E+000	0.0000000E+000	0.0000000E+000	-66.2749	0.0000000E+000	0.0000000E+000	0.0000000E+000	-23.7251	0.0000000E+000	0.0000000E+000	0.0000000E+000	23.7251	2.27536	66.2749	-8.89526e-07	-1.55758e-05	-4.5308e-10	-1.55754e-05	3.82515	939446	27.3272	939418
251.044	9.10425	3.01157	9.58942	-18.3036	17.101	3.82526	-0.00391918	210.512	20.7624	1	10	0.00464216	0.000484091	0	-3.99278e-05	-0.000194188	6.05068e-06	-57.0622	0.0124991	0.00679609	0.01049	-18.3503	9.59917	9.11105	3.02206	0.0990056	0.0327498	0.104282	18.3036	20762.4	62766.7	66111.6	-71.6964	0.0000000E+000	0.0000000E+000	0.0000000E+000	71.6964	0.0000000E+000	0.0000000E+000	0.0000000E+000	-71.6964	0.0000000E+000	0.0000000E+000	0.0000000E+000	-18.3036	0.0000000E+000	0.0000000E+000	0.0000000E+000	18.3036	3.02309	71.6964	-5.0023e-07	-1.49919e-05	7.61055e-10	-1.49926e-05	3.82546	976038	49.5481	976087
[...]
0.0602816	14.7439	2.22779	14.9113	-8.59235	240.455	3.82531	0.00200777	1.18511e+06	26453.3	1	11	0.0050957	0.000341735	0	-0.00137782	0.000187637	8.1844e-07	-11.6246	0.00239496	0.00234583	0.00048258	-8.59284	14.9137	14.7463	2.22828	0.0663107	0.0100195	0.0670634	8.59235	2.64533e+07	1.75073e+08	1.7706e+08	-81.4077	0.0000000E+000	0.0000000E+000	0.0000000E+000	81.4077	0.0000000E+000	0.0000000E+000	0.0000000E+000	-81.4077	0.0000000E+000	0.0000000E+000	0.0000000E+000	-8.59235	0.0000000E+000	0.0000000E+000	0.0000000E+000	8.59235	6.61817	81.4077	0.000000000000000E+000	7.68037e-06	3.76732e-10	7.68e-06	3.82513	1.90525e+06	93.4551	1.90516e+06
0.00796479	20.9231	4.10004	21.3211	-11.087	20329.4	3.82531	-0.000766564	4.87369e+06	180226	1	11	0.00508957	0.000238711	0	-0.0214837	-0.00023237	2.92288e-07	59.3317	0.00122444	0.000624549	-0.00105319	-11.0839	21.3215	20.9238	4.09899	0.0460266	0.00901926	0.046902	11.087	1.80226e+08	9.19719e+08	9.37211e+08	-78.9129	0.0000000E+000	0.0000000E+000	0.0000000E+000	78.9129	0.0000000E+000	0.0000000E+000	0.0000000E+000	-78.9129	0.0000000E+000	0.0000000E+000	0.0000000E+000	-11.087	0.0000000E+000	0.0000000E+000	0.0000000E+000	11.087	5.10315	78.9129	-0.0201059	-2.93235e-06	1.78126e-10	-2.93253e-06	3.82555	4.99021e+06	303.132	4.99051e+06
0.0019912	23.8059	6.47749	24.6715	-15.2214	20329.4	3.82531	-0.000766564	1.23396e+07	850595	1	11	0.00510095	0.000206755	0	-0.0214837	-0.00023237	2.1052e-07	-71.6945	0.00101821	0.000319803	0.000966684	-15.2234	24.672	23.8063	6.47845	0.0391107	0.0106418	0.0405327	15.2214	8.50595e+08	3.12609e+09	3.23975e+09	-74.7786	0.0000000E+000	0.0000000E+000	0.0000000E+000	74.7786	0.0000000E+000	0.0000000E+000	0.0000000E+000	-74.7786	0.0000000E+000	0.0000000E+000	0.0000000E+000	-15.2214	0.0000000E+000	0.0000000E+000	0.0000000E+000	15.2214	3.67518	74.7786	0.000000000000000E+000	-2.93235e-06	1.78126e-10	-2.93253e-06	3.82555	4.99021e+06	303.132	4.99051e+06
0.000497799	24.8084	17.9099	30.5978	-35.8267	20329.4	3.82531	-0.000766564	1.78514e+07	6.11619e+06	1	11	0.0051013	0.000166721	0	-0.0214837	-0.00023237	5.62555e-07	18.7133	0.00337422	0.00319584	-0.00108256	-35.8215	30.5997	24.8116	17.9089	0.0264984	0.01913	0.0326821	35.8267	6.11619e+09	8.47199e+09	1.0449e+10	-54.1733	0.0000000E+000	0.0000000E+000	0.0000000E+000	54.1733	0.0000000E+000	0.0000000E+000	0.0000000E+000	-54.1733	0.0000000E+000	0.0000000E+000	0.0000000E+000	-35.8267	0.0000000E+000	0.0000000E+000	0.0000000E+000	35.8267	1.38517	54.1733	0.000000000000000E+000	-2.93235e-06	1.78126e-10	-2.93253e-06	3.82555	4.99021e+06	303.132	4.99051e+06
9.95598e-05	31.7153	93.1852	98.4344	-71.2041	20329.4	3.82531	-0.000766564	1.71549e+07	1.53741e+07	1	11	0.00510018	5.1813e-05	0	-0.0214837	-0.00023237	2.63959e-06	90.7956	0.0509446	-0.000707371	-0.0509397	-71.195	98.386	31.7146	93.1342	0.00327322	0.00961729	0.010159	71.2041	1.53741e+10	5.23252e+09	1.62401e+10	-18.7959	0.0000000E+000	0.0000000E+000	0.0000000E+000	18.7959	0.0000000E+000	0.0000000E+000	0.0000000E+000	-18.7959	0.0000000E+000	0.0000000E+000	0.0000000E+000	-71.2041	0.0000000E+000	0.0000000E+000	0.0000000E+000	71.2041	0.340347	18.7959	0.000000000000000E+000	-2.93235e-06	1.78126e-10	-2.93253e-06	3.82555	4.99021e+06	303.132	4.99051e+06

File: 18570_R297_UC90_SOC50_C01.mpt
EC-Lab ASCII FILE
Nb header lines : 65

Potentio Electrochemical Impedance Spectroscopy

Run on channel : 1 (SN 66354)
User :
CE vs. WE compliance from -10 V to 10 V
Electrode connection : standard
Potential control : Ewe
Ewe ctrl range : min = -10.00 V, max = 10.00 V
Safety Limits :
	Do not start on E overload
Acquisition started on : 10/21/2025 16:34:18.266
Technique started on : 10/21/2025 16:34:20.961
Loaded Setting File :  C:\Users\Celltest\OneDrive - store-dot.com\Documents\EC-Lab\Data\@Biologic Test Protocols\cathode half cell EIS SOC50.mps
Saved on :
	File : 18570_R297_UC90_SOC50_C01.mpr
	Directory : C:\Users\Celltest\OneDrive - store-dot.com\Documents\EC-Lab\Data\Michael\
	Host : 169.254.61.224
Device : VMP-3e (SN .003165)
Address : USB
EC-LAB for windows v11.62 (software)
Internet server v27.00 (firmware)
Command interpretor v12.03 (firmware)
Electrode material :
Initial state :
Electrolyte :
Comments :
Electrode surface area : 0.001 cm²
Characteristic mass : 0.001 g
Equivalent Weight : 0.000 g/eq.
Density : 0.000 g/cm3
Volume (V) : 0.001 cm³
Record Ece
Cycle Definition : Charge/Discharge alternance
Mode                Multi sine
E (V)               0.0000
vs.                 Eoc
tE (h:m:s)          0:00:0.0000
record              0
dI                  0.000
unit dI             mA
dt (s)              0.000
fi                  1.000
unit fi             MHz
ff                  0.100
unit ff             mHz
Nd                  10
Points              per decade
spacing             Logarithmic
Va (mV)             5.0
pw                  0.10
Na                  2
corr                0
E range min (V)     -10.000
E range max (V)     10.000
I Range             Auto
Bandwidth           5
nc cycles           0
goto Ns'            0
nr cycles           0
inc. cycle          0

freq/Hz	Re(Z)/Ohm	-Im(Z)/Ohm	|Z|/Ohm	Phase(Z)/deg	time/s	<Ewe>/V	<I>/mA	Cs/µF	Cp/µF	cycle number	I Range	|Ewe|/V	|I|/A	Ns	(Q-Qo)/mA.h	<Ece>/V	|Ece|/V	Phase(Zce)/deg	|Zce|/Ohm	Re(Zce)/Ohm	-Im(Zce)/Ohm	Phase(Zwe-ce)/deg	|Zwe-ce|/Ohm	Re(Zwe-ce)/Ohm	-Im(Zwe-ce)/Ohm	Re(Y)/Ohm-1	Im(Y)/Ohm-1	|Y|/Ohm-1	Phase(Y)/deg	Re(C)/nF	Im(C)/nF	|C|/nF	Phase(C)/deg	Re(M)	Im(M)	|M|	Phase(M)/deg	Re(Permittivity)	Im(Permittivity)	|Permittivity|	Phase(Permittivity)/deg	Re(Resistivity)/Ohm.cm	Im(Resistivity)/Ohm.cm	|Resistivity|/Ohm.cm	Phase(Resistivity)/deg	Re(Conductivity)/mS/cm	Im(Conductivity)/mS/cm	|Conductivity|/mS/cm	Phase(Conductivity)/deg	Tan(Delta)	Loss Angle(Delta)/deg	dq/mA.h	Pwe/W	Pce/W	Pwe-ce/W	<Ewe-Ece>/V	Rwe/Ohm	Rce/Ohm	Rwe-ce/Ohm		Ewe-Ece/V
1.00002e+06	1.09557	-0.092149	1.09944	4.80786	2.69453	3.88668	0.0563612	-1.72711	-0.0121327	1	9	0.000217143	0.000197503	0	2.46252e-05	0.000345731	0.000195374	-4.33755	0.989217	0.986384	0.0748168	0.476976	2.08203	2.08196	-0.0173323	0.906353	-0.0762337	0.909553	-4.80786	-12.1327	144.248	144.757	-94.8079	0.0000000E+000	0.0000000E+000	0.0000000E+000	94.8079	0.0000000E+000	0.0000000E+000	0.0000000E+000	-94.8079	0.0000000E+000	0.0000000E+000	0.0000000E+000	4.80786	0.0000000E+000	0.0000000E+000	0.0000000E+000	-4.80786	11.8891	85.1921	2.46252e-05	0.000219058	1.94858e-08	0.000219038	3.88633	68960.2	6.13421	68954.1
251206	0.771103	0.294692	0.825496	-20.9154	4.99853	3.88635	0.0449242	2.14991	0.273986	1	9	0.00214684	0.00260067	0	5.98325e-05	2.33964e-06	5.90063e-05	115.988	0.0226888	-0.00994182	-0.0203947	-19.8175	0.809077	0.761161	0.274298	1.13157	0.432453	1.21139	20.9154	273.986	716.923	767.494	-69.0846	0.0000000E+000	0.0000000E+000	0.0000000E+000	69.0846	0.0000000E+000	0.0000000E+000	0.0000000E+000	-69.0846	0.0000000E+000	0.0000000E+000	0.0000000E+000	-20.9154	0.0000000E+000	0.0000000E+000	0.0000000E+000	20.9154	2.61664	69.0846	4.26817e-06	0.000174591	1.05107e-10	0.000174591	3.88635	86509.2	0.0520799	86509.1
63093.8	1.1997	0.63694	1.3583	-27.9646	7.29655	3.88632	0.0609436	3.96036	0.870849	1	9	0.00537005	0.00395351	0	0.000122368	0.000250345	3.60121e-05	89.6554	0.00910888	5.47886e-05	-0.00910871	-27.6231	1.3541	1.19975	0.627831	0.650254	0.345231	0.736216	27.9646	870.849	1640.27	1857.11	-62.0354	0.0000000E+000	0.0000000E+000	0.0000000E+000	62.0354	0.0000000E+000	0.0000000E+000	0.0000000E+000	-62.0354	0.0000000E+000	0.0000000E+000	0.0000000E+000	-27.9646	0.0000000E+000	0.0000000E+000	0.0000000E+000	27.9646	1.88353	62.0354	1.89418e-05	0.000236846	1.52569e-08	0.000236831	3.88607	63769.2	4.10781	63765.1
15847.7	1.85762	0.994252	2.10696	-28.157	9.72254	3.88632	0.0490221	10.1008	2.24925	1	9	0.00484574	0.00229987	0	0.000160328	0.000364808	8.4152e-06	-111.789	0.00365899	-0.00135817	0.00339759	-28.2558	2.10737	1.85626	0.99765	0.41845	0.223966	0.474617	28.157	2249.25	4202.4	4766.48	-61.843	0.0000000E+000	0.0000000E+000	0.0000000E+000	61.843	0.0000000E+000	0.0000000E+000	0.0000000E+000	-61.843	0.0000000E+000	0.0000000E+000	0.0000000E+000	-28.157	0.0000000E+000	0.0000000E+000	0.0000000E+000	28.157	1.86836	61.843	7.13107e-06	0.000190516	1.78837e-08	0.000190498	3.88595	79276.8	7.44171	79269.4
3983.6	2.83159	1.5575	3.23167	-28.8128	11.5711	3.88612	-0.0457529	25.6517	5.95825	1	9	0.00470415	0.00145564	0	0.000180031	-1.67377e-05	1.46844e-05	-105.353	0.0100879	-0.00267096	0.00972787	-28.9866	3.23403	2.82891	1.56723	0.271129	0.149133	0.309438	28.8128	5958.25	10832.3	12362.8	-61.1872	0.0000000E+000	0.0000000E+000	0.0000000E+000	61.1872	0.0000000E+000	0.0000000E+000	0.0000000E+000	-61.1872	0.0000000E+000	0.0000000E+000	0.0000000E+000	-28.8128	0.0000000E+000	0.0000000E+000	0.0000000E+000	28.8128	1.81803	61.1872	-2.35023e-06	-0.000177802	7.65797e-10	-0.000177802	3.88614	84937.2	0.365827	84937.5
1000.32	4.48001	2.61188	5.18579	-30.2425	14.4448	3.88622	-0.00557594	60.9156	15.4527	1	10	0.00466352	0.000899289	0	0.000185613	2.33964e-06	1.18075e-05	11.1666	0.0131298	0.0128812	-0.00254275	-30.1467	5.19564	4.49289	2.60934	0.16659	0.0971233	0.192835	30.2425	15452.7	26505.2	30680.8	-59.7575	0.0000000E+000	0.0000000E+000	0.0000000E+000	59.7575	0.0000000E+000	0.0000000E+000	0.0000000E+000	-59.7575	0.0000000E+000	0.0000000E+000	0.0000000E+000	-30.2425	0.0000000E+000	0.0000000E+000	0.0000000E+000	30.2425	1.71524	59.7575	-4.20864e-07	-2.16693e-05	-1.30457e-11	-2.16693e-05	3.88622	696963	0.419597	696963
251.044	7.69934	3.80227	8.58703	-26.2822	17.145	3.88622	-0.0061499	166.735	32.6909	1	10	0.00458556	0.00053401	0	0.000181473	7.86489e-05	8.19555e-06	43.2247	0.0153472	0.0111831	-0.0105107	-26.1863	8.59241	7.71052	3.79176	0.104416	0.0515652	0.116455	26.2822	32690.9	66196.9	73829	-63.7178	0.0000000E+000	0.0000000E+000	0.0000000E+000	63.7178	0.0000000E+000	0.0000000E+000	0.0000000E+000	-63.7178	0.0000000E+000	0.0000000E+000	0.0000000E+000	-26.2822	0.0000000E+000	0.0000000E+000	0.0000000E+000	26.2822	2.02493	63.7178	-4.12143e-07	-2.38999e-05	-4.83683e-10	-2.38994e-05	3.88614	631917	12.7886	631904
[...]
0.0602816	16.0408	2.84995	16.292	-10.0746	240.532	3.88626	0.00162235	926397	28348.2	1	11	0.00502699	0.000308556	0	-0.000876328	9.77262e-05	7.76701e-07	-30.6333	0.00251721	0.00216592	0.00128262	-10.0777	16.2943	16.0429	2.85124	0.0604335	0.0107372	0.06138	10.0746	2.83482e+07	1.59556e+08	1.62055e+08	-79.9254	0.0000000E+000	0.0000000E+000	0.0000000E+000	79.9254	0.0000000E+000	0.0000000E+000	0.0000000E+000	-79.9254	0.0000000E+000	0.0000000E+000	0.0000000E+000	-10.0746	0.0000000E+000	0.0000000E+000	0.0000000E+000	10.0746	5.62843	79.9254	0.000000000000000E+000	6.30487e-06	1.58546e-10	6.30472e-06	3.88617	2.39546e+06	60.2375	2.3954e+06
0.00796479	21.2017	5.3865	21.8753	-14.2549	20329.4	3.8863	0.000303074	3.70971e+06	224929	1	11	0.00502155	0.000229554	0	-0.0173723	0.000307577	5.97033e-07	-30.1928	0.00260084	0.00224801	0.00130799	-14.2568	21.8778	21.204	5.3878	0.0443062	0.0112564	0.0457137	14.2549	2.24929e+08	8.85341e+08	9.13466e+08	-75.7451	0.0000000E+000	0.0000000E+000	0.0000000E+000	75.7451	0.0000000E+000	0.0000000E+000	0.0000000E+000	-75.7451	0.0000000E+000	0.0000000E+000	0.0000000E+000	-14.2549	0.0000000E+000	0.0000000E+000	0.0000000E+000	14.2549	3.93609	75.7451	-0.0164959	1.17783e-06	9.32183e-11	1.17774e-06	3.88599	1.2823e+07	1014.86	1.28219e+07
0.0019912	24.9394	8.92982	26.4899	-19.7005	20329.4	3.8863	0.000303074	8.95083e+06	1.01716e+06	1	11	0.00503347	0.000190015	0	-0.0173723	0.000307577	9.98026e-07	-11.2993	0.00525236	0.00515055	0.00102912	-19.6988	26.4951	24.9445	8.93085	0.0355407	0.0127257	0.0377503	19.7005	1.01716e+09	2.84074e+09	3.01735e+09	-70.2995	0.0000000E+000	0.0000000E+000	0.0000000E+000	70.2995	0.0000000E+000	0.0000000E+000	0.0000000E+000	-70.2995	0.0000000E+000	0.0000000E+000	0.0000000E+000	-19.7005	0.0000000E+000	0.0000000E+000	0.0000000E+000	19.7005	2.79282	70.2995	0.000000000000000E+000	1.17783e-06	9.32183e-11	1.17774e-06	3.88599	1.2823e+07	1014.86	1.28219e+07
0.000497799	27.4884	22.4751	35.5069	-39.2701	20329.4	3.8863	0.000303074	1.42254e+07	5.69955e+06	1	11	0.00503666	0.00014185	0	-0.0173723	0.000307577	6.34763e-07	24.2698	0.00447489	0.0040794	-0.00183933	-39.2636	35.5089	27.4925	22.4732	0.0218034	0.0178268	0.0281635	39.2701	5.69955e+09	6.97091e+09	9.00436e+09	-50.7299	0.0000000E+000	0.0000000E+000	0.0000000E+000	50.7299	0.0000000E+000	0.0000000E+000	0.0000000E+000	-50.7299	0.0000000E+000	0.0000000E+000	0.0000000E+000	-39.2701	0.0000000E+000	0.0000000E+000	0.0000000E+000	39.2701	1.22306	50.7299	0.000000000000000E+000	1.17783e-06	9.32183e-11	1.17774e-06	3.88599	1.2823e+07	1014.86	1.28219e+07
9.95598e-05	36.3742	131.066	136.02	-74.4893	20329.4	3.8863	0.000303074	1.21968e+07	1.13246e+07	1	11	0.00503661	3.70285e-05	0	-0.0173723	0.000307577	2.00052e-06	-78.0211	0.0540266	0.0112133	0.0528501	-74.4907	136.074	36.3854	131.119	0.00196602	0.00708411	0.00735186	74.4893	1.13246e+10	3.14286e+09	1.17526e+10	-15.5107	0.0000000E+000	0.0000000E+000	0.0000000E+000	15.5107	0.0000000E+000	0.0000000E+000	0.0000000E+000	-15.5107	0.0000000E+000	0.0000000E+000	0.0000000E+000	-74.4893	0.0000000E+000	0.0000000E+000	0.0000000E+000	74.4893	0.277526	15.5107	0.000000000000000E+000	1.17783e-06	9.32183e-11	1.17774e-06	3.88599	1.2823e+07	1014.86	1.28219e+07