Folder: EIS/txt (part 81)

File: 18391_R277_UA689_SOC00_C01.mpt
EC-Lab ASCII FILE
Nb header lines : 65

Potentio Electrochemical Impedance Spectroscopy

Run on channel : 1 (SN 66354)
User :
CE vs. WE compliance from -10 V to 10 V
Electrode connection : standard
Potential control : Ewe
Ewe ctrl range : min = -10.00 V, max = 10.00 V
Safety Limits :
	Do not start on E overload
Acquisition started on : 10/13/2025 15:08:45.965
Technique started on : 10/13/2025 15:08:47.876
Loaded Setting File :  C:\Users\Celltest\OneDrive - store-dot.com\Documents\EC-Lab\Data\@Biologic Test Protocols\anode half cell EIS SOC00.mps
Saved on :
	File : 18391_R277_UA689_SOC00_C01.mpr
	Directory : C:\Users\Celltest\OneDrive - store-dot.com\Documents\EC-Lab\Data\Gyutae\
	Host : 169.254.61.224
Device : VMP-3e (SN .003165)
Address : USB
EC-LAB for windows v11.62 (software)
Internet server v27.00 (firmware)
Command interpretor v12.03 (firmware)
Electrode material :
Initial state :
Electrolyte :
Comments :
Electrode surface area : 0.001 cm²
Characteristic mass : 0.001 g
Equivalent Weight : 0.000 g/eq.
Density : 0.000 g/cm3
Volume (V) : 0.001 cm³
Record Ece
Cycle Definition : Charge/Discharge alternance
Mode                Single sine
E (V)               0.0000
vs.                 Eoc
tE (h:m:s)          0:00:0.0000
record              0
dI                  0.000
unit dI             mA
dt (s)              0.000
fi                  100.000
unit fi             kHz
ff                  10.000
unit ff             mHz
Nd                  6
Points              per decade
spacing             Logarithmic
Va (mV)             5.0
pw                  0.10
Na                  2
corr                0
E range min (V)     -10.000
E range max (V)     10.000
I Range             Auto
Bandwidth           5
nc cycles           0
goto Ns'            0
nr cycles           0
inc. cycle          0

freq/Hz	Re(Z)/Ohm	-Im(Z)/Ohm	|Z|/Ohm	Phase(Z)/deg	time/s	<Ewe>/V	<I>/mA	Cs/µF	Cp/µF	cycle number	I Range	|Ewe|/V	|I|/A	Ns	(Q-Qo)/mA.h	<Ece>/V	|Ece|/V	Phase(Zce)/deg	|Zce|/Ohm	Re(Zce)/Ohm	-Im(Zce)/Ohm	Phase(Zwe-ce)/deg	|Zwe-ce|/Ohm	Re(Zwe-ce)/Ohm	-Im(Zwe-ce)/Ohm	Re(Y)/Ohm-1	Im(Y)/Ohm-1	|Y|/Ohm-1	Phase(Y)/deg	Re(C)/nF	Im(C)/nF	|C|/nF	Phase(C)/deg	Re(M)	Im(M)	|M|	Phase(M)/deg	Re(Permittivity)	Im(Permittivity)	|Permittivity|	Phase(Permittivity)/deg	Re(Resistivity)/Ohm.cm	Im(Resistivity)/Ohm.cm	|Resistivity|/Ohm.cm	Phase(Resistivity)/deg	Re(Conductivity)/mS/cm	Im(Conductivity)/mS/cm	|Conductivity|/mS/cm	Phase(Conductivity)/deg	Tan(Delta)	Loss Angle(Delta)/deg	dq/mA.h	Pwe/W	Pce/W	Pwe-ce/W	<Ewe-Ece>/V	Rwe/Ohm	Rce/Ohm	Rwe-ce/Ohm		Ewe-Ece/V
100004	1.08502	0.397612	1.15557	-20.1257	1.91055	0.236252	0.0718963	4.00263	0.473878	1	9	0.00475664	0.00411626	0	1.42667e-05	-0.000169356	4.79225e-05	88.9802	0.0116423	0.000207204	-0.0116404	-19.5785	1.15182	1.08522	0.385971	0.812531	0.297758	0.86537	20.1257	473.878	1293.13	1377.23	-69.8743	0.0000000E+000	0.0000000E+000	0.0000000E+000	69.8743	0.0000000E+000	0.0000000E+000	0.0000000E+000	-69.8743	0.0000000E+000	0.0000000E+000	0.0000000E+000	-20.1257	0.0000000E+000	0.0000000E+000	0.0000000E+000	20.1257	2.72883	69.8743	1.42667e-05	1.69857e-05	-1.21761e-08	1.69978e-05	0.236421	3286.01	2.35556	3288.37
31621.1	1.41611	0.570024	1.52653	-21.9261	3.43152	0.236258	0.0695865	8.82977	1.23119	1	9	0.00509717	0.00333905	0	5.74e-05	0.000154958	1.40735e-05	-0.694664	0.00421481	0.0042145	5.10999e-05	-21.869	1.53046	1.42033	0.570075	0.607695	0.244614	0.655079	21.9261	1231.19	3058.64	3297.13	-68.0739	0.0000000E+000	0.0000000E+000	0.0000000E+000	68.0739	0.0000000E+000	0.0000000E+000	0.0000000E+000	-68.0739	0.0000000E+000	0.0000000E+000	0.0000000E+000	-21.9261	0.0000000E+000	0.0000000E+000	0.0000000E+000	21.9261	2.4843	68.0739	2.45419e-05	1.64404e-05	1.0783e-08	1.64296e-05	0.236103	3395.17	2.22684	3392.95
10002.2	1.85824	0.804452	2.02489	-23.4083	4.58055	0.236265	0.0694003	19.7799	3.12191	1	9	0.00492859	0.002434	0	8.19272e-05	0.000383886	6.92118e-06	-36.2252	0.00284354	0.00229388	0.00168042	-23.4262	2.02766	1.86053	0.806132	0.453208	0.196199	0.493854	23.4083	3121.91	7211.43	7858.18	-66.5917	0.0000000E+000	0.0000000E+000	0.0000000E+000	66.5917	0.0000000E+000	0.0000000E+000	0.0000000E+000	-66.5917	0.0000000E+000	0.0000000E+000	0.0000000E+000	-23.4083	0.0000000E+000	0.0000000E+000	0.0000000E+000	23.4083	2.30994	66.5917	1.0018e-05	1.63968e-05	2.66418e-08	1.63702e-05	0.235881	3404.37	5.53147	3398.84
3163.08	2.4311	1.22928	2.72422	-26.8233	5.60562	0.236001	-0.00715743	40.9317	8.33442	1	9	0.00493445	0.00181133	0	9.14192e-05	-1.67377e-05	1.04891e-05	-31.1021	0.00579083	0.00495838	0.00299134	-26.8323	2.73	2.43606	1.23227	0.327581	0.16564	0.367077	26.8233	8334.42	16482.7	18470	-63.1767	0.0000000E+000	0.0000000E+000	0.0000000E+000	63.1767	0.0000000E+000	0.0000000E+000	0.0000000E+000	-63.1767	0.0000000E+000	0.0000000E+000	0.0000000E+000	-26.8233	0.0000000E+000	0.0000000E+000	0.0000000E+000	26.8233	1.97767	63.1767	-1.28557e-06	-1.68916e-06	1.19799e-10	-1.68928e-06	0.236017	32972.8	2.3385	32975.2
1000.32	3.27005	2.21331	3.94867	-34.0918	7.20581	0.236167	-0.0173456	71.885	22.5851	1	10	0.00495638	0.0012552	0	0.000108331	2.1417e-05	8.60683e-06	-114.567	0.00685692	-0.00285076	0.00623622	-34.1899	3.94981	3.2672	2.21955	0.209726	0.141952	0.25325	34.0918	22585.1	33368.3	40293.1	-55.9082	0.0000000E+000	0.0000000E+000	0.0000000E+000	55.9082	0.0000000E+000	0.0000000E+000	0.0000000E+000	-55.9082	0.0000000E+000	0.0000000E+000	0.0000000E+000	-34.0918	0.0000000E+000	0.0000000E+000	0.0000000E+000	34.0918	1.47745	55.9082	-1.62867e-06	-4.09646e-06	-3.7149e-10	-4.09609e-06	0.236146	13615.4	1.23472	13614.2
316.316	5.14852	4.40745	6.77738	-40.5656	8.55505	0.236171	-0.0185159	114.159	48.2795	1	10	0.00483824	0.000713881	0	0.000101578	0.000441118	1.06233e-05	70.3231	0.0148811	0.0050107	-0.0140121	-40.4479	6.77209	5.15353	4.39344	0.112088	0.0959541	0.14755	40.5656	48279.5	56397.2	74239.9	-49.4344	0.0000000E+000	0.0000000E+000	0.0000000E+000	49.4344	0.0000000E+000	0.0000000E+000	0.0000000E+000	-49.4344	0.0000000E+000	0.0000000E+000	0.0000000E+000	-40.5656	0.0000000E+000	0.0000000E+000	0.0000000E+000	40.5656	1.16814	49.4344	-1.80746e-06	-4.37291e-06	-8.16768e-09	-4.36474e-06	0.235729	12755	23.8238	12731.2
100.032	10.1339	6.76311	12.1834	-33.7181	9.90184	0.236173	-0.0171742	235.253	72.4918	1	10	0.00479384	0.000393472	0	9.61928e-05	-7.39696e-05	2.20797e-05	-134.507	0.056115	-0.0393362	0.0400194	-33.9776	12.173	10.0946	6.80313	0.0682713	0.0455625	0.0820787	33.7181	72491.8	108622	130591	-56.2819	0.0000000E+000	0.0000000E+000	0.0000000E+000	56.2819	0.0000000E+000	0.0000000E+000	0.0000000E+000	-56.2819	0.0000000E+000	0.0000000E+000	0.0000000E+000	-33.7181	0.0000000E+000	0.0000000E+000	0.0000000E+000	33.7181	1.49841	56.2819	-2.61391e-06	-4.05608e-06	1.27037e-09	-4.05735e-06	0.236247	13751.6	4.30702	13755.9
[...]
1.00006	21.7579	1.7579	21.8288	-4.6191	19.955	0.236222	-0.0028565	90531.3	587.12	1	12	0.00481113	0.000220403	0	9.41137e-05	0.000307577	3.01313e-06	43.6611	0.013671	0.0098901	-0.00943834	-4.59233	21.8379	21.7678	1.74846	0.0456623	0.00368922	0.0458111	4.6191	587121	7.26692e+06	7.2906e+06	-85.3809	0.0000000E+000	0.0000000E+000	0.0000000E+000	85.3809	0.0000000E+000	0.0000000E+000	0.0000000E+000	-85.3809	0.0000000E+000	0.0000000E+000	0.0000000E+000	-4.6191	0.0000000E+000	0.0000000E+000	0.0000000E+000	4.6191	12.3772	85.3809	3.66874e-06	-6.74768e-07	-8.78592e-10	-6.73889e-07	0.235915	82696.4	107.676	82588.8
0.316193	22.6962	2.08406	22.7917	-5.24642	34.2962	0.236228	-0.00164	241523	2019.41	1	12	0.00480907	0.000211001	0	5.75519e-05	4.04943e-05	2.16247e-06	5.45447	0.0102486	0.0102022	-0.000974178	-5.24164	22.8017	22.7064	2.08308	0.0436919	0.00401197	0.0438757	5.24642	2.01941e+06	2.19922e+07	2.20847e+07	-84.7536	0.0000000E+000	0.0000000E+000	0.0000000E+000	84.7536	0.0000000E+000	0.0000000E+000	0.0000000E+000	-84.7536	0.0000000E+000	0.0000000E+000	0.0000000E+000	-5.24642	0.0000000E+000	0.0000000E+000	0.0000000E+000	5.24642	10.8904	84.7536	-2.24334e-05	-3.87414e-07	-6.64108e-11	-3.87348e-07	0.236187	144041	24.6916	144016
0.0999041	24.0717	3.84031	24.3761	-9.06437	79.5052	0.236226	-0.0042819	414831	10296.1	1	12	0.00481118	0.000197373	0	5.49865e-06	-7.39696e-05	2.39999e-06	17.1761	0.0121596	0.0116173	-0.00359086	-9.05173	24.387	24.0833	3.83671	0.0405115	0.00646305	0.0410238	9.06437	1.02961e+07	6.45379e+07	6.53541e+07	-80.9356	0.0000000E+000	0.0000000E+000	0.0000000E+000	80.9356	0.0000000E+000	0.0000000E+000	0.0000000E+000	-80.9356	0.0000000E+000	0.0000000E+000	0.0000000E+000	-9.06437	0.0000000E+000	0.0000000E+000	0.0000000E+000	9.06437	6.26817	80.9356	1.8619e-07	-1.0115e-06	3.16731e-10	-1.01181e-06	0.2363	55168.4	17.2749	55185.6
0.0315922	27.0671	7.98169	28.2194	-16.43	222.388	0.236226	-0.002561	631169	50493.9	1	12	0.00480855	0.000170398	0	0.000151192	0.000307577	2.42256e-06	10.3529	0.014217	0.0139855	-0.00255495	-16.417	28.2321	27.0811	7.97913	0.0339896	0.010023	0.0354366	16.43	5.04939e+07	1.71232e+08	1.78522e+08	-73.57	0.0000000E+000	0.0000000E+000	0.0000000E+000	73.57	0.0000000E+000	0.0000000E+000	0.0000000E+000	-73.57	0.0000000E+000	0.0000000E+000	0.0000000E+000	-16.43	0.0000000E+000	0.0000000E+000	0.0000000E+000	16.43	3.39115	73.57	4.76526e-05	-6.04974e-07	-7.87704e-10	-6.04186e-07	0.235918	92239.6	120.1	92119.5
0.0100092	32.6777	16.4564	36.5875	-26.7297	673.61	0.236222	-0.0034808	966246	195475	1	12	0.00481138	0.000131504	0	-0.000801788	2.1417e-05	3.05119e-06	8.82977	0.0232023	0.0229274	-0.00356154	-26.7086	36.6063	32.7006	16.4528	0.024411	0.0122933	0.0273318	26.7297	1.95475e+08	3.88158e+08	4.346e+08	-63.2703	0.0000000E+000	0.0000000E+000	0.0000000E+000	63.2703	0.0000000E+000	0.0000000E+000	0.0000000E+000	-63.2703	0.0000000E+000	0.0000000E+000	0.0000000E+000	-26.7297	0.0000000E+000	0.0000000E+000	0.0000000E+000	26.7297	1.98571	63.2703	-0.000574952	-8.22241e-07	-7.45481e-11	-8.22166e-07	0.236201	67864.3	6.15289	67858.1

File: 18392_R277_UA689_SOC00_C02.mpt
EC-Lab ASCII FILE
Nb header lines : 65

Potentio Electrochemical Impedance Spectroscopy

Run on channel : 2 (SN 66139)
User :
CE vs. WE compliance from -10 V to 10 V
Electrode connection : standard
Potential control : Ewe
Ewe ctrl range : min = -10.00 V, max = 10.00 V
Safety Limits :
	Do not start on E overload
Acquisition started on : 10/13/2025 15:08:52.903
Technique started on : 10/13/2025 15:08:54.630
Loaded Setting File :  C:\Users\Celltest\OneDrive - store-dot.com\Documents\EC-Lab\Data\@Biologic Test Protocols\anode half cell EIS SOC00.mps
Saved on :
	File : 18392_R277_UA689_SOC00_C02.mpr
	Directory : C:\Users\Celltest\OneDrive - store-dot.com\Documents\EC-Lab\Data\Gyutae\
	Host : 169.254.61.224
Device : VMP-3e (SN .003165)
Address : USB
EC-LAB for windows v11.62 (software)
Internet server v27.00 (firmware)
Command interpretor v12.03 (firmware)
Electrode material :
Initial state :
Electrolyte :
Comments :
Electrode surface area : 0.001 cm²
Characteristic mass : 0.001 g
Equivalent Weight : 0.000 g/eq.
Density : 0.000 g/cm3
Volume (V) : 0.001 cm³
Record Ece
Cycle Definition : Charge/Discharge alternance
Mode                Single sine
E (V)               0.0000
vs.                 Eoc
tE (h:m:s)          0:00:0.0000
record              0
dI                  0.000
unit dI             mA
dt (s)              0.000
fi                  100.000
unit fi             kHz
ff                  10.000
unit ff             mHz
Nd                  6
Points              per decade
spacing             Logarithmic
Va (mV)             5.0
pw                  0.10
Na                  2
corr                0
E range min (V)     -10.000
E range max (V)     10.000
I Range             Auto
Bandwidth           5
nc cycles           0
goto Ns'            0
nr cycles           0
inc. cycle          0

freq/Hz	Re(Z)/Ohm	-Im(Z)/Ohm	|Z|/Ohm	Phase(Z)/deg	time/s	<Ewe>/V	<I>/mA	Cs/µF	Cp/µF	cycle number	I Range	|Ewe|/V	|I|/A	Ns	(Q-Qo)/mA.h	<Ece>/V	|Ece|/V	Phase(Zce)/deg	|Zce|/Ohm	Re(Zce)/Ohm	-Im(Zce)/Ohm	Phase(Zwe-ce)/deg	|Zwe-ce|/Ohm	Re(Zwe-ce)/Ohm	-Im(Zwe-ce)/Ohm	Re(Y)/Ohm-1	Im(Y)/Ohm-1	|Y|/Ohm-1	Phase(Y)/deg	Re(C)/nF	Im(C)/nF	|C|/nF	Phase(C)/deg	Re(M)	Im(M)	|M|	Phase(M)/deg	Re(Permittivity)	Im(Permittivity)	|Permittivity|	Phase(Permittivity)/deg	Re(Resistivity)/Ohm.cm	Im(Resistivity)/Ohm.cm	|Resistivity|/Ohm.cm	Phase(Resistivity)/deg	Re(Conductivity)/mS/cm	Im(Conductivity)/mS/cm	|Conductivity|/mS/cm	Phase(Conductivity)/deg	Tan(Delta)	Loss Angle(Delta)/deg	dq/mA.h	Pwe/W	Pce/W	Pwe-ce/W	<Ewe-Ece>/V	Rwe/Ohm	Rce/Ohm	Rwe-ce/Ohm		Ewe-Ece/V
100004	1.08739	0.435831	1.17148	-21.8411	1.72655	0.23607	0.0027585	3.65162	0.505419	1	9	0.00451981	0.0038582	0	-5.59094e-06	0.000133978	2.48403e-05	76.9012	0.0064383	0.00145912	-0.00627078	-21.5297	1.17052	1.08885	0.429561	0.792346	0.317576	0.85362	21.8411	505.419	1261.01	1358.53	-68.1589	0.0000000E+000	0.0000000E+000	0.0000000E+000	68.1589	0.0000000E+000	0.0000000E+000	0.0000000E+000	-68.1589	0.0000000E+000	0.0000000E+000	0.0000000E+000	-21.8411	0.0000000E+000	0.0000000E+000	0.0000000E+000	21.8411	2.49498	68.1589	-5.59094e-06	6.512e-07	3.6958e-10	6.5083e-07	0.235936	85578.9	48.5692	85530.3
31621.1	1.4704	0.633238	1.60096	-23.2995	3.24755	0.236057	-0.00118957	7.94832	1.24351	1	9	0.00508531	0.00317642	0	-1.15327e-05	0.00017216	1.00137e-05	10.4811	0.0031525	0.0030999	-0.000573476	-23.2369	1.60358	1.4735	0.632665	0.573688	0.247063	0.624626	23.2995	1243.51	2887.47	3143.86	-66.7005	0.0000000E+000	0.0000000E+000	0.0000000E+000	66.7005	0.0000000E+000	0.0000000E+000	0.0000000E+000	-66.7005	0.0000000E+000	0.0000000E+000	0.0000000E+000	-23.2995	0.0000000E+000	0.0000000E+000	0.0000000E+000	23.2995	2.32203	66.7005	-5.2565e-06	-2.80806e-07	-2.04796e-10	-2.80601e-07	0.235885	198439	144.725	198295
10002.2	1.95374	0.869365	2.13843	-23.9878	4.27254	0.23605	-0.00428099	18.303	3.02506	1	9	0.00505444	0.00236362	0	-7.15988e-06	9.57967e-05	5.23192e-06	-79.8154	0.00221352	0.000391394	0.00217864	-24.0369	2.13968	1.95413	0.871544	0.427243	0.190112	0.467632	23.9878	3025.06	6798.28	7440.94	-66.0122	0.0000000E+000	0.0000000E+000	0.0000000E+000	66.0122	0.0000000E+000	0.0000000E+000	0.0000000E+000	-66.0122	0.0000000E+000	0.0000000E+000	0.0000000E+000	-23.9878	0.0000000E+000	0.0000000E+000	0.0000000E+000	23.9878	2.24732	66.0122	-1.96336e-06	-1.01053e-06	-4.10105e-10	-1.01012e-06	0.235954	55139.1	22.3772	55116.7
3163.08	2.56772	1.30984	2.88251	-27.027	5.17261	0.235863	-0.0575799	38.4141	7.93206	1	9	0.00455132	0.00157894	0	-1.48329e-05	0.000534886	7.38618e-06	110.076	0.00467794	-0.00160581	-0.00439369	-26.9636	2.87909	2.56612	1.30545	0.309033	0.157644	0.346919	27.027	7932.06	15549.5	17455.7	-62.973	0.0000000E+000	0.0000000E+000	0.0000000E+000	62.973	0.0000000E+000	0.0000000E+000	0.0000000E+000	-62.973	0.0000000E+000	0.0000000E+000	0.0000000E+000	-27.027	0.0000000E+000	0.0000000E+000	0.0000000E+000	27.027	1.96033	62.973	-7.08253e-06	-1.3581e-05	-3.07987e-08	-1.35502e-05	0.235328	4096.27	9.28946	4086.98
1000.32	3.39863	2.31683	4.1132	-34.2821	6.98585	0.235978	-0.0290341	68.6731	21.788	1	10	0.00493316	0.00119935	0	-1.40046e-05	0.000286705	1.68933e-05	-71.1604	0.0140853	0.00454843	0.0133307	-34.3995	4.12447	3.40318	2.33016	0.200884	0.136942	0.24312	34.2821	21788	31961.4	38681.4	-55.7179	0.0000000E+000	0.0000000E+000	0.0000000E+000	55.7179	0.0000000E+000	0.0000000E+000	0.0000000E+000	-55.7179	0.0000000E+000	0.0000000E+000	0.0000000E+000	-34.2821	0.0000000E+000	0.0000000E+000	0.0000000E+000	34.2821	1.46693	55.7179	-2.65775e-06	-6.85142e-06	-8.32423e-09	-6.8431e-06	0.235692	8127.63	9.87477	8117.76
316.316	5.28105	4.75925	7.10914	-42.025	8.335	0.235959	-0.0288963	105.721	47.3809	1	10	0.00483029	0.000679448	0	-2.4809e-05	0.000191251	6.44483e-06	56.2703	0.00948538	0.005267	-0.00788868	-41.9493	7.10778	5.28632	4.75136	0.104493	0.0941681	0.140664	42.025	47380.8	52575.7	70775.3	-47.975	0.0000000E+000	0.0000000E+000	0.0000000E+000	47.975	0.0000000E+000	0.0000000E+000	0.0000000E+000	-47.975	0.0000000E+000	0.0000000E+000	0.0000000E+000	-42.025	0.0000000E+000	0.0000000E+000	0.0000000E+000	42.025	1.10964	47.975	-2.8956e-06	-6.81833e-06	-5.52644e-09	-6.8128e-06	0.235767	8165.71	6.61853	8159.09
100.032	10.6789	8.01083	13.3496	-36.8755	9.68283	0.23596	-0.0283189	198.611	71.5187	1	10	0.00478707	0.000358592	0	-3.4646e-05	0.000133978	4.3406e-06	-38.3119	0.0121046	0.00949782	0.00750414	-36.8768	13.3617	10.6884	8.01833	0.0599223	0.0449509	0.0749084	36.8755	71518.7	95338.8	119182	-53.1245	0.0000000E+000	0.0000000E+000	0.0000000E+000	53.1245	0.0000000E+000	0.0000000E+000	0.0000000E+000	-53.1245	0.0000000E+000	0.0000000E+000	0.0000000E+000	-36.8755	0.0000000E+000	0.0000000E+000	0.0000000E+000	36.8755	1.33306	53.1245	-3.46806e-06	-6.68212e-06	-3.79412e-09	-6.67832e-06	0.235826	8332.24	4.73106	8327.51
[...]
1.00006	26.0436	2.28467	26.1436	-5.01342	19.7347	0.236011	-0.00974798	69657.7	531.966	1	12	0.0047894	0.000183196	0	-6.98129e-05	0.000324887	6.07576e-06	9.0504	0.0331654	0.0327525	-0.00521702	-4.99578	26.1758	26.0764	2.27945	0.0381039	0.00334265	0.0382502	5.01342	531966	6.06404e+06	6.08733e+06	-84.9866	0.0000000E+000	0.0000000E+000	0.0000000E+000	84.9866	0.0000000E+000	0.0000000E+000	0.0000000E+000	-84.9866	0.0000000E+000	0.0000000E+000	0.0000000E+000	-5.01342	0.0000000E+000	0.0000000E+000	0.0000000E+000	5.01342	11.3993	84.9866	-1.25323e-05	-2.30063e-06	-3.16699e-09	-2.29747e-06	0.235686	24211.3	33.3286	24178
0.316193	27.3152	2.46527	27.4262	-5.15714	34.0779	0.236008	-0.0094881	204175	1649.69	1	12	0.00479084	0.000174681	0	-0.000123926	0.000191251	1.91967e-06	-0.239094	0.0109895	0.0109895	4.5859e-05	-5.15517	27.4371	27.3262	2.46532	0.0363139	0.00327743	0.0364615	5.15714	1.64969e+06	1.82785e+07	1.83528e+07	-84.8429	0.0000000E+000	0.0000000E+000	0.0000000E+000	84.8429	0.0000000E+000	0.0000000E+000	0.0000000E+000	-84.8429	0.0000000E+000	0.0000000E+000	0.0000000E+000	-5.15714	0.0000000E+000	0.0000000E+000	0.0000000E+000	5.15714	11.08	84.8429	-1.82783e-05	-2.23927e-06	-1.81461e-09	-2.23745e-06	0.235817	24874.1	20.1569	24853.9
0.0999041	28.6271	4.12083	28.9222	-8.19137	79.2872	0.236003	-0.00656014	386592	7848.01	1	12	0.00479036	0.000165629	0	-0.000133918	0.000191251	3.23992e-06	32.391	0.0195613	0.0165178	-0.0104789	-8.16618	28.937	28.6436	4.11035	0.0342228	0.00492632	0.0345756	8.19137	7.84802e+06	5.45196e+07	5.50816e+07	-81.8086	0.0000000E+000	0.0000000E+000	0.0000000E+000	81.8086	0.0000000E+000	0.0000000E+000	0.0000000E+000	-81.8086	0.0000000E+000	0.0000000E+000	0.0000000E+000	-8.19137	0.0000000E+000	0.0000000E+000	0.0000000E+000	8.19137	6.94693	81.8086	2.10146e-06	-1.54821e-06	-1.25463e-09	-1.54696e-06	0.235812	35975.3	29.1535	35946.1
0.0315922	31.4553	8.89958	32.69	-15.7977	222.172	0.236	-0.00404362	566070	41954.7	1	12	0.00479048	0.000146543	0	-0.000400253	-7.60209e-05	2.75868e-06	-10.3207	0.0188251	0.0185205	0.00337266	-15.7946	32.7087	31.4738	8.90296	0.029435	0.00832799	0.0305904	15.7977	4.19547e+07	1.48287e+08	1.54108e+08	-74.2023	0.0000000E+000	0.0000000E+000	0.0000000E+000	74.2023	0.0000000E+000	0.0000000E+000	0.0000000E+000	-74.2023	0.0000000E+000	0.0000000E+000	0.0000000E+000	-15.7977	0.0000000E+000	0.0000000E+000	0.0000000E+000	15.7977	3.53446	74.2023	-0.000180351	-9.54296e-07	3.074e-10	-9.54603e-07	0.236076	58363.6	18.8002	58382.4
0.0100092	38.3726	18.5014	42.6	-25.7411	673.395	0.235996	-0.00559522	859445	162109	1	12	0.00479027	0.000112448	0	-0.0014531	0.000248523	2.19737e-06	24.0663	0.0195413	0.0178427	-0.00796881	-25.721	42.6126	38.3905	18.4934	0.0211447	0.0101949	0.0234742	25.7411	1.62109e+08	3.36221e+08	3.73261e+08	-64.2589	0.0000000E+000	0.0000000E+000	0.0000000E+000	64.2589	0.0000000E+000	0.0000000E+000	0.0000000E+000	-64.2589	0.0000000E+000	0.0000000E+000	0.0000000E+000	-25.7411	0.0000000E+000	0.0000000E+000	0.0000000E+000	25.7411	2.07404	64.2589	-0.000358534	-1.32045e-06	-1.39054e-09	-1.31906e-06	0.235747	42178.1	44.4171	42133.7