Folder: EIS/txt (part 76)

File: 18305_R274_UC74_SOC50_C03.mpt
EC-Lab ASCII FILE
Nb header lines : 65

Potentio Electrochemical Impedance Spectroscopy

Run on channel : 3 (SN 65921)
User :
CE vs. WE compliance from -10 V to 10 V
Electrode connection : standard
Potential control : Ewe
Ewe ctrl range : min = -10.00 V, max = 10.00 V
Safety Limits :
	Do not start on E overload
Acquisition started on : 10/09/2025 15:26:22.204
Technique started on : 10/09/2025 15:26:24.438
Loaded Setting File :  C:\Users\Celltest\OneDrive - store-dot.com\Documents\EC-Lab\Data\txt_done\UC80_17231_EIS_50SOC.mps
Saved on :
	File : 18305_R274_UC74_SOC50_C03.mpr
	Directory : C:\Users\Celltest\OneDrive - store-dot.com\Documents\EC-Lab\Data\Michael\
	Host : 169.254.61.224
Device : VMP-3e (SN .003165)
Address : USB
EC-LAB for windows v11.62 (software)
Internet server v27.00 (firmware)
Command interpretor v12.03 (firmware)
Electrode material :
Initial state :
Electrolyte :
Comments :
Electrode surface area : 0.001 cm²
Characteristic mass : 0.001 g
Equivalent Weight : 0.000 g/eq.
Density : 0.000 g/cm3
Volume (V) : 0.001 cm³
Record Ece
Cycle Definition : Charge/Discharge alternance
Mode                Multi sine
E (V)               0.0000
vs.                 Eoc
tE (h:m:s)          0:00:0.0000
record              0
dI                  0.000
unit dI             mA
dt (s)              0.000
fi                  1.000
unit fi             MHz
ff                  0.100
unit ff             mHz
Nd                  10
Points              per decade
spacing             Logarithmic
Va (mV)             5.0
pw                  0.10
Na                  2
corr                0
E range min (V)     -10.000
E range max (V)     10.000
I Range             Auto
Bandwidth           5
nc cycles           0
goto Ns'            0
nr cycles           0
inc. cycle          0

freq/Hz	Re(Z)/Ohm	-Im(Z)/Ohm	|Z|/Ohm	Phase(Z)/deg	time/s	<Ewe>/V	<I>/mA	Cs/µF	Cp/µF	cycle number	I Range	|Ewe|/V	|I|/A	Ns	(Q-Qo)/mA.h	<Ece>/V	|Ece|/V	Phase(Zce)/deg	|Zce|/Ohm	Re(Zce)/Ohm	-Im(Zce)/Ohm	Phase(Zwe-ce)/deg	|Zwe-ce|/Ohm	Re(Zwe-ce)/Ohm	-Im(Zwe-ce)/Ohm	Re(Y)/Ohm-1	Im(Y)/Ohm-1	|Y|/Ohm-1	Phase(Y)/deg	Re(C)/nF	Im(C)/nF	|C|/nF	Phase(C)/deg	Re(M)	Im(M)	|M|	Phase(M)/deg	Re(Permittivity)	Im(Permittivity)	|Permittivity|	Phase(Permittivity)/deg	Re(Resistivity)/Ohm.cm	Im(Resistivity)/Ohm.cm	|Resistivity|/Ohm.cm	Phase(Resistivity)/deg	Re(Conductivity)/mS/cm	Im(Conductivity)/mS/cm	|Conductivity|/mS/cm	Phase(Conductivity)/deg	Tan(Delta)	Loss Angle(Delta)/deg	dq/mA.h	Pwe/W	Pce/W	Pwe-ce/W	<Ewe-Ece>/V	Rwe/Ohm	Rce/Ohm	Rwe-ce/Ohm		Ewe-Ece/V
1.00002e+06	0.907868	-0.257757	0.94375	15.85	2.23352	3.8852	-0.00586156	-0.61745	-0.0460584	1	9	0.000215454	0.000228296	0	-5.55675e-05	-0.000156891	0.000194713	0.21739	0.852897	0.852891	-0.00323602	8.43142	1.78	1.76076	-0.260993	1.01932	-0.289399	1.0596	-15.85	-46.0584	162.226	168.638	-105.85	0.0000000E+000	0.0000000E+000	0.0000000E+000	105.85	0.0000000E+000	0.0000000E+000	0.0000000E+000	-105.85	0.0000000E+000	0.0000000E+000	0.0000000E+000	15.85	0.0000000E+000	0.0000000E+000	0.0000000E+000	-15.85	3.52219	74.15	-5.55675e-05	-2.27733e-05	9.19628e-10	-2.27743e-05	3.88536	662828	26.7662	662855
251206	0.662943	0.249756	0.708428	-20.6433	4.53253	3.88478	-0.0798519	2.53673	0.315293	1	9	0.00184617	0.00260601	0	-9.19564e-05	-4.13882e-06	5.48196e-05	99.5106	0.0210359	-0.00347575	-0.0207467	-19.1503	0.698099	0.659467	0.229009	1.32094	0.49765	1.41158	20.6433	315.293	836.9	894.322	-69.3567	0.0000000E+000	0.0000000E+000	0.0000000E+000	69.3567	0.0000000E+000	0.0000000E+000	0.0000000E+000	-69.3567	0.0000000E+000	0.0000000E+000	0.0000000E+000	-20.6433	0.0000000E+000	0.0000000E+000	0.0000000E+000	20.6433	2.65436	69.3567	-5.12334e-06	-0.000310208	3.30492e-10	-0.000310208	3.88479	48649.8	0.0518311	48649.9
63093.8	1.06835	0.38539	1.13574	-19.836	6.83252	3.88467	-0.0731763	6.54535	0.753659	1	9	0.00532817	0.00469136	0	-0.000173887	-0.00029055	2.97635e-05	94.4556	0.00634432	-0.000492867	-0.00632515	-19.5436	1.13315	1.06786	0.379065	0.828242	0.298773	0.880483	19.836	753.659	2089.25	2221.03	-70.164	0.0000000E+000	0.0000000E+000	0.0000000E+000	70.164	0.0000000E+000	0.0000000E+000	0.0000000E+000	-70.164	0.0000000E+000	0.0000000E+000	0.0000000E+000	-19.836	0.0000000E+000	0.0000000E+000	0.0000000E+000	19.836	2.77214	70.164	-2.15212e-05	-0.000284266	2.12614e-08	-0.000284287	3.88496	53086.4	3.97054	53090.4
15847.7	1.39134	0.39399	1.44605	-15.8107	9.00656	3.88467	-0.0654939	25.49	1.89224	1	9	0.00478124	0.00330643	0	-0.000204385	-9.96091e-05	6.0384e-06	81.9092	0.00182626	0.000257033	-0.00180808	-15.739	1.4458	1.39159	0.392182	0.665378	0.188418	0.691541	15.8107	1892.24	6682.26	6945.01	-74.1893	0.0000000E+000	0.0000000E+000	0.0000000E+000	74.1893	0.0000000E+000	0.0000000E+000	0.0000000E+000	-74.1893	0.0000000E+000	0.0000000E+000	0.0000000E+000	-15.8107	0.0000000E+000	0.0000000E+000	0.0000000E+000	15.8107	3.5314	74.1893	-7.40529e-06	-0.000254422	6.52379e-09	-0.000254429	3.88477	59313.5	1.52089	59315
3983.6	1.72522	0.509169	1.79879	-16.443	10.8531	3.8845	-0.154961	78.4661	6.28703	1	9	0.00477787	0.00265616	0	-0.000244981	-0.00029055	1.01095e-05	3.58646	0.00380606	0.00379861	-0.000238087	-16.4016	1.80237	1.72902	0.508931	0.533193	0.157362	0.555929	16.443	6287.03	21302.4	22210.8	-73.557	0.0000000E+000	0.0000000E+000	0.0000000E+000	73.557	0.0000000E+000	0.0000000E+000	0.0000000E+000	-73.557	0.0000000E+000	0.0000000E+000	0.0000000E+000	-16.443	0.0000000E+000	0.0000000E+000	0.0000000E+000	16.443	3.38831	73.557	-1.02987e-05	-0.000601947	4.50239e-08	-0.000601992	3.88479	25067.6	1.87498	25069.4
1000.32	2.2478	0.817415	2.39181	-19.9839	13.4819	3.88455	-0.0643378	194.643	22.7337	1	9	0.00462521	0.00193377	0	-0.000303476	-9.96091e-05	9.17535e-06	140.021	0.00474481	-0.00363587	-0.00304855	-19.945	2.38735	2.24416	0.814367	0.392919	0.142886	0.418093	19.9839	22733.7	62515.1	66520.3	-70.0161	0.0000000E+000	0.0000000E+000	0.0000000E+000	70.0161	0.0000000E+000	0.0000000E+000	0.0000000E+000	-70.0161	0.0000000E+000	0.0000000E+000	0.0000000E+000	-19.9839	0.0000000E+000	0.0000000E+000	0.0000000E+000	19.9839	2.74988	70.0161	-9.36965e-06	-0.000249924	6.40864e-09	-0.00024993	3.88465	60377.4	1.54822	60379
251.044	3.25969	0.972202	3.40159	-16.6072	16.429	3.88458	-0.11623	652.098	53.2677	1	10	0.00462753	0.0013604	0	-0.000377484	-0.000271456	7.08387e-06	-95.4909	0.00520718	-0.000498266	0.00518329	-16.6932	3.40259	3.2592	0.977386	0.281718	0.0840222	0.293981	16.6072	53267.7	178601	186375	-73.3928	0.0000000E+000	0.0000000E+000	0.0000000E+000	73.3928	0.0000000E+000	0.0000000E+000	0.0000000E+000	-73.3928	0.0000000E+000	0.0000000E+000	0.0000000E+000	-16.6072	0.0000000E+000	0.0000000E+000	0.0000000E+000	16.6072	3.3529	73.3928	-1.50842e-05	-0.000451504	3.15513e-08	-0.000451536	3.88485	33421.5	2.33551	33423.8
[...]
0.0602816	5.25844	1.0736	5.36692	-11.5393	240.216	3.88461	-0.0498922	2.4592e+06	98407.3	1	11	0.00505844	0.000942523	0	-0.00821148	-8.05151e-05	7.07903e-07	4.36603	0.000751073	0.000748893	-5.71775e-05	-11.5371	5.36764	5.25919	1.07354	0.182561	0.0372728	0.186327	11.5393	9.84073e+07	4.81995e+08	4.91938e+08	-78.4607	0.0000000E+000	0.0000000E+000	0.0000000E+000	78.4607	0.0000000E+000	0.0000000E+000	0.0000000E+000	-78.4607	0.0000000E+000	0.0000000E+000	0.0000000E+000	-11.5393	0.0000000E+000	0.0000000E+000	0.0000000E+000	11.5393	4.89796	78.4607	0.000000000000000E+000	-0.000193812	4.01707e-09	-0.000193816	3.88469	77860	1.61378	77861.6
0.00796479	7.65283	2.20022	7.96284	-16.0401	20336.4	3.88461	0.000144295	9.08198e+06	693387	1	11	0.00505373	0.000634664	0	-0.074069	7.22374e-05	4.49838e-07	8.48751	0.000708781	0.000701018	-0.000104612	-16.038	7.96348	7.65353	2.20011	0.120694	0.0347	0.125583	16.0401	6.93387e+08	2.41175e+09	2.50945e+09	-73.9599	0.0000000E+000	0.0000000E+000	0.0000000E+000	73.9599	0.0000000E+000	0.0000000E+000	0.0000000E+000	-73.9599	0.0000000E+000	0.0000000E+000	0.0000000E+000	-16.0401	0.0000000E+000	0.0000000E+000	0.0000000E+000	16.0401	3.47822	73.9599	-0.0658575	5.60531e-07	1.04235e-11	5.60521e-07	3.88454	2.69213e+07	500.623	2.69208e+07
0.0019912	9.0297	3.81988	9.80443	-22.9301	20336.4	3.88461	0.000144295	2.09246e+07	3.17622e+06	1	11	0.00506538	0.000516642	0	-0.074069	7.22374e-05	4.9485e-07	-29.6241	0.00095782	0.000832621	0.000473458	-22.9307	9.80538	9.03053	3.82035	0.0939352	0.0397379	0.101995	22.9301	3.17622e+09	7.50817e+09	8.15236e+09	-67.0699	0.0000000E+000	0.0000000E+000	0.0000000E+000	67.0699	0.0000000E+000	0.0000000E+000	0.0000000E+000	-67.0699	0.0000000E+000	0.0000000E+000	0.0000000E+000	-22.9301	0.0000000E+000	0.0000000E+000	0.0000000E+000	22.9301	2.36387	67.0699	0.000000000000000E+000	5.60531e-07	1.04235e-11	5.60521e-07	3.88454	2.69213e+07	500.623	2.69208e+07
0.000497799	9.76215	10.8365	14.5853	-47.9857	20336.4	3.88461	0.000144295	2.95037e+07	1.62865e+07	1	11	0.00506766	0.000347451	0	-0.074069	7.22374e-05	8.46871e-07	-45.3894	0.00243738	0.00171174	0.00173517	-47.9853	14.5877	9.76386	10.8383	0.0458899	0.0509403	0.0685624	47.9857	1.62865e+10	1.46718e+10	2.19206e+10	-42.0143	0.0000000E+000	0.0000000E+000	0.0000000E+000	42.0143	0.0000000E+000	0.0000000E+000	0.0000000E+000	-42.0143	0.0000000E+000	0.0000000E+000	0.0000000E+000	-47.9857	0.0000000E+000	0.0000000E+000	0.0000000E+000	47.9857	0.900856	42.0143	0.000000000000000E+000	5.60531e-07	1.04235e-11	5.60521e-07	3.88454	2.69213e+07	500.623	2.69208e+07
9.95598e-05	3.40566	79.0836	79.1569	-87.5341	20336.4	3.88461	0.000144295	2.02139e+07	2.01765e+07	1	11	0.00506075	6.39332e-05	0	-0.074069	7.22374e-05	4.2024e-06	-109.235	0.0657311	-0.0216545	0.0620618	-87.5517	79.218	3.38401	79.1457	0.000543531	0.0126214	0.0126331	87.5341	2.01765e+10	8.68881e+08	2.01952e+10	-2.46587	0.0000000E+000	0.0000000E+000	0.0000000E+000	2.46587	0.0000000E+000	0.0000000E+000	0.0000000E+000	-2.46587	0.0000000E+000	0.0000000E+000	0.0000000E+000	-87.5341	0.0000000E+000	0.0000000E+000	0.0000000E+000	87.5341	0.0430641	2.46587	0.000000000000000E+000	5.60531e-07	1.04235e-11	5.60521e-07	3.88454	2.69213e+07	500.623	2.69208e+07

File: 18346_R257_UA646_SOC00_C01.mpt
EC-Lab ASCII FILE
Nb header lines : 65

Potentio Electrochemical Impedance Spectroscopy

Run on channel : 1 (SN 66354)
User :
CE vs. WE compliance from -10 V to 10 V
Electrode connection : standard
Potential control : Ewe
Ewe ctrl range : min = -10.00 V, max = 10.00 V
Safety Limits :
	Do not start on E overload
Acquisition started on : 10/13/2025 14:39:24.925
Technique started on : 10/13/2025 14:39:26.837
Loaded Setting File :  C:\Users\Celltest\OneDrive - store-dot.com\Documents\EC-Lab\Data\@Biologic Test Protocols\anode half cell EIS SOC00.mps
Saved on :
	File : 18346_R257_UA646_SOC00_C01.mpr
	Directory : C:\Users\Celltest\OneDrive - store-dot.com\Documents\EC-Lab\Data\John\
	Host : 169.254.61.224
Device : VMP-3e (SN .003165)
Address : USB
EC-LAB for windows v11.62 (software)
Internet server v27.00 (firmware)
Command interpretor v12.03 (firmware)
Electrode material :
Initial state :
Electrolyte :
Comments :
Electrode surface area : 0.001 cm²
Characteristic mass : 0.001 g
Equivalent Weight : 0.000 g/eq.
Density : 0.000 g/cm3
Volume (V) : 0.001 cm³
Record Ece
Cycle Definition : Charge/Discharge alternance
Mode                Single sine
E (V)               0.0000
vs.                 Eoc
tE (h:m:s)          0:00:0.0000
record              0
dI                  0.000
unit dI             mA
dt (s)              0.000
fi                  100.000
unit fi             kHz
ff                  10.000
unit ff             mHz
Nd                  6
Points              per decade
spacing             Logarithmic
Va (mV)             5.0
pw                  0.10
Na                  2
corr                0
E range min (V)     -10.000
E range max (V)     10.000
I Range             Auto
Bandwidth           5
nc cycles           0
goto Ns'            0
nr cycles           0
inc. cycle          0

freq/Hz	Re(Z)/Ohm	-Im(Z)/Ohm	|Z|/Ohm	Phase(Z)/deg	time/s	<Ewe>/V	<I>/mA	Cs/µF	Cp/µF	cycle number	I Range	|Ewe|/V	|I|/A	Ns	(Q-Qo)/mA.h	<Ece>/V	|Ece|/V	Phase(Zce)/deg	|Zce|/Ohm	Re(Zce)/Ohm	-Im(Zce)/Ohm	Phase(Zwe-ce)/deg	|Zwe-ce|/Ohm	Re(Zwe-ce)/Ohm	-Im(Zwe-ce)/Ohm	Re(Y)/Ohm-1	Im(Y)/Ohm-1	|Y|/Ohm-1	Phase(Y)/deg	Re(C)/nF	Im(C)/nF	|C|/nF	Phase(C)/deg	Re(M)	Im(M)	|M|	Phase(M)/deg	Re(Permittivity)	Im(Permittivity)	|Permittivity|	Phase(Permittivity)/deg	Re(Resistivity)/Ohm.cm	Im(Resistivity)/Ohm.cm	|Resistivity|/Ohm.cm	Phase(Resistivity)/deg	Re(Conductivity)/mS/cm	Im(Conductivity)/mS/cm	|Conductivity|/mS/cm	Phase(Conductivity)/deg	Tan(Delta)	Loss Angle(Delta)/deg	dq/mA.h	Pwe/W	Pce/W	Pwe-ce/W	<Ewe-Ece>/V	Rwe/Ohm	Rce/Ohm	Rwe-ce/Ohm		Ewe-Ece/V
100004	1.16237	0.459573	1.24993	-21.5726	1.91153	0.251248	0.0891451	3.46298	0.468155	1	9	0.00468243	0.00374617	0	1.14161e-05	0.000174035	4.79645e-05	86.928	0.0128036	0.000686159	-0.0127852	-21.0142	1.24592	1.16306	0.446788	0.744006	0.294161	0.800047	21.5726	468.155	1184.08	1273.27	-68.4274	0.0000000E+000	0.0000000E+000	0.0000000E+000	68.4274	0.0000000E+000	0.0000000E+000	0.0000000E+000	-68.4274	0.0000000E+000	0.0000000E+000	0.0000000E+000	-21.5726	0.0000000E+000	0.0000000E+000	0.0000000E+000	21.5726	2.52924	68.4274	1.14161e-05	2.23975e-05	1.55144e-08	2.2382e-05	0.251074	2818.42	1.95227	2816.47
31621.1	1.57248	0.671717	1.70994	-23.1307	3.31056	0.251241	0.0983096	7.49301	1.15629	1	9	0.00547073	0.00319936	0	3.44323e-05	0.000174035	1.98137e-05	50.1616	0.00619301	0.00396739	-0.00475533	-22.9322	1.71173	1.57645	0.666962	0.537802	0.229733	0.584815	23.1307	1156.29	2706.86	2943.48	-66.8693	0.0000000E+000	0.0000000E+000	0.0000000E+000	66.8693	0.0000000E+000	0.0000000E+000	0.0000000E+000	-66.8693	0.0000000E+000	0.0000000E+000	0.0000000E+000	-23.1307	0.0000000E+000	0.0000000E+000	0.0000000E+000	23.1307	2.34099	66.8693	7.42931e-06	2.46994e-05	1.71094e-08	2.46823e-05	0.251067	2555.61	1.77028	2553.84
10002.2	2.09515	0.914831	2.28617	-23.5881	4.33753	0.251239	0.0903745	17.3933	2.78513	1	9	0.00532359	0.0023286	0	4.73825e-05	0.000135881	5.50632e-06	61.6791	0.00236464	0.00112181	-0.0020816	-23.529	2.28637	2.09628	0.91275	0.400865	0.175034	0.437412	23.5881	2785.13	6378.54	6960.08	-66.4119	0.0000000E+000	0.0000000E+000	0.0000000E+000	66.4119	0.0000000E+000	0.0000000E+000	0.0000000E+000	-66.4119	0.0000000E+000	0.0000000E+000	0.0000000E+000	-23.5881	0.0000000E+000	0.0000000E+000	0.0000000E+000	23.5881	2.29021	66.4119	6.12132e-06	2.27056e-05	1.22802e-08	2.26933e-05	0.251103	2779.98	1.50353	2778.48
3163.08	2.77775	1.32699	3.07844	-25.5347	5.23562	0.251083	0.0419438	37.9178	7.04556	1	9	0.00500553	0.001626	0	6.2477e-05	0.00021219	1.39904e-05	-23.6624	0.00860423	0.00788084	0.00345328	-25.5295	3.08704	2.78563	1.33044	0.293111	0.140025	0.32484	25.5347	7045.56	14748.3	16344.8	-64.4653	0.0000000E+000	0.0000000E+000	0.0000000E+000	64.4653	0.0000000E+000	0.0000000E+000	0.0000000E+000	-64.4653	0.0000000E+000	0.0000000E+000	0.0000000E+000	-25.5347	0.0000000E+000	0.0000000E+000	0.0000000E+000	25.5347	2.09328	64.4653	3.79284e-06	1.05314e-05	8.90005e-09	1.05225e-05	0.250871	5986.17	5.05891	5981.12
1000.32	3.70013	2.17591	4.2925	-30.4583	6.83577	0.251151	-0.00945195	73.1205	18.7889	1	10	0.00495596	0.00115456	0	7.67539e-05	0.00021219	1.24673e-05	-89.824	0.0107983	3.31773e-05	0.0107982	-30.5821	4.29802	3.70017	2.18671	0.200815	0.118092	0.232964	30.4583	18788.9	31950.5	37065.6	-59.5417	0.0000000E+000	0.0000000E+000	0.0000000E+000	59.5417	0.0000000E+000	0.0000000E+000	0.0000000E+000	-59.5417	0.0000000E+000	0.0000000E+000	0.0000000E+000	-30.4583	0.0000000E+000	0.0000000E+000	0.0000000E+000	30.4583	1.7005	59.5417	-5.66987e-08	-2.37387e-06	-2.00561e-09	-2.37187e-06	0.250939	26571.4	22.4493	26548.9
316.316	5.27703	4.25367	6.77796	-38.8713	8.18509	0.251146	-0.00950787	118.287	46.587	1	10	0.00484449	0.000714742	0	7.30085e-05	0.000307577	5.56582e-06	37.806	0.00778718	0.00615258	-0.00477346	-38.8073	6.77976	5.28319	4.2489	0.114866	0.0925903	0.147537	38.8713	46587	57795	74233.5	-51.1287	0.0000000E+000	0.0000000E+000	0.0000000E+000	51.1287	0.0000000E+000	0.0000000E+000	0.0000000E+000	-51.1287	0.0000000E+000	0.0000000E+000	0.0000000E+000	-38.8713	0.0000000E+000	0.0000000E+000	0.0000000E+000	38.8713	1.24058	51.1287	-5.52476e-07	-2.38786e-06	-2.9244e-09	-2.38494e-06	0.250838	26414.5	32.3497	26382.2
100.032	9.78433	7.7274	12.4678	-38.3008	9.53286	0.251155	-0.0103502	205.896	79.0926	1	10	0.00480643	0.000385508	0	6.96903e-05	0.000269422	4.0671e-06	-29.6641	0.01055	0.00916731	0.00522133	-38.2935	12.4782	9.7935	7.73263	0.0629436	0.0497112	0.0802067	38.3008	79092.6	100146	127612	-51.6992	0.0000000E+000	0.0000000E+000	0.0000000E+000	51.6992	0.0000000E+000	0.0000000E+000	0.0000000E+000	-51.6992	0.0000000E+000	0.0000000E+000	0.0000000E+000	-38.3008	0.0000000E+000	0.0000000E+000	0.0000000E+000	38.3008	1.26619	51.6992	-9.48966e-07	-2.5995e-06	-2.78856e-09	-2.59671e-06	0.250886	24265.8	26.0307	24239.8
[...]
1.00006	28.3477	3.17151	28.5246	-6.38363	19.5846	0.251189	-0.00090103	50179.6	620.324	1	12	0.00480936	0.000168604	0	6.31317e-05	0.000250345	3.78846e-06	10.2209	0.0224696	0.022113	-0.00398709	-6.37074	28.5461	28.3699	3.16752	0.0348401	0.00389786	0.0350575	6.38363	620324	5.54462e+06	5.57921e+06	-83.6164	0.0000000E+000	0.0000000E+000	0.0000000E+000	83.6164	0.0000000E+000	0.0000000E+000	0.0000000E+000	-83.6164	0.0000000E+000	0.0000000E+000	0.0000000E+000	-6.38363	0.0000000E+000	0.0000000E+000	0.0000000E+000	6.38363	8.93826	83.6164	-5.3539e-06	-2.26329e-07	-2.25568e-10	-2.26103e-07	0.250939	278780	277.843	278502
0.316193	30.2678	3.4604	30.465	-6.52209	33.9259	0.251196	-0.00289049	145459	1876.69	1	12	0.00481041	0.0001579	0	4.79822e-05	0.00021219	1.67429e-06	4.48722	0.0106035	0.010571	-0.000829582	-6.51828	30.4754	30.2784	3.45957	0.0326122	0.00372842	0.0328246	6.52209	1.87669e+06	1.64152e+07	1.65222e+07	-83.4779	0.0000000E+000	0.0000000E+000	0.0000000E+000	83.4779	0.0000000E+000	0.0000000E+000	0.0000000E+000	-83.4779	0.0000000E+000	0.0000000E+000	0.0000000E+000	-6.52209	0.0000000E+000	0.0000000E+000	0.0000000E+000	6.52209	8.74691	83.4779	-6.73783e-07	-7.2608e-07	-6.13333e-10	-7.25467e-07	0.250984	86904.3	73.4097	86830.9
0.0999041	32.7563	5.03352	33.1408	-8.73606	79.1339	0.251194	-0.00406152	316494	7301.02	1	12	0.00481043	0.000145151	0	7.62666e-05	-1.67377e-05	2.99355e-06	-26.3359	0.0206237	0.0184831	0.00914933	-8.74684	33.1604	32.7748	5.04266	0.0298243	0.00458297	0.0301743	8.73606	7.30102e+06	4.75124e+07	4.807e+07	-81.2639	0.0000000E+000	0.0000000E+000	0.0000000E+000	81.2639	0.0000000E+000	0.0000000E+000	0.0000000E+000	-81.2639	0.0000000E+000	0.0000000E+000	0.0000000E+000	-8.73606	0.0000000E+000	0.0000000E+000	0.0000000E+000	8.73606	6.50763	81.2639	5.66664e-06	-1.02023e-06	6.79803e-11	-1.0203e-06	0.251211	61847.3	4.12104	61851.4
0.0315922	36.4174	8.55158	37.408	-13.2149	222.017	0.251187	-0.00680745	589106	30786.4	1	12	0.00481035	0.000128592	0	-0.000285229	7.86489e-05	2.1045e-06	-20.8593	0.0163657	0.0152931	0.00582743	-13.2182	37.4242	36.4327	8.55741	0.0260244	0.00611109	0.0267323	13.2149	3.07864e+07	1.31106e+08	1.34672e+08	-76.7851	0.0000000E+000	0.0000000E+000	0.0000000E+000	76.7851	0.0000000E+000	0.0000000E+000	0.0000000E+000	-76.7851	0.0000000E+000	0.0000000E+000	0.0000000E+000	-13.2149	0.0000000E+000	0.0000000E+000	0.0000000E+000	13.2149	4.25855	76.7851	-0.000228555	-1.70994e-06	-5.35398e-10	-1.70941e-06	0.251109	36898.9	11.5534	36887.3
0.0100092	42.8902	16.1437	45.8278	-20.6261	673.238	0.25119	-0.0111226	984962	122227	1	12	0.00480804	0.000104915	0	-0.00175391	2.33964e-06	1.03875e-06	45.9182	0.00990082	0.00688784	-0.00711223	-20.6148	45.8318	42.8971	16.1366	0.0204221	0.00768677	0.0218208	20.6261	1.22227e+08	3.2473e+08	3.46971e+08	-69.3739	0.0000000E+000	0.0000000E+000	0.0000000E+000	69.3739	0.0000000E+000	0.0000000E+000	0.0000000E+000	-69.3739	0.0000000E+000	0.0000000E+000	0.0000000E+000	-20.6261	0.0000000E+000	0.0000000E+000	0.0000000E+000	20.6261	2.65678	69.3739	-0.000591307	-2.79387e-06	-2.60228e-11	-2.79384e-06	0.251187	22583.8	0.210351	22583.6