Folder: EIS/txt (part 45)

File: 17604_R291_UC84_SOC50_C01.mpt
EC-Lab ASCII FILE
Nb header lines : 64

Potentio Electrochemical Impedance Spectroscopy

Run on channel : 1 (SN 66354)
User :
CE vs. WE compliance from -10 V to 10 V
Electrode connection : standard
Potential control : Ewe
Ewe ctrl range : min = -10.00 V, max = 10.00 V
Safety Limits :
	Do not start on E overload
Acquisition started on : 09/17/2025 17:32:53.889
Loaded Setting File :  C:\Users\Celltest\OneDrive - store-dot.com\Documents\EC-Lab\Data\Michael\UC74_NCMA_16706_EIS_50_SOC.mps
Saved on :
	File : 17604_R291_UC84_SOC50_C01.mpr
	Directory : C:\Users\Celltest\OneDrive - store-dot.com\Documents\EC-Lab\Data\Gyutae\
	Host : 169.254.61.224
Device : VMP-3e (SN .003165)
Address : USB
EC-LAB for windows v11.62 (software)
Internet server v27.00 (firmware)
Command interpretor v12.03 (firmware)
Electrode material :
Initial state :
Electrolyte :
Comments :
Electrode surface area : 0.001 cm²
Characteristic mass : 0.001 g
Equivalent Weight : 0.000 g/eq.
Density : 0.000 g/cm3
Volume (V) : 0.001 cm³
Record Ece
Cycle Definition : Charge/Discharge alternance
Mode                Multi sine
E (V)               0.0000
vs.                 Eoc
tE (h:m:s)          0:00:0.0000
record              0
dI                  0.000
unit dI             mA
dt (s)              0.000
fi                  1.000
unit fi             MHz
ff                  0.100
unit ff             mHz
Nd                  10
Points              per decade
spacing             Logarithmic
Va (mV)             5.0
pw                  0.10
Na                  2
corr                0
E range min (V)     -10.000
E range max (V)     10.000
I Range             Auto
Bandwidth           5
nc cycles           0
goto Ns'            0
nr cycles           0
inc. cycle          0

freq/Hz	Re(Z)/Ohm	-Im(Z)/Ohm	|Z|/Ohm	Phase(Z)/deg	time/s	<Ewe>/V	<I>/mA	Cs/µF	Cp/µF	cycle number	I Range	|Ewe|/V	|I|/A	Ns	(Q-Qo)/mA.h	<Ece>/V	|Ece|/V	Phase(Zce)/deg	|Zce|/Ohm	Re(Zce)/Ohm	-Im(Zce)/Ohm	Phase(Zwe-ce)/deg	|Zwe-ce|/Ohm	Re(Zwe-ce)/Ohm	-Im(Zwe-ce)/Ohm	Re(Y)/Ohm-1	Im(Y)/Ohm-1	|Y|/Ohm-1	Phase(Y)/deg	Re(C)/nF	Im(C)/nF	|C|/nF	Phase(C)/deg	Re(M)	Im(M)	|M|	Phase(M)/deg	Re(Permittivity)	Im(Permittivity)	|Permittivity|	Phase(Permittivity)/deg	Re(Resistivity)/Ohm.cm	Im(Resistivity)/Ohm.cm	|Resistivity|/Ohm.cm	Phase(Resistivity)/deg	Re(Conductivity)/mS/cm	Im(Conductivity)/mS/cm	|Conductivity|/mS/cm	Phase(Conductivity)/deg	Tan(Delta)	Loss Angle(Delta)/deg	dq/mA.h	Pwe/W	Pce/W	Pwe-ce/W	<Ewe-Ece>/V	Rwe/Ohm	Rce/Ohm	Rwe-ce/Ohm		Ewe-Ece/V
1.00002e+06	1.10267	-0.0271336	1.103	1.4096	2.72753	3.78505	0.117235	-5.8655	-0.00354948	1	9	0.000235281	0.000213309	0	2.64431e-05	-8.65131e-05	0.000185872	-6.27423	0.871375	0.866155	0.0952302	-1.98092	1.97	1.96883	0.0680966	0.90634	-0.0223024	0.906615	-1.4096	-3.54947	144.246	144.29	-91.4096	0.0000000E+000	0.0000000E+000	0.0000000E+000	91.4096	0.0000000E+000	0.0000000E+000	0.0000000E+000	-91.4096	0.0000000E+000	0.0000000E+000	0.0000000E+000	1.4096	0.0000000E+000	0.0000000E+000	0.0000000E+000	-1.4096	40.6386	88.5904	2.64431e-05	0.000443739	-1.01423e-08	0.000443749	3.78513	32286	0.737948	32286.8
251206	0.809189	0.251108	0.847255	-17.2402	5.02755	3.78474	0.0764786	2.52307	0.221627	1	9	0.00221492	0.00261423	0	8.32631e-05	-0.000143745	6.2252e-05	115.579	0.0238128	-0.0102813	-0.0214789	-16.0362	0.831254	0.798907	0.229629	1.12725	0.34981	1.18028	17.2402	221.627	714.185	747.783	-72.7598	0.0000000E+000	0.0000000E+000	0.0000000E+000	72.7598	0.0000000E+000	0.0000000E+000	0.0000000E+000	-72.7598	0.0000000E+000	0.0000000E+000	0.0000000E+000	-17.2402	0.0000000E+000	0.0000000E+000	0.0000000E+000	17.2402	3.22247	72.7598	9.84615e-06	0.000289451	-1.09934e-08	0.000289462	3.78488	49487.6	1.87955	49489.4
63093.8	1.18737	0.352989	1.23873	-16.5564	7.32755	3.78469	0.0742806	7.14615	0.580281	1	9	0.00532693	0.0043003	0	0.000116536	-8.65131e-05	3.28424e-05	84.6656	0.00763724	0.000710022	-0.00760417	-16.2095	1.23727	1.18808	0.345385	0.773806	0.230041	0.807276	16.5564	580.281	1951.94	2036.36	-73.4436	0.0000000E+000	0.0000000E+000	0.0000000E+000	73.4436	0.0000000E+000	0.0000000E+000	0.0000000E+000	-73.4436	0.0000000E+000	0.0000000E+000	0.0000000E+000	-16.5564	0.0000000E+000	0.0000000E+000	0.0000000E+000	16.5564	3.36377	73.4436	2.20589e-05	0.000281129	-6.42625e-09	0.000281135	3.78477	50951.2	1.16468	50952.4
15847.7	1.47565	0.393286	1.52716	-14.9234	9.62552	3.78469	0.0769256	25.5356	1.69353	1	9	0.0049378	0.00323333	0	0.000165673	-4.83585e-05	6.01992e-05	-113.487	0.0186184	-0.00742021	0.0170758	-15.6154	1.5245	1.46823	0.410361	0.632724	0.168632	0.654811	14.9234	1693.53	6354.32	6576.12	-75.0766	0.0000000E+000	0.0000000E+000	0.0000000E+000	75.0766	0.0000000E+000	0.0000000E+000	0.0000000E+000	-75.0766	0.0000000E+000	0.0000000E+000	0.0000000E+000	-14.9234	0.0000000E+000	0.0000000E+000	0.0000000E+000	14.9234	3.75211	75.0766	1.19343e-05	0.000291139	-3.72001e-09	0.000291143	3.78473	49199.3	0.628639	49199.9
3983.6	1.81868	0.580523	1.90908	-17.7031	11.4761	3.7845	-0.0428471	68.8216	6.36378	1	9	0.00497115	0.00260395	0	0.000199772	0.000237801	5.25991e-06	-38.6047	0.00201998	0.00157855	0.00126035	-17.7247	1.91097	1.82026	0.581784	0.499007	0.159283	0.523812	17.7031	6363.78	19936.6	20927.6	-72.2969	0.0000000E+000	0.0000000E+000	0.0000000E+000	72.2969	0.0000000E+000	0.0000000E+000	0.0000000E+000	-72.2969	0.0000000E+000	0.0000000E+000	0.0000000E+000	-17.7031	0.0000000E+000	0.0000000E+000	0.0000000E+000	17.7031	3.13282	72.2969	-2.88992e-06	-0.000162155	-1.01891e-08	-0.000162144	3.78426	88325.8	5.55	88320.2
1000.32	2.39777	1.02743	2.60863	-23.1948	14.1058	3.78457	0.0568083	154.857	24.022	1	9	0.00483197	0.0018523	0	0.000229181	0.000123337	9.13784e-06	6.59991	0.00493323	0.00490054	-0.000567004	-23.141	2.61291	2.40267	1.02686	0.352358	0.150983	0.383344	23.1948	24022	56061.6	60991.5	-66.8052	0.0000000E+000	0.0000000E+000	0.0000000E+000	66.8052	0.0000000E+000	0.0000000E+000	0.0000000E+000	-66.8052	0.0000000E+000	0.0000000E+000	0.0000000E+000	-23.1948	0.0000000E+000	0.0000000E+000	0.0000000E+000	23.1948	2.33376	66.8052	6.60892e-06	0.000214995	7.00658e-09	0.000214988	3.78445	66620	2.17111	66617.9
251.044	3.79899	1.6393	4.13759	-23.3407	17.0531	3.78458	-0.0183966	386.733	60.7064	1	10	0.00483532	0.00116863	0	0.000238927	8.87343e-06	1.33128e-05	-78.0386	0.0113918	0.00236099	0.0111445	-23.4692	4.14418	3.80135	1.65045	0.221908	0.0957557	0.241687	23.3407	60706.4	140684	153222	-66.6593	0.0000000E+000	0.0000000E+000	0.0000000E+000	66.6593	0.0000000E+000	0.0000000E+000	0.0000000E+000	-66.6593	0.0000000E+000	0.0000000E+000	0.0000000E+000	-23.3407	0.0000000E+000	0.0000000E+000	0.0000000E+000	23.3407	2.31744	66.6593	-2.76741e-06	-6.96234e-05	-1.63241e-10	-6.96232e-05	3.78457	205721	0.482341	205721
63.0823	5.42981	1.12174	5.54446	-11.6725	19.775	3.78458	-0.0147442	2249.16	92.0633	1	10	0.00481143	0.00086779	0	0.000224112	-1.02039e-05	4.61269e-06	-87.6151	0.00531545	0.00022119	0.00531084	-11.7258	5.54576	5.43003	1.12705	0.17663	0.03649	0.18036	11.6725	92063.2	445633	455044	-78.3275	0.0000000E+000	0.0000000E+000	0.0000000E+000	78.3275	0.0000000E+000	0.0000000E+000	0.0000000E+000	-78.3275	0.0000000E+000	0.0000000E+000	0.0000000E+000	-11.6725	0.0000000E+000	0.0000000E+000	0.0000000E+000	11.6725	4.84051	78.3275	-1.63406e-06	-5.58007e-05	1.50448e-10	-5.58008e-05	3.78459	256683	0.69206	256683
[...]
0.0602816	7.15281	1.20016	7.25279	-9.52488	240.605	3.78461	-0.0055441	2.19986e+06	60237.1	1	11	0.00502697	0.000693108	0	-0.00290132	0.000123337	5.00557e-07	-6.37947	0.000722192	0.00071772	8.02448e-05	-9.52456	7.25351	7.15352	1.20024	0.135977	0.0228155	0.137878	9.52488	6.02372e+07	3.59005e+08	3.64024e+08	-80.4751	0.0000000E+000	0.0000000E+000	0.0000000E+000	80.4751	0.0000000E+000	0.0000000E+000	0.0000000E+000	-80.4751	0.0000000E+000	0.0000000E+000	0.0000000E+000	-9.52488	0.0000000E+000	0.0000000E+000	0.0000000E+000	9.52488	5.95987	80.4751	0.000000000000000E+000	-2.09823e-05	-6.83794e-10	-2.09816e-05	3.78449	682637	22.2466	682615
0.00796479	10.0826	2.25404	10.3315	-12.6016	20329.5	3.7846	0.00151334	8.86513e+06	421967	1	11	0.00502182	0.000486068	0	-0.0248949	0.000123337	6.11292e-07	-18.4044	0.00125763	0.0011933	0.00039706	-12.6023	10.3328	10.0838	2.25443	0.0944595	0.021117	0.0967911	12.6016	4.21967e+08	1.88752e+09	1.93411e+09	-77.3984	0.0000000E+000	0.0000000E+000	0.0000000E+000	77.3984	0.0000000E+000	0.0000000E+000	0.0000000E+000	-77.3984	0.0000000E+000	0.0000000E+000	0.0000000E+000	-12.6016	0.0000000E+000	0.0000000E+000	0.0000000E+000	12.6016	4.47315	77.3984	-0.0219936	5.72738e-06	1.86651e-10	5.72719e-06	3.78447	2.50082e+06	81.5001	2.50074e+06
0.0019912	11.8208	3.20158	12.2467	-15.1546	20329.5	3.7846	0.00151334	2.49656e+07	1.70622e+06	1	11	0.00503475	0.000411112	0	-0.0248949	0.000123337	6.50828e-07	-20.4046	0.00158309	0.00148376	0.00055194	-15.1553	12.2482	11.8223	3.20213	0.0788153	0.0213466	0.0816549	15.1546	1.70622e+09	6.29965e+09	6.52662e+09	-74.8454	0.0000000E+000	0.0000000E+000	0.0000000E+000	74.8454	0.0000000E+000	0.0000000E+000	0.0000000E+000	-74.8454	0.0000000E+000	0.0000000E+000	0.0000000E+000	-15.1546	0.0000000E+000	0.0000000E+000	0.0000000E+000	15.1546	3.69217	74.8454	0.000000000000000E+000	5.72738e-06	1.86651e-10	5.72719e-06	3.78447	2.50082e+06	81.5001	2.50074e+06
0.000497799	12.3189	7.36464	14.3524	-30.8725	20329.5	3.7846	0.00151334	4.34124e+07	1.14306e+07	1	11	0.00503667	0.000350928	0	-0.0248949	0.000123337	6.00517e-07	-21.5783	0.00171123	0.0015913	0.000629342	-30.8714	14.3541	12.3204	7.36527	0.0598026	0.0357521	0.0696746	30.8725	1.14306e+10	1.91199e+10	2.22762e+10	-59.1275	0.0000000E+000	0.0000000E+000	0.0000000E+000	59.1275	0.0000000E+000	0.0000000E+000	0.0000000E+000	-59.1275	0.0000000E+000	0.0000000E+000	0.0000000E+000	-30.8725	0.0000000E+000	0.0000000E+000	0.0000000E+000	30.8725	1.6727	59.1275	0.000000000000000E+000	5.72738e-06	1.86651e-10	5.72719e-06	3.78447	2.50082e+06	81.5001	2.50074e+06
9.95598e-05	14.66	36.7242	39.5422	-68.2386	20329.5	3.7846	0.00151334	4.35295e+07	3.75463e+07	1	11	0.00503208	0.000127258	0	-0.0248949	0.000123337	1.44195e-06	-75.7011	0.0113309	0.0027985	0.0109798	-68.2407	39.5534	14.6628	36.7352	0.00937588	0.0234872	0.0252894	68.2386	3.75463e+10	1.49882e+10	4.04273e+10	-21.7614	0.0000000E+000	0.0000000E+000	0.0000000E+000	21.7614	0.0000000E+000	0.0000000E+000	0.0000000E+000	-21.7614	0.0000000E+000	0.0000000E+000	0.0000000E+000	-68.2386	0.0000000E+000	0.0000000E+000	0.0000000E+000	68.2386	0.399191	21.7614	0.000000000000000E+000	5.72738e-06	1.86651e-10	5.72719e-06	3.78447	2.50082e+06	81.5001	2.50074e+06

File: 17605_R291_UC84_SOC50_C02.mpt
EC-Lab ASCII FILE
Nb header lines : 64

Potentio Electrochemical Impedance Spectroscopy

Run on channel : 2 (SN 66139)
User :
CE vs. WE compliance from -10 V to 10 V
Electrode connection : standard
Potential control : Ewe
Ewe ctrl range : min = -10.00 V, max = 10.00 V
Safety Limits :
	Do not start on E overload
Acquisition started on : 09/17/2025 17:33:06.243
Loaded Setting File :  C:\Users\Celltest\OneDrive - store-dot.com\Documents\EC-Lab\Data\Michael\UC74_NCMA_16706_EIS_50_SOC.mps
Saved on :
	File : 17605_R291_UC84_SOC50_C02.mpr
	Directory : C:\Users\Celltest\OneDrive - store-dot.com\Documents\EC-Lab\Data\Gyutae\
	Host : 169.254.61.224
Device : VMP-3e (SN .003165)
Address : USB
EC-LAB for windows v11.62 (software)
Internet server v27.00 (firmware)
Command interpretor v12.03 (firmware)
Electrode material :
Initial state :
Electrolyte :
Comments :
Electrode surface area : 0.001 cm²
Characteristic mass : 0.001 g
Equivalent Weight : 0.000 g/eq.
Density : 0.000 g/cm3
Volume (V) : 0.001 cm³
Record Ece
Cycle Definition : Charge/Discharge alternance
Mode                Multi sine
E (V)               0.0000
vs.                 Eoc
tE (h:m:s)          0:00:0.0000
record              0
dI                  0.000
unit dI             mA
dt (s)              0.000
fi                  1.000
unit fi             MHz
ff                  0.100
unit ff             mHz
Nd                  10
Points              per decade
spacing             Logarithmic
Va (mV)             5.0
pw                  0.10
Na                  2
corr                0
E range min (V)     -10.000
E range max (V)     10.000
I Range             Auto
Bandwidth           5
nc cycles           0
goto Ns'            0
nr cycles           0
inc. cycle          0

freq/Hz	Re(Z)/Ohm	-Im(Z)/Ohm	|Z|/Ohm	Phase(Z)/deg	time/s	<Ewe>/V	<I>/mA	Cs/µF	Cp/µF	cycle number	I Range	|Ewe|/V	|I|/A	Ns	(Q-Qo)/mA.h	<Ece>/V	|Ece|/V	Phase(Zce)/deg	|Zce|/Ohm	Re(Zce)/Ohm	-Im(Zce)/Ohm	Phase(Zwe-ce)/deg	|Zwe-ce|/Ohm	Re(Zwe-ce)/Ohm	-Im(Zwe-ce)/Ohm	Re(Y)/Ohm-1	Im(Y)/Ohm-1	|Y|/Ohm-1	Phase(Y)/deg	Re(C)/nF	Im(C)/nF	|C|/nF	Phase(C)/deg	Re(M)	Im(M)	|M|	Phase(M)/deg	Re(Permittivity)	Im(Permittivity)	|Permittivity|	Phase(Permittivity)/deg	Re(Resistivity)/Ohm.cm	Im(Resistivity)/Ohm.cm	|Resistivity|/Ohm.cm	Phase(Resistivity)/deg	Re(Conductivity)/mS/cm	Im(Conductivity)/mS/cm	|Conductivity|/mS/cm	Phase(Conductivity)/deg	Tan(Delta)	Loss Angle(Delta)/deg	dq/mA.h	Pwe/W	Pce/W	Pwe-ce/W	<Ewe-Ece>/V	Rwe/Ohm	Rce/Ohm	Rwe-ce/Ohm		Ewe-Ece/V
1.00002e+06	1.00131	-0.338023	1.05682	18.6538	2.23352	3.78251	-0.0707278	-0.470832	-0.0481676	1	9	0.000195339	0.000184837	0	-5.47997e-05	8.34354e-05	0.000201664	0.873581	1.09104	1.09091	-0.0166343	9.62091	2.12206	2.09222	-0.354658	0.896527	-0.302652	0.946234	-18.6538	-48.1676	142.684	150.595	-108.654	0.0000000E+000	0.0000000E+000	0.0000000E+000	108.654	0.0000000E+000	0.0000000E+000	0.0000000E+000	-108.654	0.0000000E+000	0.0000000E+000	0.0000000E+000	18.6538	0.0000000E+000	0.0000000E+000	0.0000000E+000	-18.6538	2.96224	71.3462	-5.47997e-05	-0.000267528	-5.9012e-09	-0.000267522	3.78243	53479.8	1.17967	53478.7
251206	0.963912	0.243621	0.994222	-14.184	4.53556	3.78252	-0.0681205	2.60061	0.156149	1	9	0.00258097	0.00259597	0	-9.70293e-05	-6.92914e-05	2.49341e-05	99.2729	0.00960496	-0.00154772	-0.00947944	-13.6743	0.990438	0.962364	0.234141	0.975148	0.246461	1.00581	14.184	156.148	617.818	637.245	-75.816	0.0000000E+000	0.0000000E+000	0.0000000E+000	75.816	0.0000000E+000	0.0000000E+000	0.0000000E+000	-75.816	0.0000000E+000	0.0000000E+000	0.0000000E+000	-14.184	0.0000000E+000	0.0000000E+000	0.0000000E+000	14.184	3.9566	75.816	-6.53669e-06	-0.000257667	4.72016e-09	-0.000257671	3.78258	55526.8	1.01719	55527.9
63093.8	1.33255	0.33731	1.37458	-14.205	6.70956	3.78242	-0.0626453	7.47832	0.450324	1	9	0.00537201	0.00390813	0	-0.000113504	0.000350707	1.50923e-05	90.9004	0.00386178	-6.06884e-05	-0.00386131	-14.0495	1.37357	1.33249	0.333449	0.705253	0.178522	0.727497	14.205	450.324	1779.01	1835.12	-75.795	0.0000000E+000	0.0000000E+000	0.0000000E+000	75.795	0.0000000E+000	0.0000000E+000	0.0000000E+000	-75.795	0.0000000E+000	0.0000000E+000	0.0000000E+000	-14.205	0.0000000E+000	0.0000000E+000	0.0000000E+000	14.205	3.95051	75.795	4.08789e-06	-0.000236951	-2.19702e-08	-0.000236929	3.78207	60378.3	5.5983	60372.7
15847.7	1.60507	0.389436	1.65164	-13.638	8.76354	3.78241	-0.054563	25.7881	1.4337	1	9	0.00464961	0.00281515	0	-0.000134287	0.000350707	7.26516e-05	-97.7878	0.0258073	-0.00349701	0.0255693	-14.5272	1.65447	1.60157	0.415005	0.588388	0.14276	0.605459	13.638	1433.7	5909.06	6080.5	-76.362	0.0000000E+000	0.0000000E+000	0.0000000E+000	76.362	0.0000000E+000	0.0000000E+000	0.0000000E+000	-76.362	0.0000000E+000	0.0000000E+000	0.0000000E+000	-13.638	0.0000000E+000	0.0000000E+000	0.0000000E+000	13.638	4.12153	76.362	-6.00529e-06	-0.00020638	-1.91356e-08	-0.000206361	3.78206	69322	6.42757	69315.6
3983.6	1.93893	0.592864	2.02754	-17.002	10.6101	3.78224	-0.137249	67.389	5.76181	1	9	0.00481965	0.00237709	0	-0.000163904	0.000255253	5.18976e-06	-151.723	0.00218324	-0.00192271	0.00103428	-17.0459	2.02601	1.93701	0.593898	0.471652	0.144216	0.493208	17.002	5761.81	18843.7	19704.9	-72.998	0.0000000E+000	0.0000000E+000	0.0000000E+000	72.998	0.0000000E+000	0.0000000E+000	0.0000000E+000	-72.998	0.0000000E+000	0.0000000E+000	0.0000000E+000	-17.002	0.0000000E+000	0.0000000E+000	0.0000000E+000	17.002	3.27044	72.998	-1.11819e-05	-0.000519108	-3.50332e-08	-0.000519073	3.78199	27557.5	1.85978	27555.7
1000.32	2.58393	1.08564	2.80273	-22.7897	13.2398	3.78234	-0.0420111	146.554	21.9888	1	9	0.00468993	0.00167334	0	-0.000208732	-5.02005e-05	8.71416e-06	88.2983	0.00520764	0.000154647	-0.00520535	-22.6903	2.80087	2.58409	1.08043	0.328941	0.138204	0.356794	22.7897	21988.8	52335.8	56767.4	-67.2103	0.0000000E+000	0.0000000E+000	0.0000000E+000	67.2103	0.0000000E+000	0.0000000E+000	0.0000000E+000	-67.2103	0.0000000E+000	0.0000000E+000	0.0000000E+000	-22.7897	0.0000000E+000	0.0000000E+000	0.0000000E+000	22.7897	2.38011	67.2103	-4.53122e-06	-0.000158901	2.10898e-09	-0.000158903	3.78239	90031.9	1.19493	90033.1
251.044	4.00411	1.52652	4.28522	-20.8687	16.186	3.78234	-0.087643	415.306	52.7016	1	10	0.00469504	0.00109564	0	-0.000272152	7.07199e-06	9.7976e-06	36.7402	0.00894239	0.00716604	-0.00534922	-20.7679	4.29002	4.01128	1.52117	0.218051	0.0831293	0.23336	20.8687	52701.6	138238	147944	-69.1313	0.0000000E+000	0.0000000E+000	0.0000000E+000	69.1313	0.0000000E+000	0.0000000E+000	0.0000000E+000	-69.1313	0.0000000E+000	0.0000000E+000	0.0000000E+000	-20.8687	0.0000000E+000	0.0000000E+000	0.0000000E+000	20.8687	2.62304	69.1313	-1.14389e-05	-0.000331496	-6.1981e-10	-0.000331495	3.78233	43156.2	0.0806909	43156.2
63.0823	5.39485	0.952483	5.47828	-10.0126	18.908	3.78235	-0.0812207	2648.84	80.0721	1	10	0.00467301	0.000853006	0	-0.000336867	-3.11097e-05	8.92326e-06	-97.803	0.010461	-0.00142026	0.0103641	-10.122	5.4787	5.39343	0.962848	0.179759	0.0317372	0.182539	10.0126	80072.1	453526	460541	-79.9874	0.0000000E+000	0.0000000E+000	0.0000000E+000	79.9874	0.0000000E+000	0.0000000E+000	0.0000000E+000	-79.9874	0.0000000E+000	0.0000000E+000	0.0000000E+000	-10.0126	0.0000000E+000	0.0000000E+000	0.0000000E+000	10.0126	5.66398	79.9874	-9.69425e-06	-0.000307205	2.52675e-09	-0.000307207	3.78238	46568.8	0.383027	46569.1
[...]
0.0602816	6.96888	1.2518	7.08041	-10.1833	239.735	3.78236	-0.0442219	2.10911e+06	65925.6	1	11	0.00500018	0.000706199	0	-0.00638489	0.000350707	3.67299e-07	76.6592	0.000520107	0.000120011	-0.000506072	-10.1791	7.08044	6.969	1.2513	0.13901	0.02497	0.141235	10.1833	6.59256e+07	3.67012e+08	3.72886e+08	-79.8167	0.0000000E+000	0.0000000E+000	0.0000000E+000	79.8167	0.0000000E+000	0.0000000E+000	0.0000000E+000	-79.8167	0.0000000E+000	0.0000000E+000	0.0000000E+000	-10.1833	0.0000000E+000	0.0000000E+000	0.0000000E+000	10.1833	5.56706	79.8167	0.000000000000000E+000	-0.000167263	-1.5509e-08	-0.000167248	3.782	85531.2	7.93061	85523.2
0.00796479	10.4281	2.79769	10.7968	-15.0179	20328.7	3.78234	0.000928338	7.14244e+06	479571	1	11	0.00499457	0.000462596	0	-0.0296519	-3.11097e-05	2.15876e-07	-78.5955	0.000466662	9.2275e-05	0.000457448	-15.0201	10.797	10.4282	2.79815	0.0894563	0.0239997	0.0926197	15.0179	4.79571e+08	1.78754e+09	1.85076e+09	-74.9821	0.0000000E+000	0.0000000E+000	0.0000000E+000	74.9821	0.0000000E+000	0.0000000E+000	0.0000000E+000	-74.9821	0.0000000E+000	0.0000000E+000	0.0000000E+000	-15.0179	0.0000000E+000	0.0000000E+000	0.0000000E+000	15.0179	3.72739	74.9821	-0.0232671	3.51129e-06	-2.88803e-11	3.51132e-06	3.78238	4.07432e+06	33.5112	4.07435e+06
0.0019912	12.7352	3.73827	13.2725	-16.359	20328.7	3.78234	0.000928338	2.13814e+07	1.69618e+06	1	11	0.00500677	0.000377229	0	-0.0296519	-3.11097e-05	5.96402e-07	-44.525	0.00158101	0.00112717	0.00110863	-16.3623	13.2739	12.7363	3.73938	0.0722936	0.021221	0.0753438	16.359	1.69618e+09	5.77838e+09	6.02218e+09	-73.641	0.0000000E+000	0.0000000E+000	0.0000000E+000	73.641	0.0000000E+000	0.0000000E+000	0.0000000E+000	-73.641	0.0000000E+000	0.0000000E+000	0.0000000E+000	-16.359	0.0000000E+000	0.0000000E+000	0.0000000E+000	16.359	3.4067	73.641	0.000000000000000E+000	3.51129e-06	-2.88803e-11	3.51132e-06	3.78238	4.07432e+06	33.5112	4.07435e+06
0.000497799	13.578	7.37927	15.4536	-28.5229	20328.7	3.78234	0.000928338	4.33264e+07	9.87913e+06	1	11	0.00500774	0.000324049	0	-0.0296519	-3.11097e-05	9.03139e-07	6.0202	0.00278704	0.00277167	-0.000292302	-28.5171	15.4559	13.5807	7.37898	0.0568557	0.0308996	0.0647097	28.5229	9.87913e+09	1.81777e+10	2.06888e+10	-61.4771	0.0000000E+000	0.0000000E+000	0.0000000E+000	61.4771	0.0000000E+000	0.0000000E+000	0.0000000E+000	-61.4771	0.0000000E+000	0.0000000E+000	0.0000000E+000	-28.5229	0.0000000E+000	0.0000000E+000	0.0000000E+000	28.5229	1.84001	61.4771	0.000000000000000E+000	3.51129e-06	-2.88803e-11	3.51132e-06	3.78238	4.07432e+06	33.5112	4.07435e+06
9.95598e-05	16.5205	36.7439	40.2869	-65.7908	20328.7	3.78234	0.000928338	4.35062e+07	3.61903e+07	1	11	0.00499938	0.000124094	0	-0.0296519	-3.11097e-05	5.27453e-06	-33.9555	0.0425042	0.035256	0.0237407	-65.7589	40.323	16.5557	36.7676	0.0101787	0.022639	0.0248219	65.7908	3.61903e+10	1.62716e+10	3.968e+10	-24.2092	0.0000000E+000	0.0000000E+000	0.0000000E+000	24.2092	0.0000000E+000	0.0000000E+000	0.0000000E+000	-24.2092	0.0000000E+000	0.0000000E+000	0.0000000E+000	-65.7908	0.0000000E+000	0.0000000E+000	0.0000000E+000	65.7908	0.449612	24.2092	0.000000000000000E+000	3.51129e-06	-2.88803e-11	3.51132e-06	3.78238	4.07432e+06	33.5112	4.07435e+06