Folder: EIS/txt (part 194)

File: 19507_R316_UA717_SOC00_C01.mpt
EC-Lab ASCII FILE
Nb header lines : 65

Potentio Electrochemical Impedance Spectroscopy

Run on channel : 1 (SN 66354)
User :
CE vs. WE compliance from -10 V to 10 V
Electrode connection : standard
Potential control : Ewe
Ewe ctrl range : min = -10.00 V, max = 10.00 V
Safety Limits :
	Do not start on E overload
Acquisition started on : 12/04/2025 15:42:20.320
Technique started on : 12/04/2025 15:42:22.231
Loaded Setting File :  C:\Users\Celltest\OneDrive - store-dot.com\Documents\EC-Lab\Data\@Biologic Test Protocols\anode half cell EIS SOC00.mps
Saved on :
	File : 19507_R316_UA717_SOC00_C01.mpr
	Directory : C:\Users\Celltest\OneDrive - store-dot.com\Documents\EC-Lab\Data\Charmaine\
	Host : 169.254.61.224
Device : VMP-3e (SN .003165)
Address : USB
EC-LAB for windows v11.62 (software)
Internet server v27.00 (firmware)
Command interpretor v12.03 (firmware)
Electrode material :
Initial state :
Electrolyte :
Comments :
Electrode surface area : 0.001 cm²
Characteristic mass : 0.001 g
Equivalent Weight : 0.000 g/eq.
Density : 0.000 g/cm3
Volume (V) : 0.001 cm³
Record Ece
Cycle Definition : Charge/Discharge alternance
Mode                Single sine
E (V)               0.0000
vs.                 Eoc
tE (h:m:s)          0:00:0.0000
record              0
dI                  0.000
unit dI             mA
dt (s)              0.000
fi                  100.000
unit fi             kHz
ff                  10.000
unit ff             mHz
Nd                  6
Points              per decade
spacing             Logarithmic
Va (mV)             5.0
pw                  0.10
Na                  2
corr                0
E range min (V)     -10.000
E range max (V)     10.000
I Range             Auto
Bandwidth           5
nc cycles           0
goto Ns'            0
nr cycles           0
inc. cycle          0

freq/Hz	Re(Z)/Ohm	-Im(Z)/Ohm	|Z|/Ohm	Phase(Z)/deg	time/s	<Ewe>/V	<I>/mA	Cs/µF	Cp/µF	cycle number	I Range	|Ewe|/V	|I|/A	Ns	(Q-Qo)/mA.h	<Ece>/V	|Ece|/V	Phase(Zce)/deg	|Zce|/Ohm	Re(Zce)/Ohm	-Im(Zce)/Ohm	Phase(Zwe-ce)/deg	|Zwe-ce|/Ohm	Re(Zwe-ce)/Ohm	-Im(Zwe-ce)/Ohm	Re(Y)/Ohm-1	Im(Y)/Ohm-1	|Y|/Ohm-1	Phase(Y)/deg	Re(C)/nF	Im(C)/nF	|C|/nF	Phase(C)/deg	Re(M)	Im(M)	|M|	Phase(M)/deg	Re(Permittivity)	Im(Permittivity)	|Permittivity|	Phase(Permittivity)/deg	Re(Resistivity)/Ohm.cm	Im(Resistivity)/Ohm.cm	|Resistivity|/Ohm.cm	Phase(Resistivity)/deg	Re(Conductivity)/mS/cm	Im(Conductivity)/mS/cm	|Conductivity|/mS/cm	Phase(Conductivity)/deg	Tan(Delta)	Loss Angle(Delta)/deg	dq/mA.h	Pwe/W	Pce/W	Pwe-ce/W	<Ewe-Ece>/V	Rwe/Ohm	Rce/Ohm	Rwe-ce/Ohm		Ewe-Ece/V
100004	1.49255	0.53809	1.58658	-19.8251	1.91054	0.281677	0.0784531	2.95767	0.340198	1	9	0.00473385	0.00298367	0	1.09424e-05	0.000392232	3.80532e-05	93.9283	0.0127538	-0.000873738	-0.0127239	-19.4022	1.58149	1.49168	0.525366	0.592929	0.213761	0.630285	19.8251	340.198	943.641	1003.09	-70.1749	0.0000000E+000	0.0000000E+000	0.0000000E+000	70.1749	0.0000000E+000	0.0000000E+000	0.0000000E+000	-70.1749	0.0000000E+000	0.0000000E+000	0.0000000E+000	-19.8251	0.0000000E+000	0.0000000E+000	0.0000000E+000	19.8251	2.7738	70.1749	1.09424e-05	2.20984e-05	3.07718e-08	2.20677e-05	0.281285	3590.39	4.99957	3585.39
31621.1	1.96349	0.839698	2.13551	-23.1542	3.43156	0.281689	0.0791609	5.99404	0.926749	1	9	0.00534855	0.00250458	0	5.22323e-05	0.000296845	2.39547e-05	20.1487	0.00956436	0.00897904	-0.00329451	-22.9788	2.14248	1.97247	0.836403	0.430553	0.184128	0.468272	23.1542	926.749	2167.05	2356.9	-66.8458	0.0000000E+000	0.0000000E+000	0.0000000E+000	66.8458	0.0000000E+000	0.0000000E+000	0.0000000E+000	-66.8458	0.0000000E+000	0.0000000E+000	0.0000000E+000	-23.1542	0.0000000E+000	0.0000000E+000	0.0000000E+000	23.1542	2.33834	66.8458	9.05559e-06	2.22988e-05	2.34986e-08	2.22753e-05	0.281393	3558.44	3.7499	3554.69
10002.2	2.60078	1.08895	2.81955	-22.7191	4.45854	0.281695	0.078304	14.6122	2.17958	1	9	0.00498826	0.00176917	0	7.38353e-05	0.000106072	1.00675e-05	-135.001	0.00569055	-0.00402393	0.00402372	-22.8262	2.8174	2.59675	1.09297	0.327148	0.136977	0.354667	22.7191	2179.58	5205.56	5643.44	-67.2809	0.0000000E+000	0.0000000E+000	0.0000000E+000	67.2809	0.0000000E+000	0.0000000E+000	0.0000000E+000	-67.2809	0.0000000E+000	0.0000000E+000	0.0000000E+000	-22.7191	0.0000000E+000	0.0000000E+000	0.0000000E+000	22.7191	2.38834	67.2809	8.79221e-06	2.20579e-05	8.30589e-09	2.20496e-05	0.281589	3597.46	1.35462	3596.1
3163.08	3.40866	1.5398	3.74031	-24.3102	5.35462	0.281499	0.0663826	32.6773	5.53805	1	9	0.00462951	0.00123773	0	9.20663e-05	-8.3915e-06	3.8451e-06	-18.5567	0.00310657	0.00294506	0.000988644	-24.3054	3.74341	3.41161	1.54079	0.243651	0.110064	0.267357	24.3102	5538.05	12259.6	13452.5	-65.6899	0.0000000E+000	0.0000000E+000	0.0000000E+000	65.6899	0.0000000E+000	0.0000000E+000	0.0000000E+000	-65.6899	0.0000000E+000	0.0000000E+000	0.0000000E+000	-24.3102	0.0000000E+000	0.0000000E+000	0.0000000E+000	24.3102	2.21371	65.6899	7.89542e-06	1.86866e-05	-5.5705e-10	1.86872e-05	0.281507	4240.55	0.126411	4240.67
1000.32	4.43212	2.44667	5.0626	-28.9001	6.95381	0.281629	-0.00747295	65.0288	15.1883	1	10	0.00465125	0.000918748	0	9.76728e-05	2.97631e-05	4.08955e-06	-73.4872	0.00445122	0.00126517	0.00426764	-28.9354	5.06577	4.43338	2.45094	0.172928	0.0954616	0.197527	28.9001	15188.3	27513.5	31427.4	-61.0999	0.0000000E+000	0.0000000E+000	0.0000000E+000	61.0999	0.0000000E+000	0.0000000E+000	0.0000000E+000	-61.0999	0.0000000E+000	0.0000000E+000	0.0000000E+000	-28.9001	0.0000000E+000	0.0000000E+000	0.0000000E+000	28.9001	1.81149	61.0999	-1.70135e-06	-2.1046e-06	-2.22418e-10	-2.10437e-06	0.281599	37686.4	3.98278	37682.4
316.316	5.90025	4.77675	7.59146	-38.9931	8.30407	0.281604	-0.00959359	105.333	41.7043	1	10	0.00459063	0.000604709	0	9.48783e-05	0.000468541	8.6366e-06	25.8554	0.0142822	0.0128525	-0.00622851	-38.8956	7.59754	5.9131	4.77053	0.102381	0.0828862	0.131727	38.9931	41704.3	51513.2	66278.7	-51.0069	0.0000000E+000	0.0000000E+000	0.0000000E+000	51.0069	0.0000000E+000	0.0000000E+000	0.0000000E+000	-51.0069	0.0000000E+000	0.0000000E+000	0.0000000E+000	-38.9931	0.0000000E+000	0.0000000E+000	0.0000000E+000	38.9931	1.2352	51.0069	-9.83181e-07	-2.70159e-06	-4.49499e-09	-2.6971e-06	0.281135	29353.3	48.839	29304.5
100.032	9.91378	10.3841	14.3566	-46.3274	9.65184	0.281608	-0.0116061	153.219	80.1577	1	10	0.00456405	0.000317905	0	9.07766e-05	0.000296845	1.28584e-05	-103.119	0.0404472	-0.0091806	0.0393915	-46.4622	14.3788	9.9046	10.4235	0.0480988	0.0503807	0.0696542	46.3274	80157.7	76527.1	110823	-43.6726	0.0000000E+000	0.0000000E+000	0.0000000E+000	43.6726	0.0000000E+000	0.0000000E+000	0.0000000E+000	-43.6726	0.0000000E+000	0.0000000E+000	0.0000000E+000	-46.3274	0.0000000E+000	0.0000000E+000	0.0000000E+000	46.3274	0.954706	43.6726	-9.20425e-07	-3.26838e-06	-3.44523e-09	-3.26494e-06	0.281311	24263.7	25.5766	24238.1
[...]
1.00006	50.312	6.06623	50.6763	-6.87509	19.3879	0.281681	-0.000366407	26234.6	375.924	1	12	0.00456532	9.00878e-05	0	8.78536e-05	0.000468541	4.96349e-06	27.9017	0.0550962	0.0486913	-0.0257826	-6.8396	50.7216	50.3606	6.04044	0.0195912	0.00236215	0.0197331	6.87509	375924	3.11783e+06	3.14042e+06	-83.1249	0.0000000E+000	0.0000000E+000	0.0000000E+000	83.1249	0.0000000E+000	0.0000000E+000	0.0000000E+000	-83.1249	0.0000000E+000	0.0000000E+000	0.0000000E+000	-6.87509	0.0000000E+000	0.0000000E+000	0.0000000E+000	6.87509	8.29378	83.1249	-2.74408e-06	-1.0321e-07	-1.71677e-10	-1.03038e-07	0.281212	768765	1278.75	767486
0.316193	53.4078	4.97688	53.6392	-5.32381	33.7301	0.281679	-0.000763629	101137	870.683	1	12	0.00456554	8.51157e-05	0	7.90209e-05	1.06858e-05	2.26942e-06	15.8954	0.0266628	0.0256433	-0.00730247	-5.31351	53.6641	53.4335	4.96958	0.0185627	0.00172979	0.0186431	5.32381	870684	9.34346e+06	9.38394e+06	-84.6762	0.0000000E+000	0.0000000E+000	0.0000000E+000	84.6762	0.0000000E+000	0.0000000E+000	0.0000000E+000	-84.6762	0.0000000E+000	0.0000000E+000	0.0000000E+000	-5.32381	0.0000000E+000	0.0000000E+000	0.0000000E+000	5.32381	10.7312	84.6762	-6.71235e-07	-2.15099e-07	-8.16e-12	-2.15091e-07	0.281669	368869	13.9934	368855
0.0999041	56.1105	5.94908	56.425	-6.05214	78.9391	0.281678	-0.000326778	267785	2976.76	1	12	0.00456611	8.09234e-05	0	0.000114888	0.000201459	3.28269e-06	-5.14319	0.0405653	0.040402	0.00363648	-6.05148	56.4656	56.1509	5.95272	0.0176239	0.00186856	0.0177226	6.05214	2.97676e+06	2.80762e+07	2.82335e+07	-83.9479	0.0000000E+000	0.0000000E+000	0.0000000E+000	83.9479	0.0000000E+000	0.0000000E+000	0.0000000E+000	-83.9479	0.0000000E+000	0.0000000E+000	0.0000000E+000	-6.05214	0.0000000E+000	0.0000000E+000	0.0000000E+000	6.05214	9.4318	83.9479	1.7109e-05	-9.20462e-08	-6.58323e-11	-9.19803e-08	0.281477	861988	616.501	861371
0.0315922	59.967	10.3417	60.8522	-9.78475	221.822	0.281676	0.000566844	487136	14069.5	1	12	0.00456484	7.50151e-05	0	7.68746e-05	0.000468541	2.77348e-06	8.54187	0.0369723	0.0365622	-0.00549157	-9.77381	60.8873	60.0036	10.3362	0.0161942	0.00279278	0.0164333	9.78475	1.40695e+07	8.1583e+07	8.27873e+07	-80.2153	0.0000000E+000	0.0000000E+000	0.0000000E+000	80.2153	0.0000000E+000	0.0000000E+000	0.0000000E+000	-80.2153	0.0000000E+000	0.0000000E+000	0.0000000E+000	-9.78475	0.0000000E+000	0.0000000E+000	0.0000000E+000	9.78475	5.79859	80.2153	-4.4144e-05	1.59666e-07	2.6559e-10	1.59401e-07	0.281207	496920	826.579	496093
0.0100092	66.7479	20.408	69.7981	-17.0008	673.044	0.281668	-0.000411373	779152	66609.3	1	12	0.00456456	6.53967e-05	0	-0.00016443	0.000449464	2.00501e-06	-19.0231	0.0306593	0.0289849	0.00999338	-17.0017	69.8287	66.7769	20.418	0.013701	0.00418902	0.014327	17.0008	6.66093e+07	2.17858e+08	2.27813e+08	-72.9992	0.0000000E+000	0.0000000E+000	0.0000000E+000	72.9992	0.0000000E+000	0.0000000E+000	0.0000000E+000	-72.9992	0.0000000E+000	0.0000000E+000	0.0000000E+000	-17.0008	0.0000000E+000	0.0000000E+000	0.0000000E+000	17.0008	3.27068	72.9992	-5.01264e-05	-1.15871e-07	-1.84897e-10	-1.15686e-07	0.281219	684704	1092.6	683611

File: 19508_R316_UA717_SOC00_C02.mpt
EC-Lab ASCII FILE
Nb header lines : 65

Potentio Electrochemical Impedance Spectroscopy

Run on channel : 2 (SN 66139)
User :
CE vs. WE compliance from -10 V to 10 V
Electrode connection : standard
Potential control : Ewe
Ewe ctrl range : min = -10.00 V, max = 10.00 V
Safety Limits :
	Do not start on E overload
Acquisition started on : 12/04/2025 15:42:28.371
Technique started on : 12/04/2025 15:42:30.098
Loaded Setting File :  C:\Users\Celltest\OneDrive - store-dot.com\Documents\EC-Lab\Data\@Biologic Test Protocols\anode half cell EIS SOC00.mps
Saved on :
	File : 19508_R316_UA717_SOC00_C02.mpr
	Directory : C:\Users\Celltest\OneDrive - store-dot.com\Documents\EC-Lab\Data\Charmaine\
	Host : 169.254.61.224
Device : VMP-3e (SN .003165)
Address : USB
EC-LAB for windows v11.62 (software)
Internet server v27.00 (firmware)
Command interpretor v12.03 (firmware)
Electrode material :
Initial state :
Electrolyte :
Comments :
Electrode surface area : 0.001 cm²
Characteristic mass : 0.001 g
Equivalent Weight : 0.000 g/eq.
Density : 0.000 g/cm3
Volume (V) : 0.001 cm³
Record Ece
Cycle Definition : Charge/Discharge alternance
Mode                Single sine
E (V)               0.0000
vs.                 Eoc
tE (h:m:s)          0:00:0.0000
record              0
dI                  0.000
unit dI             mA
dt (s)              0.000
fi                  100.000
unit fi             kHz
ff                  10.000
unit ff             mHz
Nd                  6
Points              per decade
spacing             Logarithmic
Va (mV)             5.0
pw                  0.10
Na                  2
corr                0
E range min (V)     -10.000
E range max (V)     10.000
I Range             Auto
Bandwidth           5
nc cycles           0
goto Ns'            0
nr cycles           0
inc. cycle          0

freq/Hz	Re(Z)/Ohm	-Im(Z)/Ohm	|Z|/Ohm	Phase(Z)/deg	time/s	<Ewe>/V	<I>/mA	Cs/µF	Cp/µF	cycle number	I Range	|Ewe|/V	|I|/A	Ns	(Q-Qo)/mA.h	<Ece>/V	|Ece|/V	Phase(Zce)/deg	|Zce|/Ohm	Re(Zce)/Ohm	-Im(Zce)/Ohm	Phase(Zwe-ce)/deg	|Zwe-ce|/Ohm	Re(Zwe-ce)/Ohm	-Im(Zwe-ce)/Ohm	Re(Y)/Ohm-1	Im(Y)/Ohm-1	|Y|/Ohm-1	Phase(Y)/deg	Re(C)/nF	Im(C)/nF	|C|/nF	Phase(C)/deg	Re(M)	Im(M)	|M|	Phase(M)/deg	Re(Permittivity)	Im(Permittivity)	|Permittivity|	Phase(Permittivity)/deg	Re(Resistivity)/Ohm.cm	Im(Resistivity)/Ohm.cm	|Resistivity|/Ohm.cm	Phase(Resistivity)/deg	Re(Conductivity)/mS/cm	Im(Conductivity)/mS/cm	|Conductivity|/mS/cm	Phase(Conductivity)/deg	Tan(Delta)	Loss Angle(Delta)/deg	dq/mA.h	Pwe/W	Pce/W	Pwe-ce/W	<Ewe-Ece>/V	Rwe/Ohm	Rce/Ohm	Rwe-ce/Ohm		Ewe-Ece/V
100004	1.27568	0.519462	1.37739	-22.1563	1.72652	0.272648	-0.0138532	3.06373	0.435757	1	9	0.00469657	0.00340976	0	5.41964e-07	0.000402778	2.05342e-05	95.7524	0.00602218	-0.000603599	-0.00599186	-21.9345	1.37458	1.27508	0.51347	0.672401	0.273804	0.726011	22.1563	435.757	1070.12	1155.44	-67.8437	0.0000000E+000	0.0000000E+000	0.0000000E+000	67.8437	0.0000000E+000	0.0000000E+000	0.0000000E+000	-67.8437	0.0000000E+000	0.0000000E+000	0.0000000E+000	-22.1563	0.0000000E+000	0.0000000E+000	0.0000000E+000	22.1563	2.45577	67.8437	5.41964e-07	-3.77705e-06	-5.57975e-09	-3.77147e-06	0.272246	19681.3	29.0748	19652.2
31621.1	1.73038	0.722302	1.87508	-22.6568	3.24956	0.27264	-0.00595705	6.96825	1.034	1	9	0.00521229	0.00277976	0	-2.86521e-05	0.00023096	1.89552e-05	1.92326	0.00681902	0.00681517	-0.000228853	-22.5704	1.88129	1.7372	0.722073	0.492153	0.205436	0.533309	22.6568	1034	2477.1	2684.24	-67.3432	0.0000000E+000	0.0000000E+000	0.0000000E+000	67.3432	0.0000000E+000	0.0000000E+000	0.0000000E+000	-67.3432	0.0000000E+000	0.0000000E+000	0.0000000E+000	-22.6568	0.0000000E+000	0.0000000E+000	0.0000000E+000	22.6568	2.39565	67.3432	-6.77539e-06	-1.62413e-06	-1.37584e-09	-1.62276e-06	0.272409	45767.7	38.7709	45728.9
10002.2	2.29776	0.968749	2.49362	-22.8606	4.27455	0.272645	-0.000705409	16.4253	2.47898	1	9	0.00490843	0.00196839	0	-2.72739e-05	-5.54027e-05	5.22379e-06	-63.3625	0.00265384	0.00118983	0.00237216	-22.9002	2.49564	2.29895	0.971121	0.369523	0.155793	0.401023	22.8606	2478.98	5879.84	6381.05	-67.1394	0.0000000E+000	0.0000000E+000	0.0000000E+000	67.1394	0.0000000E+000	0.0000000E+000	0.0000000E+000	-67.1394	0.0000000E+000	0.0000000E+000	0.0000000E+000	-22.8606	0.0000000E+000	0.0000000E+000	0.0000000E+000	22.8606	2.37188	67.1394	1.63741e-06	-1.92326e-07	3.90816e-11	-1.92365e-07	0.2727	386506	78.5399	386584
3163.08	3.02085	1.40537	3.33176	-24.9489	5.35064	0.272437	-0.0426071	35.8031	6.37019	1	9	0.00498449	0.00149605	0	-3.73531e-05	0.000192778	6.03234e-06	-23.7463	0.00403217	0.0036908	0.00162371	-24.9474	3.33579	3.02455	1.40699	0.272134	0.126603	0.300142	24.9489	6370.19	13692.8	15102.1	-65.0511	0.0000000E+000	0.0000000E+000	0.0000000E+000	65.0511	0.0000000E+000	0.0000000E+000	0.0000000E+000	-65.0511	0.0000000E+000	0.0000000E+000	0.0000000E+000	-24.9489	0.0000000E+000	0.0000000E+000	0.0000000E+000	24.9489	2.14951	65.0511	-7.76212e-06	-1.16078e-05	-8.21371e-09	-1.15995e-05	0.272245	6394.19	4.52456	6389.66
1000.32	3.92007	2.22349	4.50676	-29.5623	6.94885	0.272574	-0.0197211	71.5558	17.4176	1	10	0.00501701	0.00111322	0	-3.92238e-05	0.000307323	4.14085e-06	-94.3587	0.00371971	-0.000282699	0.00370895	-29.605	4.50834	3.91978	2.2272	0.193004	0.109473	0.221889	29.5623	17417.6	30707.6	35303.4	-60.4377	0.0000000E+000	0.0000000E+000	0.0000000E+000	60.4377	0.0000000E+000	0.0000000E+000	0.0000000E+000	-60.4377	0.0000000E+000	0.0000000E+000	0.0000000E+000	-29.5623	0.0000000E+000	0.0000000E+000	0.0000000E+000	29.5623	1.76302	60.4377	-3.13074e-06	-5.37544e-06	-6.06074e-09	-5.36938e-06	0.272266	13821.5	15.5835	13805.9
316.316	5.3126	4.45955	6.93623	-40.011	8.29802	0.272574	-0.0197993	112.826	46.6383	1	10	0.00493848	0.000711983	0	-4.62528e-05	1.86979e-06	7.66463e-06	-10.646	0.0107652	0.0105799	0.00198877	-39.9675	6.94562	5.32318	4.46154	0.110423	0.0926923	0.14417	40.011	46638.3	55559.6	72539.7	-49.989	0.0000000E+000	0.0000000E+000	0.0000000E+000	49.989	0.0000000E+000	0.0000000E+000	0.0000000E+000	-49.989	0.0000000E+000	0.0000000E+000	0.0000000E+000	-40.011	0.0000000E+000	0.0000000E+000	0.0000000E+000	40.011	1.19129	49.989	-2.87776e-06	-5.39678e-06	-3.70205e-11	-5.39674e-06	0.272572	13766.9	0.0944372	13766.8
100.032	9.45606	9.37599	13.3164	-44.7564	9.64584	0.272572	-0.0200861	169.693	84.125	1	10	0.00491091	0.000368787	0	-5.29848e-05	7.82332e-05	6.27996e-06	11.0457	0.0170287	0.0167132	-0.00326257	-44.6958	13.326	9.47277	9.37273	0.0533258	0.0528742	0.0750954	44.7564	84125	84843.4	119480	-45.2436	0.0000000E+000	0.0000000E+000	0.0000000E+000	45.2436	0.0000000E+000	0.0000000E+000	0.0000000E+000	-45.2436	0.0000000E+000	0.0000000E+000	0.0000000E+000	-44.7564	0.0000000E+000	0.0000000E+000	0.0000000E+000	44.7564	1.00854	45.2436	-2.79982e-06	-5.47492e-06	-1.5714e-09	-5.47335e-06	0.272494	13570.1	3.89488	13566.3
[...]
1.00006	39.5073	4.23089	39.7332	-6.11259	19.3828	0.272629	-0.00521008	37615	426.498	1	12	0.00490925	0.000123555	0	-7.44829e-05	0.000192778	3.00252e-06	-60.7825	0.0243011	0.011862	0.0212093	-6.14117	39.7473	39.5192	4.2521	0.0250248	0.00267994	0.0251679	6.11259	426498	3.98256e+06	4.00533e+06	-83.8874	0.0000000E+000	0.0000000E+000	0.0000000E+000	83.8874	0.0000000E+000	0.0000000E+000	0.0000000E+000	-83.8874	0.0000000E+000	0.0000000E+000	0.0000000E+000	-6.11259	0.0000000E+000	0.0000000E+000	0.0000000E+000	6.11259	9.33782	83.8874	-2.16124e-06	-1.42042e-06	-1.00439e-09	-1.41942e-06	0.272437	52327.3	37.001	52290.3
0.316193	41.6312	3.68714	41.7942	-5.06129	33.726	0.272634	-0.0038886	136514	1062.49	1	12	0.00490935	0.000117465	0	-7.36444e-05	-7.44936e-05	1.50882e-06	-19.745	0.0128449	0.0120897	0.00433944	-5.06576	41.8066	41.6433	3.69148	0.0238335	0.00211085	0.0239268	5.06129	1.06249e+06	1.19965e+07	1.20435e+07	-84.9387	0.0000000E+000	0.0000000E+000	0.0000000E+000	84.9387	0.0000000E+000	0.0000000E+000	0.0000000E+000	-84.9387	0.0000000E+000	0.0000000E+000	0.0000000E+000	-5.06129	0.0000000E+000	0.0000000E+000	0.0000000E+000	5.06129	11.2909	84.9387	-5.31306e-07	-1.06016e-06	2.89675e-10	-1.06045e-06	0.272708	70111	19.1569	70130.2
0.0999041	43.7359	4.97692	44.0182	-6.49205	78.934	0.272629	-0.001833	320093	4091.99	1	12	0.00490863	0.000111514	0	-0.000147764	-1.72211e-05	1.95596e-06	-2.96825	0.0175401	0.0175165	0.00090827	-6.49064	44.0357	43.7534	4.97783	0.0225722	0.00256861	0.0227179	6.49205	4.09199e+06	3.59593e+07	3.61914e+07	-83.5079	0.0000000E+000	0.0000000E+000	0.0000000E+000	83.5079	0.0000000E+000	0.0000000E+000	0.0000000E+000	-83.5079	0.0000000E+000	0.0000000E+000	0.0000000E+000	-6.49205	0.0000000E+000	0.0000000E+000	0.0000000E+000	6.49205	8.78773	83.5079	-4.18943e-05	-4.9973e-07	3.15662e-11	-4.99762e-07	0.272646	148734	9.395	148743
0.0315922	47.2215	9.21709	48.1126	-11.0446	221.819	0.272621	-0.00180039	546570	20059.3	1	12	0.00490867	0.000102025	0	-0.000274983	0.000440959	2.29586e-06	50.9116	0.022503	0.0141886	-0.0174663	-11.021	48.1232	47.2357	9.19963	0.0203996	0.00398177	0.0207846	11.0446	2.00593e+07	1.02769e+08	1.04708e+08	-78.9554	0.0000000E+000	0.0000000E+000	0.0000000E+000	78.9554	0.0000000E+000	0.0000000E+000	0.0000000E+000	-78.9554	0.0000000E+000	0.0000000E+000	0.0000000E+000	-11.0446	0.0000000E+000	0.0000000E+000	0.0000000E+000	11.0446	5.12325	78.9554	-1.76508e-05	-4.90825e-07	-7.939e-10	-4.90032e-07	0.27218	151423	244.924	151178
0.0100092	52.9171	18.7096	56.1272	-19.4718	673.042	0.272607	8.82114e-05	849880	94436.5	1	12	0.004908	8.74443e-05	0	0.000131936	-5.54027e-05	1.56851e-06	-16.7299	0.0179373	0.017178	0.00516342	-19.4709	56.1451	52.9342	18.7148	0.0167977	0.00593906	0.0178167	19.4718	9.44364e+07	2.67098e+08	2.83301e+08	-70.5282	0.0000000E+000	0.0000000E+000	0.0000000E+000	70.5282	0.0000000E+000	0.0000000E+000	0.0000000E+000	-70.5282	0.0000000E+000	0.0000000E+000	0.0000000E+000	-19.4718	0.0000000E+000	0.0000000E+000	0.0000000E+000	19.4718	2.82834	70.5282	0.000195444	2.4047e-08	-4.88715e-12	2.40519e-08	0.272662	3.09038e+06	628.068	3.09101e+06