Folder: EIS/txt (part 164)

File: 19139_R306_UA703_SOC00_C03.mpt
EC-Lab ASCII FILE
Nb header lines : 65

Potentio Electrochemical Impedance Spectroscopy

Run on channel : 3 (SN 65921)
Grouped channel(s) : 1, 2, 3, 4, 5
User :
CE vs. WE compliance from -10 V to 10 V
Electrode connection : standard
Potential control : Ewe
Ewe ctrl range : min = -10.00 V, max = 10.00 V
Safety Limits :
	Do not start on E overload
Acquisition started on : 11/12/2025 11:20:24.450
Loaded Setting File :  C:\Users\Celltest\OneDrive - store-dot.com\Documents\EC-Lab\Data\@Biologic Test Protocols\anode half cell EIS SOC00.mps
Saved on :
	File : 19137_R306_UA703_SOC00_C03.mpr
	Directory : C:\Users\Celltest\OneDrive - store-dot.com\Documents\EC-Lab\Data\Charmaine\
	Host : 169.254.61.224
Device : VMP-3e (SN .003165)
Address : USB
EC-LAB for windows v11.62 (software)
Internet server v27.00 (firmware)
Command interpretor v12.03 (firmware)
Electrode material :
Initial state :
Electrolyte :
Comments :
Electrode surface area : 0.001 cm²
Characteristic mass : 0.001 g
Equivalent Weight : 0.000 g/eq.
Density : 0.000 g/cm3
Volume (V) : 0.001 cm³
Record Ece
Cycle Definition : Charge/Discharge alternance
Mode                Single sine
E (V)               0.0000
vs.                 Eoc
tE (h:m:s)          0:00:0.0000
record              0
dI                  0.000
unit dI             mA
dt (s)              0.000
fi                  100.000
unit fi             kHz
ff                  10.000
unit ff             mHz
Nd                  6
Points              per decade
spacing             Logarithmic
Va (mV)             5.0
pw                  0.10
Na                  2
corr                0
E range min (V)     -10.000
E range max (V)     10.000
I Range             Auto
Bandwidth           5
nc cycles           0
goto Ns'            0
nr cycles           0
inc. cycle          0

freq/Hz	Re(Z)/Ohm	-Im(Z)/Ohm	|Z|/Ohm	Phase(Z)/deg	time/s	<Ewe>/V	<I>/mA	Cs/µF	Cp/µF	cycle number	I Range	|Ewe|/V	|I|/A	Ns	(Q-Qo)/mA.h	<Ece>/V	|Ece|/V	Phase(Zce)/deg	|Zce|/Ohm	Re(Zce)/Ohm	-Im(Zce)/Ohm	Phase(Zwe-ce)/deg	|Zwe-ce|/Ohm	Re(Zwe-ce)/Ohm	-Im(Zwe-ce)/Ohm	Re(Y)/Ohm-1	Im(Y)/Ohm-1	|Y|/Ohm-1	Phase(Y)/deg	Re(C)/nF	Im(C)/nF	|C|/nF	Phase(C)/deg	Re(M)	Im(M)	|M|	Phase(M)/deg	Re(Permittivity)	Im(Permittivity)	|Permittivity|	Phase(Permittivity)/deg	Re(Resistivity)/Ohm.cm	Im(Resistivity)/Ohm.cm	|Resistivity|/Ohm.cm	Phase(Resistivity)/deg	Re(Conductivity)/mS/cm	Im(Conductivity)/mS/cm	|Conductivity|/mS/cm	Phase(Conductivity)/deg	Tan(Delta)	Loss Angle(Delta)/deg	dq/mA.h	Pwe/W	Pce/W	Pwe-ce/W	<Ewe-Ece>/V	Rwe/Ohm	Rce/Ohm	Rwe-ce/Ohm		Ewe-Ece/V
100004	1.13171	0.508685	1.24078	-24.2031	1.72654	0.265089	0.0113308	3.12863	0.525852	1	9	0.00476566	0.00384085	0	-1.69424e-06	6.08766e-05	4.45778e-05	97.2574	0.0116062	-0.00146618	-0.0115132	-23.7437	1.23476	1.13025	0.497172	0.7351	0.330415	0.805944	24.2031	525.852	1169.9	1282.65	-65.7969	0.0000000E+000	0.0000000E+000	0.0000000E+000	65.7969	0.0000000E+000	0.0000000E+000	0.0000000E+000	-65.7969	0.0000000E+000	0.0000000E+000	0.0000000E+000	-24.2031	0.0000000E+000	0.0000000E+000	0.0000000E+000	24.2031	2.22478	65.7969	-1.69424e-06	3.00368e-06	6.89784e-10	3.00299e-06	0.265028	23395.3	5.37264	23390
31621.1	1.58782	0.682717	1.72837	-23.2664	3.24752	0.265063	0.0116292	7.37228	1.1503	1	9	0.00520856	0.00301357	0	5.01226e-06	-0.00011097	4.79042e-06	17.4399	0.00158962	0.00151655	-0.000476418	-23.232	1.72957	1.58933	0.682241	0.531529	0.228543	0.57858	23.2664	1150.3	2675.28	2912.1	-66.7336	0.0000000E+000	0.0000000E+000	0.0000000E+000	66.7336	0.0000000E+000	0.0000000E+000	0.0000000E+000	-66.7336	0.0000000E+000	0.0000000E+000	0.0000000E+000	-23.2664	0.0000000E+000	0.0000000E+000	0.0000000E+000	23.2664	2.32573	66.7336	-1.9566e-06	3.08248e-06	-1.29049e-09	3.08377e-06	0.265174	22792.9	9.54235	22802.4
10002.2	2.1107	0.865306	2.28118	-22.2918	4.39652	0.265104	0.0186777	18.3888	2.6459	1	9	0.00487411	0.00213666	0	1.51131e-05	-0.000149158	5.45194e-06	-11.5554	0.00255162	0.0024999	0.000511129	-22.2799	2.28369	2.1132	0.865818	0.405607	0.166284	0.438369	22.2918	2645.9	6454	6975.31	-67.7082	0.0000000E+000	0.0000000E+000	0.0000000E+000	67.7082	0.0000000E+000	0.0000000E+000	0.0000000E+000	-67.7082	0.0000000E+000	0.0000000E+000	0.0000000E+000	-22.2918	0.0000000E+000	0.0000000E+000	0.0000000E+000	22.2918	2.43925	67.7082	5.85626e-06	4.95153e-06	-2.78593e-09	4.95432e-06	0.265254	14193.7	7.98591	14201.6
3163.08	2.76691	1.22234	3.02488	-23.8344	5.47367	0.264814	-0.0505019	41.1641	6.7218	1	9	0.00493674	0.00163205	0	7.64627e-06	-9.18759e-05	4.6859e-06	-4.18279	0.00287118	0.00286353	0.00020942	-23.8161	3.02758	2.76977	1.22255	0.302398	0.13359	0.330592	23.8344	6721.8	15215.6	16634.2	-66.1656	0.0000000E+000	0.0000000E+000	0.0000000E+000	66.1656	0.0000000E+000	0.0000000E+000	0.0000000E+000	-66.1656	0.0000000E+000	0.0000000E+000	0.0000000E+000	-23.8344	0.0000000E+000	0.0000000E+000	0.0000000E+000	23.8344	2.26362	66.1656	-7.5298e-06	-1.33736e-05	4.63991e-09	-1.33782e-05	0.264906	5243.64	1.81926	5245.46
1000.32	3.63107	1.86749	4.08316	-27.2172	7.07179	0.265012	-0.0181342	85.1966	17.8216	1	10	0.00495505	0.00121353	0	2.10183e-05	-7.27818e-05	8.19038e-06	66.2309	0.0067492	0.00272027	-0.00617672	-27.1226	4.08276	3.63379	1.86132	0.217792	0.112012	0.244908	27.2172	17821.6	34651.6	38965.9	-62.7828	0.0000000E+000	0.0000000E+000	0.0000000E+000	62.7828	0.0000000E+000	0.0000000E+000	0.0000000E+000	-62.7828	0.0000000E+000	0.0000000E+000	0.0000000E+000	-27.2172	0.0000000E+000	0.0000000E+000	0.0000000E+000	27.2172	1.94436	62.7828	-2.18408e-06	-4.80578e-06	1.31984e-09	-4.8071e-06	0.265085	14614	4.01352	14618
316.316	5.04881	3.29742	6.03021	-33.1489	8.42204	0.265013	-0.0161169	152.59	45.6256	1	10	0.00486551	0.000806856	0	1.41336e-05	4.17825e-05	1.21297e-05	-61.9952	0.0150333	0.00705882	0.013273	-33.2177	6.04338	5.05586	3.31069	0.138843	0.0906796	0.165832	33.1489	45625.6	69859.1	83438.6	-56.8511	0.0000000E+000	0.0000000E+000	0.0000000E+000	56.8511	0.0000000E+000	0.0000000E+000	0.0000000E+000	-56.8511	0.0000000E+000	0.0000000E+000	0.0000000E+000	-33.1489	0.0000000E+000	0.0000000E+000	0.0000000E+000	33.1489	1.53114	56.8511	-2.41187e-06	-4.27118e-06	-6.73403e-10	-4.27051e-06	0.264972	16443.2	2.59248	16440.7
100.032	8.40321	5.4612	10.0219	-33.0196	9.76785	0.265019	-0.0149796	291.335	86.5103	1	10	0.00483755	0.000482698	0	7.09241e-06	3.59442e-06	7.27442e-06	-35.4025	0.0150703	0.0122839	0.0087305	-33.0232	10.037	8.4155	5.46993	0.0836651	0.0543734	0.0997814	33.0196	86510.3	133115	158756	-56.9804	0.0000000E+000	0.0000000E+000	0.0000000E+000	56.9804	0.0000000E+000	0.0000000E+000	0.0000000E+000	-56.9804	0.0000000E+000	0.0000000E+000	0.0000000E+000	-33.0196	0.0000000E+000	0.0000000E+000	0.0000000E+000	33.0196	1.53871	56.9804	-1.33117e-06	-3.96987e-06	-5.38428e-11	-3.96982e-06	0.265016	17692.1	0.239955	17691.8
[...]
1.00006	22.3889	2.20215	22.4969	-5.61749	19.8137	0.265051	-0.00633029	72268	692.458	1	12	0.00483397	0.000214873	0	-6.26231e-06	9.90647e-05	2.71103e-06	29.8706	0.0126169	0.0109408	-0.00628375	-5.59885	22.5072	22.3998	2.19586	0.0442371	0.00435112	0.0444506	5.61749	692459	7.04011e+06	7.07408e+06	-84.3825	0.0000000E+000	0.0000000E+000	0.0000000E+000	84.3825	0.0000000E+000	0.0000000E+000	0.0000000E+000	-84.3825	0.0000000E+000	0.0000000E+000	0.0000000E+000	-5.61749	0.0000000E+000	0.0000000E+000	0.0000000E+000	5.61749	10.1668	84.3825	1.44957e-06	-1.67785e-06	-6.27108e-10	-1.67722e-06	0.264952	41870.3	15.6493	41854.7
0.316193	23.3849	2.1048	23.4794	-5.14317	34.1567	0.265052	-0.0032551	239142	1921.79	1	12	0.00483338	0.000205856	0	-4.29364e-05	-3.45937e-05	4.65469e-06	9.55804	0.0226114	0.0222975	-0.00375455	-5.12918	23.5013	23.4072	2.10105	0.0424191	0.00381802	0.0425905	5.14317	1.92179e+06	2.13515e+07	2.14378e+07	-84.8568	0.0000000E+000	0.0000000E+000	0.0000000E+000	84.8568	0.0000000E+000	0.0000000E+000	0.0000000E+000	-84.8568	0.0000000E+000	0.0000000E+000	0.0000000E+000	-5.14317	0.0000000E+000	0.0000000E+000	0.0000000E+000	5.14317	11.1102	84.8568	-2.37093e-05	-8.62769e-07	1.12606e-10	-8.62881e-07	0.265086	81426.6	10.6276	81437.2
0.0999041	24.5943	3.51332	24.844	-8.12976	79.3645	0.265048	-0.0040882	453440	9068.02	1	12	0.00483543	0.000194632	0	-0.00013035	3.59442e-06	2.82031e-06	13.1277	0.0144905	0.0141118	-0.0032911	-8.11765	24.8575	24.6084	3.51003	0.0398467	0.00569214	0.0402512	8.12976	9.06802e+06	6.34789e+07	6.41233e+07	-81.8702	0.0000000E+000	0.0000000E+000	0.0000000E+000	81.8702	0.0000000E+000	0.0000000E+000	0.0000000E+000	-81.8702	0.0000000E+000	0.0000000E+000	0.0000000E+000	-8.12976	0.0000000E+000	0.0000000E+000	0.0000000E+000	8.12976	7.0003	81.8702	-1.72356e-05	-1.08357e-06	-1.46947e-11	-1.08355e-06	0.265044	64832.4	0.879219	64831.5
0.0315922	26.736	7.09803	27.6622	-14.8682	222.247	0.265049	-0.000600513	709746	46730.9	1	12	0.00483498	0.000174787	0	9.08582e-05	-9.18759e-05	1.78935e-06	-36.7906	0.0102373	0.00819835	0.00613106	-14.8761	27.6717	26.7442	7.10416	0.0349401	0.00927608	0.0361504	14.8682	4.67309e+07	1.76021e+08	1.82118e+08	-75.1318	0.0000000E+000	0.0000000E+000	0.0000000E+000	75.1318	0.0000000E+000	0.0000000E+000	0.0000000E+000	-75.1318	0.0000000E+000	0.0000000E+000	0.0000000E+000	-14.8682	0.0000000E+000	0.0000000E+000	0.0000000E+000	14.8682	3.76669	75.1318	0.000122241	-1.59165e-07	5.51727e-11	-1.59221e-07	0.265141	441371	152.996	441524
0.0100092	30.9444	16.1314	34.8966	-27.5331	673.468	0.265049	0.000170107	985715	210633	1	12	0.00483494	0.00013855	0	-0.000288199	-0.000263722	2.54084e-06	-2.92913	0.0183387	0.0183147	0.000937122	-27.5206	34.9133	30.9627	16.1323	0.0254106	0.0132466	0.0286561	27.5331	2.10633e+08	4.04052e+08	4.55658e+08	-62.4669	0.0000000E+000	0.0000000E+000	0.0000000E+000	62.4669	0.0000000E+000	0.0000000E+000	0.0000000E+000	-62.4669	0.0000000E+000	0.0000000E+000	0.0000000E+000	-27.5331	0.0000000E+000	0.0000000E+000	0.0000000E+000	27.5331	1.91827	62.4669	-0.000359124	4.50868e-08	-4.48611e-11	4.51317e-08	0.265313	1.55813e+06	1550.33	1.55968e+06

File: 19140_R306_UA703_SOC00_C04.mpt
EC-Lab ASCII FILE
Nb header lines : 65

Potentio Electrochemical Impedance Spectroscopy

Run on channel : 4 (SN 66756)
Grouped channel(s) : 1, 2, 3, 4, 5
User :
CE vs. WE compliance from -10 V to 10 V
Electrode connection : standard
Potential control : Ewe
Ewe ctrl range : min = -10.00 V, max = 10.00 V
Safety Limits :
	Do not start on E overload
Acquisition started on : 11/12/2025 11:20:24.450
Loaded Setting File :  C:\Users\Celltest\OneDrive - store-dot.com\Documents\EC-Lab\Data\@Biologic Test Protocols\anode half cell EIS SOC00.mps
Saved on :
	File : 19137_R306_UA703_SOC00_C04.mpr
	Directory : C:\Users\Celltest\OneDrive - store-dot.com\Documents\EC-Lab\Data\Charmaine\
	Host : 169.254.61.224
Device : VMP-3e (SN .003165)
Address : USB
EC-LAB for windows v11.62 (software)
Internet server v27.00 (firmware)
Command interpretor v12.03 (firmware)
Electrode material :
Initial state :
Electrolyte :
Comments :
Electrode surface area : 0.001 cm²
Characteristic mass : 0.001 g
Equivalent Weight : 0.000 g/eq.
Density : 0.000 g/cm3
Volume (V) : 0.001 cm³
Record Ece
Cycle Definition : Charge/Discharge alternance
Mode                Single sine
E (V)               0.0000
vs.                 Eoc
tE (h:m:s)          0:00:0.0000
record              0
dI                  0.000
unit dI             mA
dt (s)              0.000
fi                  100.000
unit fi             kHz
ff                  10.000
unit ff             mHz
Nd                  6
Points              per decade
spacing             Logarithmic
Va (mV)             5.0
pw                  0.10
Na                  2
corr                0
E range min (V)     -10.000
E range max (V)     10.000
I Range             Auto
Bandwidth           5
nc cycles           0
goto Ns'            0
nr cycles           0
inc. cycle          0

freq/Hz	Re(Z)/Ohm	-Im(Z)/Ohm	|Z|/Ohm	Phase(Z)/deg	time/s	<Ewe>/V	<I>/mA	Cs/µF	Cp/µF	cycle number	I Range	|Ewe|/V	|I|/A	Ns	(Q-Qo)/mA.h	<Ece>/V	|Ece|/V	Phase(Zce)/deg	|Zce|/Ohm	Re(Zce)/Ohm	-Im(Zce)/Ohm	Phase(Zwe-ce)/deg	|Zwe-ce|/Ohm	Re(Zwe-ce)/Ohm	-Im(Zwe-ce)/Ohm	Re(Y)/Ohm-1	Im(Y)/Ohm-1	|Y|/Ohm-1	Phase(Y)/deg	Re(C)/nF	Im(C)/nF	|C|/nF	Phase(C)/deg	Re(M)	Im(M)	|M|	Phase(M)/deg	Re(Permittivity)	Im(Permittivity)	|Permittivity|	Phase(Permittivity)/deg	Re(Resistivity)/Ohm.cm	Im(Resistivity)/Ohm.cm	|Resistivity|/Ohm.cm	Phase(Resistivity)/deg	Re(Conductivity)/mS/cm	Im(Conductivity)/mS/cm	|Conductivity|/mS/cm	Phase(Conductivity)/deg	Tan(Delta)	Loss Angle(Delta)/deg	dq/mA.h	Pwe/W	Pce/W	Pwe-ce/W	<Ewe-Ece>/V	Rwe/Ohm	Rce/Ohm	Rwe-ce/Ohm		Ewe-Ece/V
100004	1.20809	0.49528	1.30567	-22.2921	1.91052	0.26543	-0.0279956	3.21331	0.462365	1	9	0.00478891	0.00366777	0	-4.70581e-06	-0.00017163	3.07849e-05	96.4435	0.00839334	-0.000941922	-0.00834032	-21.9682	1.30166	1.20715	0.48694	0.708647	0.290523	0.765888	22.2921	462.365	1127.8	1218.9	-67.7079	0.0000000E+000	0.0000000E+000	0.0000000E+000	67.7079	0.0000000E+000	0.0000000E+000	0.0000000E+000	-67.7079	0.0000000E+000	0.0000000E+000	0.0000000E+000	-22.2921	0.0000000E+000	0.0000000E+000	0.0000000E+000	22.2921	2.43921	67.7079	-4.70581e-06	-7.43086e-06	4.80488e-09	-7.43566e-06	0.265602	9481.14	6.13061	9487.27
31621.1	1.64966	0.646819	1.77194	-21.4097	3.43352	0.265437	-0.0310539	7.78144	1.03688	1	9	0.00521078	0.00294073	0	-2.36845e-05	-0.00024807	1.36105e-05	62.6266	0.00462827	0.00212802	-0.00411004	-21.2609	1.77242	1.65179	0.642709	0.52541	0.206009	0.564354	21.4097	1036.88	2644.48	2840.5	-68.5903	0.0000000E+000	0.0000000E+000	0.0000000E+000	68.5903	0.0000000E+000	0.0000000E+000	0.0000000E+000	-68.5903	0.0000000E+000	0.0000000E+000	0.0000000E+000	-21.4097	0.0000000E+000	0.0000000E+000	0.0000000E+000	21.4097	2.55042	68.5903	-1.41621e-05	-8.24288e-06	7.70354e-09	-8.25058e-06	0.265686	8547.63	7.98835	8555.61
10002.2	2.14569	0.814153	2.29496	-20.7786	4.45855	0.265451	-0.031688	19.5442	2.45968	1	9	0.00498348	0.00217149	0	-3.30683e-05	7.67995e-05	5.39396e-06	4.91489	0.00248399	0.00247486	-0.000212818	-20.7517	2.2972	2.14817	0.81394	0.407397	0.154581	0.435738	20.7786	2459.68	6482.48	6933.44	-69.2215	0.0000000E+000	0.0000000E+000	0.0000000E+000	69.2215	0.0000000E+000	0.0000000E+000	0.0000000E+000	-69.2215	0.0000000E+000	0.0000000E+000	0.0000000E+000	-20.7786	0.0000000E+000	0.0000000E+000	0.0000000E+000	20.7786	2.63549	69.2215	-4.49037e-06	-8.41163e-06	-2.43362e-09	-8.40919e-06	0.265375	8377.03	2.42361	8374.6
3163.08	2.74167	1.14812	2.97236	-22.7223	5.35662	0.26523	-0.085247	43.825	6.53874	1	9	0.00456547	0.00153597	0	-4.78129e-05	-0.00017163	1.2356e-05	-100.542	0.00804441	-0.00147184	0.00790862	-22.8738	2.97407	2.7402	1.15603	0.310321	0.129952	0.336433	22.7223	6538.74	15614.3	16928.1	-67.2777	0.0000000E+000	0.0000000E+000	0.0000000E+000	67.2777	0.0000000E+000	0.0000000E+000	0.0000000E+000	-67.2777	0.0000000E+000	0.0000000E+000	0.0000000E+000	-22.7223	0.0000000E+000	0.0000000E+000	0.0000000E+000	22.7223	2.38796	67.2777	-9.19441e-06	-2.261e-05	1.46309e-08	-2.26247e-05	0.265401	3111.31	2.01333	3113.32
1000.32	3.57117	1.75538	3.97927	-26.1761	6.95677	0.265365	-0.0191418	90.6377	17.6379	1	10	0.0045815	0.00115134	0	-4.6841e-05	-0.00036273	9.38163e-06	3.53799	0.00814844	0.00813291	-0.000502842	-26.1181	3.98635	3.5793	1.75488	0.225529	0.110857	0.251302	26.1761	17637.9	35882.6	39983.2	-63.8239	0.0000000E+000	0.0000000E+000	0.0000000E+000	63.8239	0.0000000E+000	0.0000000E+000	0.0000000E+000	-63.8239	0.0000000E+000	0.0000000E+000	0.0000000E+000	-26.1761	0.0000000E+000	0.0000000E+000	0.0000000E+000	26.1761	2.03441	63.8239	-1.91207e-06	-5.07956e-06	6.94328e-09	-5.0865e-06	0.265728	13863.2	18.9496	13882.1
316.316	4.91911	3.11722	5.82364	-32.3623	8.30709	0.265359	-0.0214806	161.41	46.2465	1	10	0.00450979	0.000774394	0	-5.34251e-05	0.000229679	1.20914e-05	-5.73336	0.0156141	0.0155359	0.00155983	-32.2936	5.8376	4.93465	3.11878	0.145043	0.0919135	0.171714	32.3623	46246.5	72978.9	86398.2	-57.6377	0.0000000E+000	0.0000000E+000	0.0000000E+000	57.6377	0.0000000E+000	0.0000000E+000	0.0000000E+000	-57.6377	0.0000000E+000	0.0000000E+000	0.0000000E+000	-32.3623	0.0000000E+000	0.0000000E+000	0.0000000E+000	32.3623	1.57804	57.6377	-2.04364e-06	-5.70008e-06	-4.93365e-09	-5.69515e-06	0.26513	12353.4	10.6924	12342.7
100.032	8.1324	5.1101	9.60464	-32.1437	9.65377	0.265363	-0.0198468	311.352	88.135	1	10	0.00449711	0.000468222	0	-5.95732e-05	-1.87503e-05	4.24372e-06	-27.8565	0.00906348	0.00801322	0.00423499	-32.1397	9.61368	8.14042	5.11433	0.088157	0.0553946	0.104116	32.1437	88135	140261	165653	-57.8563	0.0000000E+000	0.0000000E+000	0.0000000E+000	57.8563	0.0000000E+000	0.0000000E+000	0.0000000E+000	-57.8563	0.0000000E+000	0.0000000E+000	0.0000000E+000	-32.1437	0.0000000E+000	0.0000000E+000	0.0000000E+000	32.1437	1.59144	57.8563	-2.95682e-06	-5.2666e-06	3.72134e-10	-5.26697e-06	0.265381	13370.6	0.944753	13371.5
[...]
1.00006	21.0314	1.99431	21.1257	-5.41691	19.922	0.265418	-0.00137724	79799.3	711.152	1	12	0.00498923	0.000236168	0	-8.45603e-05	1.94696e-05	3.28038e-06	-24.1514	0.01389	0.0126742	0.0056831	-5.429	21.1389	21.0441	2	0.0471243	0.00446858	0.0473357	5.41691	711152	7.49958e+06	7.53322e+06	-84.5831	0.0000000E+000	0.0000000E+000	0.0000000E+000	84.5831	0.0000000E+000	0.0000000E+000	0.0000000E+000	-84.5831	0.0000000E+000	0.0000000E+000	0.0000000E+000	-5.41691	0.0000000E+000	0.0000000E+000	0.0000000E+000	5.41691	10.5457	84.5831	-4.51279e-06	-3.65543e-07	-2.68142e-11	-3.65516e-07	0.265398	192718	14.1367	192704
0.316193	21.9164	1.96985	22.0047	-5.13596	34.2668	0.265419	-0.00115153	255526	2047.71	1	12	0.0049829	0.000226447	0	-5.29981e-05	9.59094e-05	2.69438e-06	-6.95875	0.0118985	0.0118108	0.00144156	-5.13694	22.0166	21.9282	1.97129	0.0452623	0.00406819	0.0454448	5.13596	2.04771e+06	2.27827e+07	2.28745e+07	-84.864	0.0000000E+000	0.0000000E+000	0.0000000E+000	84.864	0.0000000E+000	0.0000000E+000	0.0000000E+000	-84.864	0.0000000E+000	0.0000000E+000	0.0000000E+000	-5.13596	0.0000000E+000	0.0000000E+000	0.0000000E+000	5.13596	11.1259	84.864	1.61584e-05	-3.05638e-07	-1.10443e-10	-3.05527e-07	0.265323	230493	83.2887	230409
0.0999041	23.0161	3.41893	23.2686	-8.44924	79.4739	0.265415	0.00122105	465958	10059.7	1	12	0.00498805	0.000214368	0	-9.09759e-05	-0.00019074	3.2029e-06	3.82445	0.0149411	0.0149078	-0.000996567	-8.44142	23.2832	23.031	3.41794	0.0425099	0.00631464	0.0429763	8.44924	1.00597e+07	6.77215e+07	6.84646e+07	-81.5508	0.0000000E+000	0.0000000E+000	0.0000000E+000	81.5508	0.0000000E+000	0.0000000E+000	0.0000000E+000	-81.5508	0.0000000E+000	0.0000000E+000	0.0000000E+000	-8.44924	0.0000000E+000	0.0000000E+000	0.0000000E+000	8.44924	6.73195	81.5508	-4.1906e-05	3.24084e-07	-2.32902e-10	3.24317e-07	0.265606	217367	156.21	217524
0.0315922	25.3053	7.03058	26.2638	-15.5269	222.357	0.265417	-0.00151776	716554	51347.2	1	12	0.00498636	0.000189857	0	-0.000331667	-0.00020985	3.10105e-06	27.9026	0.0163336	0.0144348	-0.00764366	-15.5024	26.2756	25.3197	7.02294	0.0366857	0.0101924	0.0380753	15.5269	5.13472e+07	1.84815e+08	1.91815e+08	-74.4731	0.0000000E+000	0.0000000E+000	0.0000000E+000	74.4731	0.0000000E+000	0.0000000E+000	0.0000000E+000	-74.4731	0.0000000E+000	0.0000000E+000	0.0000000E+000	-15.5269	0.0000000E+000	0.0000000E+000	0.0000000E+000	15.5269	3.59931	74.4731	-6.19915e-05	-4.02838e-07	3.18501e-10	-4.03157e-07	0.265627	174874	138.263	175013
0.0100092	29.428	15.4886	33.2551	-27.7588	673.579	0.265411	-8.15007e-05	1.02662e+06	222698	1	12	0.00498472	0.000149893	0	0.000432382	0.000172349	3.37622e-06	-0.0969938	0.0225241	0.0225241	3.81302e-05	-27.7408	33.2751	29.4505	15.4886	0.0266099	0.0140054	0.0300705	27.7588	2.22698e+08	4.23122e+08	4.78149e+08	-62.2412	0.0000000E+000	0.0000000E+000	0.0000000E+000	62.2412	0.0000000E+000	0.0000000E+000	0.0000000E+000	-62.2412	0.0000000E+000	0.0000000E+000	0.0000000E+000	-27.7588	0.0000000E+000	0.0000000E+000	0.0000000E+000	27.7588	1.89998	62.2412	0.000405128	-2.16312e-08	-1.40466e-11	-2.16172e-08	0.265239	3.25656e+06	2114.7	3.25444e+06