Folder: EIS/txt (part 130)

File: 18815_R307_UA701_3p24_SOC00_C02.mpt
EC-Lab ASCII FILE
Nb header lines : 65

Potentio Electrochemical Impedance Spectroscopy

Run on channel : 2 (SN 66139)
User :
CE vs. WE compliance from -10 V to 10 V
Electrode connection : standard
Potential control : Ewe
Ewe ctrl range : min = -10.00 V, max = 10.00 V
Safety Limits :
	Do not start on E overload
Acquisition started on : 11/03/2025 16:08:33.268
Technique started on : 11/03/2025 16:08:34.994
Loaded Setting File :  C:\Users\Celltest\OneDrive - store-dot.com\Documents\EC-Lab\Data\@Biologic Test Protocols\anode half cell EIS SOC00.mps
Saved on :
	File : 18815_R307_UA701_3p24_SOC00_C02.mpr
	Directory : C:\Users\Celltest\OneDrive - store-dot.com\Documents\EC-Lab\Data\Anna\
	Host : 169.254.61.224
Device : VMP-3e (SN .003165)
Address : USB
EC-LAB for windows v11.62 (software)
Internet server v27.00 (firmware)
Command interpretor v12.03 (firmware)
Electrode material :
Initial state :
Electrolyte :
Comments :
Electrode surface area : 0.001 cm²
Characteristic mass : 0.001 g
Equivalent Weight : 0.000 g/eq.
Density : 0.000 g/cm3
Volume (V) : 0.001 cm³
Record Ece
Cycle Definition : Charge/Discharge alternance
Mode                Single sine
E (V)               0.0000
vs.                 Eoc
tE (h:m:s)          0:00:0.0000
record              0
dI                  0.000
unit dI             mA
dt (s)              0.000
fi                  100.000
unit fi             kHz
ff                  10.000
unit ff             mHz
Nd                  6
Points              per decade
spacing             Logarithmic
Va (mV)             5.0
pw                  0.10
Na                  2
corr                0
E range min (V)     -10.000
E range max (V)     10.000
I Range             Auto
Bandwidth           5
nc cycles           0
goto Ns'            0
nr cycles           0
inc. cycle          0

freq/Hz	Re(Z)/Ohm	-Im(Z)/Ohm	|Z|/Ohm	Phase(Z)/deg	time/s	<Ewe>/V	<I>/mA	Cs/µF	Cp/µF	cycle number	I Range	|Ewe|/V	|I|/A	Ns	(Q-Qo)/mA.h	<Ece>/V	|Ece|/V	Phase(Zce)/deg	|Zce|/Ohm	Re(Zce)/Ohm	-Im(Zce)/Ohm	Phase(Zwe-ce)/deg	|Zwe-ce|/Ohm	Re(Zwe-ce)/Ohm	-Im(Zwe-ce)/Ohm	Re(Y)/Ohm-1	Im(Y)/Ohm-1	|Y|/Ohm-1	Phase(Y)/deg	Re(C)/nF	Im(C)/nF	|C|/nF	Phase(C)/deg	Re(M)	Im(M)	|M|	Phase(M)/deg	Re(Permittivity)	Im(Permittivity)	|Permittivity|	Phase(Permittivity)/deg	Re(Resistivity)/Ohm.cm	Im(Resistivity)/Ohm.cm	|Resistivity|/Ohm.cm	Phase(Resistivity)/deg	Re(Conductivity)/mS/cm	Im(Conductivity)/mS/cm	|Conductivity|/mS/cm	Phase(Conductivity)/deg	Tan(Delta)	Loss Angle(Delta)/deg	dq/mA.h	Pwe/W	Pce/W	Pwe-ce/W	<Ewe-Ece>/V	Rwe/Ohm	Rce/Ohm	Rwe-ce/Ohm		Ewe-Ece/V
100004	1.12336	0.443758	1.20783	-21.5554	1.72553	0.242864	0.0100959	3.5864	0.484103	1	9	0.0045979	0.00380674	0	-5.77773e-06	-0.000266929	2.20585e-05	96.8595	0.00579459	-0.000692082	-0.00575312	-21.3131	1.20508	1.12267	0.438004	0.770028	0.304182	0.827931	21.5554	484.103	1225.49	1317.64	-68.4446	0.0000000E+000	0.0000000E+000	0.0000000E+000	68.4446	0.0000000E+000	0.0000000E+000	0.0000000E+000	-68.4446	0.0000000E+000	0.0000000E+000	0.0000000E+000	-21.5554	0.0000000E+000	0.0000000E+000	0.0000000E+000	21.5554	2.53147	68.4446	-5.77773e-06	2.45194e-06	-2.6949e-09	2.45464e-06	0.243131	24055.6	26.4393	24082
31621.1	1.52595	0.618651	1.64658	-22.0687	3.24853	0.242848	0.00652033	8.13574	1.14847	1	9	0.00505555	0.00307033	0	-2.15468e-05	5.7615e-05	9.633e-06	-9.10124	0.00313745	0.00309795	0.00049628	-22.0442	1.64964	1.52904	0.619147	0.562822	0.22818	0.607318	22.0687	1148.47	2832.79	3056.74	-67.9313	0.0000000E+000	0.0000000E+000	0.0000000E+000	67.9313	0.0000000E+000	0.0000000E+000	0.0000000E+000	-67.9313	0.0000000E+000	0.0000000E+000	0.0000000E+000	-22.0687	0.0000000E+000	0.0000000E+000	0.0000000E+000	22.0687	2.46657	67.9313	-6.17823e-06	1.58345e-06	3.75669e-10	1.58307e-06	0.24279	37244.6	8.83621	37235.8
10002.2	1.99766	0.821627	2.16003	-22.3571	4.27354	0.242838	0.00156662	19.3664	2.80207	1	9	0.00540559	0.00250256	0	-2.38863e-05	3.42479e-07	9.54304e-06	-75.6766	0.00381332	0.000943398	0.00369478	-22.4381	2.16231	1.99861	0.825322	0.428157	0.176098	0.462957	22.3571	2802.07	6812.81	7366.55	-67.6429	0.0000000E+000	0.0000000E+000	0.0000000E+000	67.6429	0.0000000E+000	0.0000000E+000	0.0000000E+000	-67.6429	0.0000000E+000	0.0000000E+000	0.0000000E+000	-22.3571	0.0000000E+000	0.0000000E+000	0.0000000E+000	22.3571	2.43135	67.6429	2.51041e-06	3.80435e-07	5.36534e-13	3.80434e-07	0.242838	155008	0.218611	155008
3163.08	2.60277	1.18467	2.85969	-24.473	5.17366	0.24269	-0.0392549	42.4729	7.28902	1	9	0.00511085	0.0017872	0	-2.5442e-05	0.000305796	8.05037e-06	-21.4995	0.00450445	0.00419103	0.00165085	-24.4684	2.86419	2.60696	1.18632	0.318271	0.144864	0.349688	24.473	7289.02	16014.3	17595.1	-65.527	0.0000000E+000	0.0000000E+000	0.0000000E+000	65.527	0.0000000E+000	0.0000000E+000	0.0000000E+000	-65.527	0.0000000E+000	0.0000000E+000	0.0000000E+000	-24.473	0.0000000E+000	0.0000000E+000	0.0000000E+000	24.473	2.19704	65.527	-3.07141e-06	-9.52678e-06	-1.2004e-08	-9.51478e-06	0.242384	6182.41	7.79	6174.62
1000.32	3.3994	1.91417	3.90128	-29.3834	6.77079	0.242762	-0.0248134	83.1191	20.01	1	10	0.0050707	0.00129975	0	-3.0567e-05	0.000248523	9.19994e-06	-52.5529	0.00707822	0.00430375	0.00561951	-29.4243	3.90779	3.4037	1.91979	0.223351	0.125767	0.256326	29.3834	20010	35536.1	40782.5	-60.6166	0.0000000E+000	0.0000000E+000	0.0000000E+000	60.6166	0.0000000E+000	0.0000000E+000	0.0000000E+000	-60.6166	0.0000000E+000	0.0000000E+000	0.0000000E+000	-29.3834	0.0000000E+000	0.0000000E+000	0.0000000E+000	29.3834	1.77592	60.6166	-2.17719e-06	-6.02377e-06	-6.16672e-09	-6.0176e-06	0.242514	9783.52	10.0157	9773.5
316.316	4.90189	3.6712	6.12423	-36.8308	8.12005	0.242763	-0.0254318	137.054	49.2497	1	10	0.00495928	0.00080978	0	-4.02006e-05	0.000343978	6.35076e-06	-66.7646	0.00784257	0.00309397	0.00720647	-36.8674	6.13103	4.90498	3.6784	0.130695	0.0978824	0.163286	36.8308	49249.7	65759.6	82157.6	-53.1692	0.0000000E+000	0.0000000E+000	0.0000000E+000	53.1692	0.0000000E+000	0.0000000E+000	0.0000000E+000	-53.1692	0.0000000E+000	0.0000000E+000	0.0000000E+000	-36.8308	0.0000000E+000	0.0000000E+000	0.0000000E+000	36.8308	1.33523	53.1692	-2.60392e-06	-6.1739e-06	-8.74798e-09	-6.16515e-06	0.242419	9545.63	13.5255	9532.11
100.032	8.82583	6.08952	10.7228	-34.6043	9.46783	0.242764	-0.0239045	261.275	84.2658	1	10	0.00491853	0.0004587	0	-4.84222e-05	0.000324887	1.0692e-05	11.4342	0.0233094	0.0228468	-0.00462093	-34.5148	10.7389	8.84867	6.0849	0.0767614	0.0529627	0.0932596	34.6043	84265.8	122130	148380	-55.3957	0.0000000E+000	0.0000000E+000	0.0000000E+000	55.3957	0.0000000E+000	0.0000000E+000	0.0000000E+000	-55.3957	0.0000000E+000	0.0000000E+000	0.0000000E+000	-34.6043	0.0000000E+000	0.0000000E+000	0.0000000E+000	34.6043	1.44935	55.3957	-3.14537e-06	-5.80314e-06	-7.76625e-09	-5.79537e-06	0.242439	10155.6	13.591	10142
[...]
1.00006	22.8115	2.23215	22.9205	-5.5887	19.5167	0.242799	-0.00975819	71296.7	676.19	1	12	0.00491122	0.000214273	0	-8.40695e-05	0.000248523	4.85787e-06	34.104	0.0226714	0.0187724	-0.0127118	-5.55253	22.9379	22.8303	2.21943	0.0434218	0.0042489	0.0436292	5.5887	676189	6.91035e+06	6.94335e+06	-84.4113	0.0000000E+000	0.0000000E+000	0.0000000E+000	84.4113	0.0000000E+000	0.0000000E+000	0.0000000E+000	-84.4113	0.0000000E+000	0.0000000E+000	0.0000000E+000	-5.5887	0.0000000E+000	0.0000000E+000	0.0000000E+000	5.5887	10.2195	84.4113	-4.25348e-06	-2.36928e-06	-2.42514e-09	-2.36685e-06	0.24255	24881.5	25.4682	24856.1
0.316193	23.9603	2.13806	24.0555	-5.09919	33.8598	0.242792	-0.00616183	235423	1859.77	1	12	0.00491221	0.000204203	0	-9.38149e-05	0.000153069	2.36134e-06	4.2231	0.0115637	0.0115323	-0.000851552	-5.09473	24.0669	23.9718	2.1372	0.0414061	0.00369481	0.0415706	5.09919	1.85977e+06	2.08416e+07	2.09244e+07	-84.9008	0.0000000E+000	0.0000000E+000	0.0000000E+000	84.9008	0.0000000E+000	0.0000000E+000	0.0000000E+000	-84.9008	0.0000000E+000	0.0000000E+000	0.0000000E+000	-5.09919	0.0000000E+000	0.0000000E+000	0.0000000E+000	5.09919	11.2066	84.9008	-1.03404e-05	-1.49604e-06	-9.43186e-10	-1.4951e-06	0.242639	39402.6	24.8415	39377.8
0.0999041	25.113	3.44941	25.3488	-7.82096	79.0688	0.242787	-0.00435313	461841	8551.99	1	12	0.00491031	0.00019371	0	-0.000252286	5.7615e-05	1.4183e-06	-1.97911	0.00732175	0.00731738	0.000252858	-7.81927	25.3561	25.1203	3.44966	0.0390827	0.00536822	0.0394496	7.82096	8.55199e+06	6.22617e+07	6.28463e+07	-82.179	0.0000000E+000	0.0000000E+000	0.0000000E+000	82.179	0.0000000E+000	0.0000000E+000	0.0000000E+000	-82.179	0.0000000E+000	0.0000000E+000	0.0000000E+000	-7.82096	0.0000000E+000	0.0000000E+000	0.0000000E+000	7.82096	7.28037	82.179	-7.62099e-05	-1.05688e-06	-2.50806e-10	-1.05663e-06	0.242729	55772.9	13.2353	55759.7
0.0315922	27.3528	7.66006	28.4052	-15.6447	221.952	0.242779	-0.00392209	657670	47827.5	1	12	0.00491113	0.000172896	0	-0.00034012	9.57967e-05	2.45473e-06	-29.4955	0.0141978	0.0123577	0.00699034	-15.6516	28.4189	27.3652	7.66705	0.0339006	0.00949375	0.0352049	15.6447	4.78275e+07	1.70784e+08	1.77355e+08	-74.3553	0.0000000E+000	0.0000000E+000	0.0000000E+000	74.3553	0.0000000E+000	0.0000000E+000	0.0000000E+000	-74.3553	0.0000000E+000	0.0000000E+000	0.0000000E+000	-15.6447	0.0000000E+000	0.0000000E+000	0.0000000E+000	15.6447	3.57084	74.3553	4.07169e-05	-9.52201e-07	-3.75723e-10	-9.51825e-07	0.242683	61900.5	24.4249	61876.1
0.0100092	32.8164	17.2619	37.0794	-27.745	673.175	0.242776	-0.0017784	921159	199638	1	12	0.00491073	0.000132438	0	-0.000100543	0.00017216	1.22714e-06	85.8822	0.00926573	0.000665347	-0.00924181	-27.7319	37.0757	32.817	17.2526	0.0238684	0.0125551	0.0269691	27.745	1.99638e+08	3.7953e+08	4.28834e+08	-62.255	0.0000000E+000	0.0000000E+000	0.0000000E+000	62.255	0.0000000E+000	0.0000000E+000	0.0000000E+000	-62.255	0.0000000E+000	0.0000000E+000	0.0000000E+000	-27.745	0.0000000E+000	0.0000000E+000	0.0000000E+000	27.745	1.90109	62.255	-4.50477e-05	-4.31753e-07	-3.0617e-10	-4.31447e-07	0.242604	136513	96.806	136417

File: 18816_R307_UA701_3p24_SOC00_C03.mpt
EC-Lab ASCII FILE
Nb header lines : 65

Potentio Electrochemical Impedance Spectroscopy

Run on channel : 3 (SN 65921)
User :
CE vs. WE compliance from -10 V to 10 V
Electrode connection : standard
Potential control : Ewe
Ewe ctrl range : min = -10.00 V, max = 10.00 V
Safety Limits :
	Do not start on E overload
Acquisition started on : 11/03/2025 16:08:41.593
Technique started on : 11/03/2025 16:08:43.462
Loaded Setting File :  C:\Users\Celltest\OneDrive - store-dot.com\Documents\EC-Lab\Data\@Biologic Test Protocols\anode half cell EIS SOC00.mps
Saved on :
	File : 18816_R307_UA701_3p24_SOC00_C03.mpr
	Directory : C:\Users\Celltest\OneDrive - store-dot.com\Documents\EC-Lab\Data\Anna\
	Host : 169.254.61.224
Device : VMP-3e (SN .003165)
Address : USB
EC-LAB for windows v11.62 (software)
Internet server v27.00 (firmware)
Command interpretor v12.03 (firmware)
Electrode material :
Initial state :
Electrolyte :
Comments :
Electrode surface area : 0.001 cm²
Characteristic mass : 0.001 g
Equivalent Weight : 0.000 g/eq.
Density : 0.000 g/cm3
Volume (V) : 0.001 cm³
Record Ece
Cycle Definition : Charge/Discharge alternance
Mode                Single sine
E (V)               0.0000
vs.                 Eoc
tE (h:m:s)          0:00:0.0000
record              0
dI                  0.000
unit dI             mA
dt (s)              0.000
fi                  100.000
unit fi             kHz
ff                  10.000
unit ff             mHz
Nd                  6
Points              per decade
spacing             Logarithmic
Va (mV)             5.0
pw                  0.10
Na                  2
corr                0
E range min (V)     -10.000
E range max (V)     10.000
I Range             Auto
Bandwidth           5
nc cycles           0
goto Ns'            0
nr cycles           0
inc. cycle          0

freq/Hz	Re(Z)/Ohm	-Im(Z)/Ohm	|Z|/Ohm	Phase(Z)/deg	time/s	<Ewe>/V	<I>/mA	Cs/µF	Cp/µF	cycle number	I Range	|Ewe|/V	|I|/A	Ns	(Q-Qo)/mA.h	<Ece>/V	|Ece|/V	Phase(Zce)/deg	|Zce|/Ohm	Re(Zce)/Ohm	-Im(Zce)/Ohm	Phase(Zwe-ce)/deg	|Zwe-ce|/Ohm	Re(Zwe-ce)/Ohm	-Im(Zwe-ce)/Ohm	Re(Y)/Ohm-1	Im(Y)/Ohm-1	|Y|/Ohm-1	Phase(Y)/deg	Re(C)/nF	Im(C)/nF	|C|/nF	Phase(C)/deg	Re(M)	Im(M)	|M|	Phase(M)/deg	Re(Permittivity)	Im(Permittivity)	|Permittivity|	Phase(Permittivity)/deg	Re(Resistivity)/Ohm.cm	Im(Resistivity)/Ohm.cm	|Resistivity|/Ohm.cm	Phase(Resistivity)/deg	Re(Conductivity)/mS/cm	Im(Conductivity)/mS/cm	|Conductivity|/mS/cm	Phase(Conductivity)/deg	Tan(Delta)	Loss Angle(Delta)/deg	dq/mA.h	Pwe/W	Pce/W	Pwe-ce/W	<Ewe-Ece>/V	Rwe/Ohm	Rce/Ohm	Rwe-ce/Ohm		Ewe-Ece/V
100004	1.19788	0.455366	1.28151	-20.814	1.86854	0.248206	0.0346766	3.49497	0.441284	1	9	0.00495475	0.00386633	0	-4.63763e-06	-4.23269e-05	4.71284e-05	71.0956	0.0121894	0.00394925	-0.0115319	-20.2691	1.28117	1.20183	0.443834	0.729402	0.277277	0.780327	20.814	441.284	1160.84	1241.88	-69.186	0.0000000E+000	0.0000000E+000	0.0000000E+000	69.186	0.0000000E+000	0.0000000E+000	0.0000000E+000	-69.186	0.0000000E+000	0.0000000E+000	0.0000000E+000	-20.814	0.0000000E+000	0.0000000E+000	0.0000000E+000	20.814	2.63059	69.186	-4.63763e-06	8.60693e-06	-1.46776e-09	8.6084e-06	0.248248	7157.73	1.22062	7158.95
31621.1	1.5827	0.604069	1.69406	-20.8903	3.14556	0.248185	0.0271433	8.33214	1.05942	1	9	0.005489	0.00324014	0	-2.84443e-06	-4.23269e-05	1.19104e-05	32.1758	0.00367587	0.00311133	-0.00195747	-20.7911	1.69627	1.58581	0.602111	0.551494	0.210488	0.590297	20.8903	1059.42	2775.77	2971.07	-69.1097	0.0000000E+000	0.0000000E+000	0.0000000E+000	69.1097	0.0000000E+000	0.0000000E+000	0.0000000E+000	-69.1097	0.0000000E+000	0.0000000E+000	0.0000000E+000	-20.8903	0.0000000E+000	0.0000000E+000	0.0000000E+000	20.8903	2.62007	69.1097	-6.00579e-06	6.73657e-06	-1.14889e-09	6.73772e-06	0.248228	9143.5	1.55939	9145.06
10002.2	2.0463	0.803379	2.19835	-21.435	4.29452	0.248195	0.0318423	19.8063	2.64515	1	9	0.00512901	0.00233312	0	4.9768e-06	-9.96091e-05	4.89998e-06	12.6124	0.00210019	0.00204951	-0.000458584	-21.4044	2.20009	2.04835	0.802921	0.423423	0.166236	0.454886	21.435	2645.15	6737.48	7238.13	-68.565	0.0000000E+000	0.0000000E+000	0.0000000E+000	68.565	0.0000000E+000	0.0000000E+000	0.0000000E+000	-68.565	0.0000000E+000	0.0000000E+000	0.0000000E+000	-21.435	0.0000000E+000	0.0000000E+000	0.0000000E+000	21.435	2.54711	68.565	3.623e-06	7.9031e-06	-3.17178e-09	7.90627e-06	0.248294	7794.5	3.1282	7797.63
3163.08	2.64211	1.16131	2.88606	-23.7273	5.19268	0.248049	-0.0195483	43.3275	7.01528	1	9	0.00521339	0.0018064	0	8.52017e-06	-0.000366926	8.03193e-06	72.3081	0.00444637	0.00135125	-0.00423608	-23.6395	2.8856	2.64346	1.15707	0.317204	0.139423	0.346493	23.7273	7015.27	15960.6	17434.3	-66.2727	0.0000000E+000	0.0000000E+000	0.0000000E+000	66.2727	0.0000000E+000	0.0000000E+000	0.0000000E+000	-66.2727	0.0000000E+000	0.0000000E+000	0.0000000E+000	-23.7273	0.0000000E+000	0.0000000E+000	0.0000000E+000	23.7273	2.27512	66.2727	-1.34459e-06	-4.84893e-06	7.17277e-09	-4.8561e-06	0.248416	12689.1	18.7703	12707.8
1000.32	3.45141	1.8669	3.92397	-28.4093	6.79085	0.248132	-0.0182833	85.2238	19.2908	1	10	0.00513533	0.00130871	0	7.00739e-06	-6.1421e-05	5.01321e-06	38.6893	0.00383065	0.00299001	-0.00239453	-28.3578	3.92546	3.4544	1.8645	0.224153	0.121247	0.254844	28.4093	19290.8	35663.7	40546.7	-61.5907	0.0000000E+000	0.0000000E+000	0.0000000E+000	61.5907	0.0000000E+000	0.0000000E+000	0.0000000E+000	-61.5907	0.0000000E+000	0.0000000E+000	0.0000000E+000	-28.4093	0.0000000E+000	0.0000000E+000	0.0000000E+000	28.4093	1.84874	61.5907	-3.18065e-06	-4.53668e-06	1.12298e-09	-4.5378e-06	0.248194	13571.5	3.3594	13574.9
316.316	5.00036	3.42283	6.05965	-34.3923	8.14106	0.248129	-0.0178247	146.999	46.9018	1	10	0.00501673	0.000827891	0	1.55191e-06	3.40493e-05	1.46834e-05	-22.2618	0.0177359	0.0164139	0.00671906	-34.3572	6.07699	5.01677	3.42955	0.136178	0.093216	0.165026	34.3923	46901.8	68518.1	83033.2	-55.6077	0.0000000E+000	0.0000000E+000	0.0000000E+000	55.6077	0.0000000E+000	0.0000000E+000	0.0000000E+000	-55.6077	0.0000000E+000	0.0000000E+000	0.0000000E+000	-34.3923	0.0000000E+000	0.0000000E+000	0.0000000E+000	34.3923	1.46088	55.6077	-1.58818e-06	-4.42282e-06	-6.06918e-10	-4.42222e-06	0.248095	13920.5	1.91023	13918.6
100.032	8.62032	5.33609	10.1382	-31.7581	9.48885	0.248117	-0.0174406	298.166	82.5999	1	10	0.00498032	0.000491241	0	-5.1747e-06	1.49552e-05	1.53662e-05	85.8072	0.0312803	0.00228698	-0.0311966	-31.6011	10.1238	8.62261	5.3049	0.0838685	0.0519157	0.0986365	31.7581	82599.9	133438	156935	-58.242	0.0000000E+000	0.0000000E+000	0.0000000E+000	58.242	0.0000000E+000	0.0000000E+000	0.0000000E+000	-58.242	0.0000000E+000	0.0000000E+000	0.0000000E+000	-31.7581	0.0000000E+000	0.0000000E+000	0.0000000E+000	31.7581	1.61547	58.242	-1.43029e-06	-4.32732e-06	-2.60829e-10	-4.32706e-06	0.248102	14226.4	0.857495	14225.6
[...]
1.00006	20.3944	1.82917	20.4763	-5.12512	19.5379	0.248147	-0.00943074	87003.9	694.294	1	12	0.00497515	0.000242971	0	-2.4937e-05	-4.13882e-06	3.36865e-06	90.5973	0.0138644	-0.000144527	-0.0138637	-5.08652	20.4749	20.3943	1.8153	0.0486417	0.00436266	0.048837	5.12512	694294	7.74108e+06	7.77215e+06	-84.8749	0.0000000E+000	0.0000000E+000	0.0000000E+000	84.8749	0.0000000E+000	0.0000000E+000	0.0000000E+000	-84.8749	0.0000000E+000	0.0000000E+000	0.0000000E+000	-5.12512	0.0000000E+000	0.0000000E+000	0.0000000E+000	5.12512	11.1496	84.8749	-2.20235e-06	-2.34021e-06	3.90321e-11	-2.34025e-06	0.248152	26312.6	0.438865	26313.1
0.316193	21.2637	1.91807	21.35	-5.15436	33.8809	0.248147	-0.00631845	262424	2118.05	1	12	0.00497211	0.000232885	0	-8.6643e-05	0.000282272	1.59089e-06	-29.7712	0.00683122	0.0059296	0.00339195	-5.162	21.3562	21.2696	1.92146	0.046649	0.00420793	0.0468384	5.15436	2.11805e+06	2.34806e+07	2.3576e+07	-84.8456	0.0000000E+000	0.0000000E+000	0.0000000E+000	84.8456	0.0000000E+000	0.0000000E+000	0.0000000E+000	-84.8456	0.0000000E+000	0.0000000E+000	0.0000000E+000	-5.15436	0.0000000E+000	0.0000000E+000	0.0000000E+000	5.15436	11.086	84.8456	-3.31032e-05	-1.56791e-06	-1.78352e-09	-1.56612e-06	0.247865	39273.4	44.6742	39228.7
0.0999041	22.4448	3.52008	22.7192	-8.91326	79.0888	0.248148	-0.00644512	452568	10864.4	1	12	0.00497251	0.000218868	0	-0.000167763	-8.05151e-05	3.54494e-06	9.58495	0.0161967	0.0159705	-0.0026969	-8.90031	22.7345	22.4608	3.51738	0.0434842	0.00681975	0.0440157	8.91326	1.08644e+07	6.92737e+07	7.01205e+07	-81.0867	0.0000000E+000	0.0000000E+000	0.0000000E+000	81.0867	0.0000000E+000	0.0000000E+000	0.0000000E+000	-81.0867	0.0000000E+000	0.0000000E+000	0.0000000E+000	-8.91326	0.0000000E+000	0.0000000E+000	0.0000000E+000	8.91326	6.37621	81.0867	-7.14543e-06	-1.59934e-06	5.1893e-10	-1.59986e-06	0.248228	38501.6	12.4924	38514.1
0.0315922	24.9448	7.47958	26.042	-16.6911	221.971	0.248143	-0.00201787	673540	55560.8	1	12	0.00497048	0.000190864	0	-6.03049e-06	-4.23269e-05	1.56473e-06	-7.44741	0.00819815	0.00812899	0.00106261	-16.6882	26.0501	24.9529	7.48064	0.0367816	0.0110288	0.0383995	16.6911	5.55608e+07	1.85298e+08	1.93449e+08	-73.3089	0.0000000E+000	0.0000000E+000	0.0000000E+000	73.3089	0.0000000E+000	0.0000000E+000	0.0000000E+000	-73.3089	0.0000000E+000	0.0000000E+000	0.0000000E+000	-16.6911	0.0000000E+000	0.0000000E+000	0.0000000E+000	16.6911	3.33505	73.3089	6.06872e-05	-5.00719e-07	8.54102e-11	-5.00804e-07	0.248185	122973	20.9761	122994
0.0100092	29.7846	16.7345	34.1638	-29.3295	673.191	0.248148	-0.00221377	950189	227983	1	12	0.00497068	0.000145496	0	-0.000936406	0.00012952	1.64879e-06	-34.2905	0.0113322	0.00936257	0.00638443	-29.3311	34.1751	29.7939	16.7409	0.0255188	0.0143377	0.0292708	29.3295	2.27983e+08	4.05772e+08	4.65432e+08	-60.6705	0.0000000E+000	0.0000000E+000	0.0000000E+000	60.6705	0.0000000E+000	0.0000000E+000	0.0000000E+000	-60.6705	0.0000000E+000	0.0000000E+000	0.0000000E+000	-29.3295	0.0000000E+000	0.0000000E+000	0.0000000E+000	29.3295	1.77983	60.6705	-0.000553814	-5.49343e-07	-2.86727e-10	-5.49056e-07	0.248019	112093	58.5063	112034