Folder: EIS/txt (part 35)

File: 17488_R279_UA654_SOC00_C06.mpt
EC-Lab ASCII FILE
Nb header lines : 63

Potentio Electrochemical Impedance Spectroscopy

Run on channel : 6 (SN 65795)
User :
CE vs. WE compliance from -10 V to 10 V
Electrode connection : standard
Potential control : Ewe
Ewe ctrl range : min = -10.00 V, max = 10.00 V
Safety Limits :
	Do not start on E overload
Acquisition started on : 09/15/2025 08:59:57.177
Loaded Setting File :  C:\Users\Celltest\OneDrive - store-dot.com\Documents\EC-Lab\Data\Charmaine\R279\17383.mps
Saved on :
	File : 17488_C06.mpr
	Directory : C:\Users\Celltest\OneDrive - store-dot.com\Documents\EC-Lab\Data\Charmaine\R279\
	Host : 169.254.61.224
Device : VMP-3e (SN .003165)
Address : USB
EC-LAB for windows v11.62 (software)
Internet server v27.00 (firmware)
Command interpretor v12.03 (firmware)
Electrode material :
Initial state :
Electrolyte :
Comments :
Electrode surface area : 0.001 cm²
Characteristic mass : 0.001 g
Equivalent Weight : 0.000 g/eq.
Density : 0.000 g/cm3
Volume (V) : 0.001 cm³
Cycle Definition : Charge/Discharge alternance
Mode                Single sine
E (V)               0.0000
vs.                 Eoc
tE (h:m:s)          0:00:0.0000
record              0
dI                  0.000
unit dI             mA
dt (s)              0.000
fi                  100.000
unit fi             kHz
ff                  10.000
unit ff             mHz
Nd                  6
Points              per decade
spacing             Logarithmic
Va (mV)             5.0
pw                  0.10
Na                  2
corr                0
E range min (V)     -10.000
E range max (V)     10.000
I Range             Auto
Bandwidth           5
nc cycles           0
goto Ns'            0
nr cycles           0
inc. cycle          0

freq/Hz	Re(Z)/Ohm	-Im(Z)/Ohm	|Z|/Ohm	Phase(Z)/deg	time/s	<Ewe>/V	<I>/mA	Cs/µF	Cp/µF	cycle number	I Range	|Ewe|/V	|I|/A	Ns	(Q-Qo)/mA.h	Re(Y)/Ohm-1	Im(Y)/Ohm-1	|Y|/Ohm-1	Phase(Y)/deg	Re(C)/nF	Im(C)/nF	|C|/nF	Phase(C)/deg	Re(M)	Im(M)	|M|	Phase(M)/deg	Re(Permittivity)	Im(Permittivity)	|Permittivity|	Phase(Permittivity)/deg	Re(Resistivity)/Ohm.cm	Im(Resistivity)/Ohm.cm	|Resistivity|/Ohm.cm	Phase(Resistivity)/deg	Re(Conductivity)/mS/cm	Im(Conductivity)/mS/cm	|Conductivity|/mS/cm	Phase(Conductivity)/deg	Tan(Delta)	Loss Angle(Delta)/deg	dq/mA.h	Pwe/W	Rwe/Ohm
100004	1.398	0.140994	1.40509	-5.75905	1.9185	0.276784	0.0576747	11.2876	0.113657	1	9	0.00384549	0.00273682	0	3.78934e-06	0.708104	0.0714153	0.711696	5.75905	113.657	1126.94	1132.66	-84.241	0.0000000E+000	0.0000000E+000	0.0000000E+000	84.241	0.0000000E+000	0.0000000E+000	0.0000000E+000	-84.241	0.0000000E+000	0.0000000E+000	0.0000000E+000	-5.75905	0.0000000E+000	0.0000000E+000	0.0000000E+000	5.75905	9.9153	84.241	3.78934e-06	1.59634e-05	4799.05
46420.4	1.45457	0.315382	1.48836	-12.2336	3.0745	0.2767	0.0263475	10.8711	0.488124	1	9	0.00511922	0.00343949	0	-1.72476e-05	0.656621	0.14237	0.671878	12.2336	488.124	2251.26	2303.57	-77.7664	0.0000000E+000	0.0000000E+000	0.0000000E+000	77.7664	0.0000000E+000	0.0000000E+000	0.0000000E+000	-77.7664	0.0000000E+000	0.0000000E+000	0.0000000E+000	-12.2336	0.0000000E+000	0.0000000E+000	0.0000000E+000	12.2336	4.61208	77.7664	-3.16434e-05	7.29035e-06	10501.9
21544.7	1.61397	0.411223	1.66554	-14.2942	3.94849	0.276692	0.0218962	17.964	1.09508	1	9	0.00531666	0.00319216	0	-6.57001e-06	0.581818	0.148241	0.600406	14.2942	1095.08	4298.01	4435.32	-75.7058	0.0000000E+000	0.0000000E+000	0.0000000E+000	75.7058	0.0000000E+000	0.0000000E+000	0.0000000E+000	-75.7058	0.0000000E+000	0.0000000E+000	0.0000000E+000	-14.2942	0.0000000E+000	0.0000000E+000	0.0000000E+000	14.2942	3.92482	75.7058	4.79936e-06	6.05849e-06	12636.5
10002.2	1.81089	0.535056	1.88828	-16.4606	4.68149	0.276691	0.0259378	29.7389	2.38775	1	9	0.00529513	0.00280421	0	-1.60281e-06	0.507877	0.15006	0.529582	16.4606	2387.75	8081.31	8426.68	-73.5394	0.0000000E+000	0.0000000E+000	0.0000000E+000	73.5394	0.0000000E+000	0.0000000E+000	0.0000000E+000	-73.5394	0.0000000E+000	0.0000000E+000	0.0000000E+000	-16.4606	0.0000000E+000	0.0000000E+000	0.0000000E+000	16.4606	3.38449	73.5394	7.50963e-07	7.17675e-06	10667.5
4641.49	2.07573	0.709617	2.19368	-18.8737	5.53067	0.27668	0.0418807	48.3214	5.0564	1	9	0.00517124	0.00235734	0	2.51102e-06	0.431346	0.147461	0.455855	18.8737	5056.4	14790.7	15631.1	-71.1263	0.0000000E+000	0.0000000E+000	0.0000000E+000	71.1263	0.0000000E+000	0.0000000E+000	0.0000000E+000	-71.1263	0.0000000E+000	0.0000000E+000	0.0000000E+000	-18.8737	0.0000000E+000	0.0000000E+000	0.0000000E+000	18.8737	2.92515	71.1263	5.78391e-06	1.15876e-05	6606.38
2155.69	2.3928	0.946244	2.5731	-21.5766	6.46467	0.276694	0.0502061	78.0244	10.5517	1	9	0.00505051	0.00196281	0	1.37214e-05	0.361403	0.142918	0.388636	21.5766	10551.7	26682.4	28693	-68.4234	0.0000000E+000	0.0000000E+000	0.0000000E+000	68.4234	0.0000000E+000	0.0000000E+000	0.0000000E+000	-68.4234	0.0000000E+000	0.0000000E+000	0.0000000E+000	-21.5766	0.0000000E+000	0.0000000E+000	0.0000000E+000	21.5766	2.52873	68.4234	4.14393e-06	1.38917e-05	5511.16
1000.32	2.78822	1.35266	3.09901	-25.8795	7.40071	0.276684	0.044451	117.623	22.409	1	9	0.00499117	0.00161057	0	2.53796e-05	0.290323	0.140845	0.322684	25.8795	22409	46191.5	51340.2	-64.1205	0.0000000E+000	0.0000000E+000	0.0000000E+000	64.1205	0.0000000E+000	0.0000000E+000	0.0000000E+000	-64.1205	0.0000000E+000	0.0000000E+000	0.0000000E+000	-25.8795	0.0000000E+000	0.0000000E+000	0.0000000E+000	25.8795	2.06129	64.1205	5.20469e-06	1.22989e-05	6224.48
463.961	3.34343	2.06361	3.929	-31.6834	8.5892	0.276686	-0.00924811	166.231	45.8567	1	10	0.00500619	0.00127416	0	2.57158e-05	0.216585	0.133679	0.254518	31.6834	45856.7	74296.4	87308.6	-58.3166	0.0000000E+000	0.0000000E+000	0.0000000E+000	58.3166	0.0000000E+000	0.0000000E+000	0.0000000E+000	-58.3166	0.0000000E+000	0.0000000E+000	0.0000000E+000	-31.6834	0.0000000E+000	0.0000000E+000	0.0000000E+000	31.6834	1.62019	58.3166	-1.68056e-06	-2.55882e-06	29918.1
215.345	4.32134	3.26891	5.41846	-37.106	9.52343	0.276685	-0.00942885	226.091	82.2882	1	10	0.00496631	0.000916553	0	2.30826e-05	0.147186	0.11134	0.184554	37.106	82288.2	108781	136399	-52.894	0.0000000E+000	0.0000000E+000	0.0000000E+000	52.894	0.0000000E+000	0.0000000E+000	0.0000000E+000	-52.894	0.0000000E+000	0.0000000E+000	0.0000000E+000	-37.106	0.0000000E+000	0.0000000E+000	0.0000000E+000	37.106	1.32195	52.894	-9.52411e-07	-2.60882e-06	29344.5
100.032	6.21779	4.92761	7.93361	-38.3969	10.4547	0.27669	-0.00895746	322.883	124.559	1	10	0.0049432	0.000623071	0	2.1289e-05	0.0987857	0.0782878	0.126046	38.3969	124559	157172	200544	-51.6031	0.0000000E+000	0.0000000E+000	0.0000000E+000	51.6031	0.0000000E+000	0.0000000E+000	0.0000000E+000	-51.6031	0.0000000E+000	0.0000000E+000	0.0000000E+000	-38.3969	0.0000000E+000	0.0000000E+000	0.0000000E+000	38.3969	1.26183	51.6031	-8.33749e-07	-2.47844e-06	30889.3
46.4415	9.50881	6.40946	11.4673	-33.9821	11.3885	0.27669	-0.0106214	534.678	167.037	1	10	0.0049354	0.000430389	0	1.95325e-05	0.0723111	0.0487416	0.0872046	33.9821	167037	247810	298850	-56.0179	0.0000000E+000	0.0000000E+000	0.0000000E+000	56.0179	0.0000000E+000	0.0000000E+000	0.0000000E+000	-56.0179	0.0000000E+000	0.0000000E+000	0.0000000E+000	-33.9821	0.0000000E+000	0.0000000E+000	0.0000000E+000	33.9821	1.48356	56.0179	-9.43938e-07	-2.93882e-06	26050.3
[...]
1.00006	20.8861	2.18819	21.0004	-5.98092	20.7293	0.276718	-0.00409685	72729.1	789.624	1	12	0.0049372	0.0002351	0	8.82965e-06	0.0473589	0.00496167	0.0476181	5.98092	789625	7.53692e+06	7.57817e+06	-84.0191	0.0000000E+000	0.0000000E+000	0.0000000E+000	84.0191	0.0000000E+000	0.0000000E+000	0.0000000E+000	-84.0191	0.0000000E+000	0.0000000E+000	0.0000000E+000	-5.98092	0.0000000E+000	0.0000000E+000	0.0000000E+000	5.98092	9.54494	84.0191	-5.71986e-06	-1.13367e-06	67544.1
0.464091	21.8062	2.12523	21.9095	-5.56646	28.4145	0.276718	-0.00362954	161366	1518.3	1	12	0.00493503	0.000225246	0	-2.29914e-05	0.045427	0.00442731	0.0456422	5.56646	1.5183e+06	1.55787e+07	1.56525e+07	-84.4335	0.0000000E+000	0.0000000E+000	0.0000000E+000	84.4335	0.0000000E+000	0.0000000E+000	0.0000000E+000	-84.4335	0.0000000E+000	0.0000000E+000	0.0000000E+000	-5.56646	0.0000000E+000	0.0000000E+000	0.0000000E+000	5.56646	10.2606	84.4335	-1.83765e-05	-1.00436e-06	76240.5
0.215268	22.7908	2.27196	22.9038	-5.69287	44.8928	0.276714	-0.00476	325417	3202.05	1	12	0.00493746	0.000215574	0	-3.96445e-05	0.0434456	0.00433099	0.043661	5.69287	3.20205e+06	3.21209e+07	3.22801e+07	-84.3071	0.0000000E+000	0.0000000E+000	0.0000000E+000	84.3071	0.0000000E+000	0.0000000E+000	0.0000000E+000	-84.3071	0.0000000E+000	0.0000000E+000	0.0000000E+000	-5.69287	0.0000000E+000	0.0000000E+000	0.0000000E+000	5.69287	10.0313	84.3071	-2.27288e-06	-1.31716e-06	58133.3
0.0999041	23.6853	2.57488	23.8248	-6.20439	80.2983	0.276713	-0.00368875	618700	7226.61	1	12	0.0049377	0.00020725	0	1.32375e-05	0.0417272	0.00453626	0.0419731	6.20439	7.22662e+06	6.64747e+07	6.68663e+07	-83.7956	0.0000000E+000	0.0000000E+000	0.0000000E+000	83.7956	0.0000000E+000	0.0000000E+000	0.0000000E+000	-83.7956	0.0000000E+000	0.0000000E+000	0.0000000E+000	-6.20439	0.0000000E+000	0.0000000E+000	0.0000000E+000	6.20439	9.19859	83.7956	3.54752e-05	-1.02073e-06	75015.3
0.0464052	24.6865	3.50856	24.9346	-8.08898	156.535	0.276709	-0.000822548	977517	19354.4	1	12	0.00493567	0.000197945	0	5.92725e-05	0.0397059	0.0056432	0.040105	8.08898	1.93544e+07	1.36179e+08	1.37547e+08	-81.911	0.0000000E+000	0.0000000E+000	0.0000000E+000	81.911	0.0000000E+000	0.0000000E+000	0.0000000E+000	-81.911	0.0000000E+000	0.0000000E+000	0.0000000E+000	-8.08898	0.0000000E+000	0.0000000E+000	0.0000000E+000	8.08898	7.03607	81.911	8.02759e-06	-2.27607e-07	336405
0.0215268	25.7703	5.5917	26.3699	-12.2424	320.765	0.276717	-0.000280393	1.3222e+06	59452	1	12	0.004937	0.000187221	0	-0.000257427	0.0370596	0.00804129	0.037922	12.2424	5.9452e+07	2.73994e+08	2.8037e+08	-77.7576	0.0000000E+000	0.0000000E+000	0.0000000E+000	77.7576	0.0000000E+000	0.0000000E+000	0.0000000E+000	-77.7576	0.0000000E+000	0.0000000E+000	0.0000000E+000	-12.2424	0.0000000E+000	0.0000000E+000	0.0000000E+000	12.2424	4.60866	77.7576	-0.000231771	-7.75895e-08	986892
0.0100092	27.9181	9.4726	29.4813	-18.7421	673.981	0.276708	-0.00218405	1.67862e+06	173300	1	12	0.004936	0.000167428	0	-0.00103407	0.0321212	0.0108987	0.0339198	18.7421	1.733e+08	5.10756e+08	5.39356e+08	-71.2579	0.0000000E+000	0.0000000E+000	0.0000000E+000	71.2579	0.0000000E+000	0.0000000E+000	0.0000000E+000	-71.2579	0.0000000E+000	0.0000000E+000	0.0000000E+000	-18.7421	0.0000000E+000	0.0000000E+000	0.0000000E+000	18.7421	2.94724	71.2579	-0.000395202	-6.04344e-07	126695

File: 17489_R279_UA654_SOC00_C07.mpt
EC-Lab ASCII FILE
Nb header lines : 63

Potentio Electrochemical Impedance Spectroscopy

Run on channel : 7 (SN 66126)
User :
CE vs. WE compliance from -10 V to 10 V
Electrode connection : standard
Potential control : Ewe
Ewe ctrl range : min = -10.00 V, max = 10.00 V
Safety Limits :
	Do not start on E overload
Acquisition started on : 09/15/2025 09:00:10.151
Loaded Setting File :  C:\Users\Celltest\OneDrive - store-dot.com\Documents\EC-Lab\Data\Charmaine\R279\17382_C01.mpr
Saved on :
	File : 17489_C07.mpr
	Directory : C:\Users\Celltest\OneDrive - store-dot.com\Documents\EC-Lab\Data\Charmaine\R279\
	Host : 169.254.61.224
Device : VMP-3e (SN .003165)
Address : USB
EC-LAB for windows v11.62 (software)
Internet server v27.00 (firmware)
Command interpretor v12.03 (firmware)
Electrode material :
Initial state :
Electrolyte :
Comments :
Electrode surface area : 0.001 cm²
Characteristic mass : 0.001 g
Equivalent Weight : 0.000 g/eq.
Density : 0.000 g/cm3
Volume (V) : 0.001 cm³
Cycle Definition : Charge/Discharge alternance
Mode                Single sine
E (V)               0.0000
vs.                 Eoc
tE (h:m:s)          0:00:0.0000
record              0
dI                  0.000
unit dI             mA
dt (s)              0.000
fi                  100.000
unit fi             kHz
ff                  10.000
unit ff             mHz
Nd                  6
Points              per decade
spacing             Logarithmic
Va (mV)             5.0
pw                  0.10
Na                  2
corr                0
E range min (V)     -10.000
E range max (V)     10.000
I Range             Auto
Bandwidth           5
nc cycles           0
goto Ns'            0
nr cycles           0
inc. cycle          0

freq/Hz	Re(Z)/Ohm	-Im(Z)/Ohm	|Z|/Ohm	Phase(Z)/deg	time/s	<Ewe>/V	<I>/mA	Cs/µF	Cp/µF	cycle number	I Range	|Ewe|/V	|I|/A	Ns	(Q-Qo)/mA.h	Re(Y)/Ohm-1	Im(Y)/Ohm-1	|Y|/Ohm-1	Phase(Y)/deg	Re(C)/nF	Im(C)/nF	|C|/nF	Phase(C)/deg	Re(M)	Im(M)	|M|	Phase(M)/deg	Re(Permittivity)	Im(Permittivity)	|Permittivity|	Phase(Permittivity)/deg	Re(Resistivity)/Ohm.cm	Im(Resistivity)/Ohm.cm	|Resistivity|/Ohm.cm	Phase(Resistivity)/deg	Re(Conductivity)/mS/cm	Im(Conductivity)/mS/cm	|Conductivity|/mS/cm	Phase(Conductivity)/deg	Tan(Delta)	Loss Angle(Delta)/deg	dq/mA.h	Pwe/W	Rwe/Ohm
100004	1.91429	0.281342	1.93485	-8.36089	2.06649	0.27826	0.0358843	5.65678	0.119604	1	9	0.00459092	0.00237275	0	5.22747e-06	0.511343	0.0751519	0.516836	8.36089	119.604	813.797	822.539	-81.6391	0.0000000E+000	0.0000000E+000	0.0000000E+000	81.6391	0.0000000E+000	0.0000000E+000	0.0000000E+000	-81.6391	0.0000000E+000	0.0000000E+000	0.0000000E+000	-8.36089	0.0000000E+000	0.0000000E+000	0.0000000E+000	8.36089	6.80412	81.6391	5.22747e-06	9.98516e-06	7754.38
46420.4	2.05226	0.343526	2.08081	-9.50259	3.2225	0.278273	0.033166	9.98051	0.272023	1	9	0.00506512	0.00243421	0	1.51715e-05	0.473988	0.0793404	0.480582	9.50259	272.023	1625.09	1647.7	-80.4974	0.0000000E+000	0.0000000E+000	0.0000000E+000	80.4974	0.0000000E+000	0.0000000E+000	0.0000000E+000	-80.4974	0.0000000E+000	0.0000000E+000	0.0000000E+000	-9.50259	0.0000000E+000	0.0000000E+000	0.0000000E+000	9.50259	5.9741	80.4974	5.75693e-06	9.2292e-06	8390.29
21544.7	2.22418	0.444769	2.26821	-11.3083	4.09648	0.278286	0.0322351	16.6091	0.638628	1	9	0.00527346	0.00232494	0	1.64502e-05	0.432317	0.0864505	0.440876	11.3083	638.628	3193.61	3256.84	-78.6917	0.0000000E+000	0.0000000E+000	0.0000000E+000	78.6917	0.0000000E+000	0.0000000E+000	0.0000000E+000	-78.6917	0.0000000E+000	0.0000000E+000	0.0000000E+000	-11.3083	0.0000000E+000	0.0000000E+000	0.0000000E+000	11.3083	5.00075	78.6917	7.01772e-07	8.97058e-06	8633
10002.2	2.43964	0.56787	2.50485	-13.1033	4.82949	0.278285	0.0329426	28.0204	1.44015	1	9	0.00511129	0.00204055	0	1.81305e-05	0.38883	0.0905074	0.399225	13.1033	1440.15	6187.04	6352.44	-76.8967	0.0000000E+000	0.0000000E+000	0.0000000E+000	76.8967	0.0000000E+000	0.0000000E+000	0.0000000E+000	-76.8967	0.0000000E+000	0.0000000E+000	0.0000000E+000	-13.1033	0.0000000E+000	0.0000000E+000	0.0000000E+000	13.1033	4.29612	76.8967	9.73361e-07	9.16742e-06	8447.56
4641.49	2.70666	0.741074	2.80628	-15.3121	5.67869	0.27831	0.056513	46.2702	3.22674	1	9	0.00501496	0.00178705	0	2.49875e-05	0.343694	0.0941025	0.356344	15.3121	3226.74	11785.2	12218.9	-74.6879	0.0000000E+000	0.0000000E+000	0.0000000E+000	74.6879	0.0000000E+000	0.0000000E+000	0.0000000E+000	-74.6879	0.0000000E+000	0.0000000E+000	0.0000000E+000	-15.3121	0.0000000E+000	0.0000000E+000	0.0000000E+000	15.3121	3.65234	74.6879	5.74432e-06	1.57281e-05	4924.7
2155.69	3.05176	0.989829	3.20827	-17.9703	6.61271	0.278318	0.0527708	74.5888	7.09991	1	9	0.00494376	0.00154094	0	3.73489e-05	0.296489	0.0961654	0.311695	17.9703	7099.91	21889.8	23012.5	-72.0297	0.0000000E+000	0.0000000E+000	0.0000000E+000	72.0297	0.0000000E+000	0.0000000E+000	0.0000000E+000	-72.0297	0.0000000E+000	0.0000000E+000	0.0000000E+000	-17.9703	0.0000000E+000	0.0000000E+000	0.0000000E+000	17.9703	3.08312	72.0297	4.92039e-06	1.46871e-05	5274.09
1000.32	3.48891	1.39523	3.75755	-21.7967	7.8027	0.278307	-0.00885009	114.034	15.7224	1	10	0.00497072	0.00132286	0	3.99554e-05	0.247104	0.0988184	0.266131	21.7967	15722.4	39315.3	42342.5	-68.2033	0.0000000E+000	0.0000000E+000	0.0000000E+000	68.2033	0.0000000E+000	0.0000000E+000	0.0000000E+000	-68.2033	0.0000000E+000	0.0000000E+000	0.0000000E+000	-21.7967	0.0000000E+000	0.0000000E+000	0.0000000E+000	21.7967	2.50059	68.2033	-7.9236e-07	-2.46304e-06	31446.8
463.961	4.08815	2.08723	4.59016	-27.0469	8.73721	0.278313	-0.00913675	164.349	33.9825	1	10	0.0049139	0.00107053	0	3.82429e-05	0.194031	0.0990641	0.217857	27.0469	33982.5	66559.6	74732.8	-62.9531	0.0000000E+000	0.0000000E+000	0.0000000E+000	62.9531	0.0000000E+000	0.0000000E+000	0.0000000E+000	-62.9531	0.0000000E+000	0.0000000E+000	0.0000000E+000	-27.0469	0.0000000E+000	0.0000000E+000	0.0000000E+000	27.0469	1.95865	62.9531	-1.55075e-06	-2.54288e-06	30460.8
215.345	5.1204	3.21491	6.046	-32.1232	9.67145	0.278302	-0.010678	229.889	65.0008	1	10	0.00488565	0.00080808	0	3.60083e-05	0.140077	0.0879494	0.165399	32.1232	65000.8	103527	122241	-57.8768	0.0000000E+000	0.0000000E+000	0.0000000E+000	57.8768	0.0000000E+000	0.0000000E+000	0.0000000E+000	-57.8768	0.0000000E+000	0.0000000E+000	0.0000000E+000	-32.1232	0.0000000E+000	0.0000000E+000	0.0000000E+000	32.1232	1.5927	57.8768	-7.84418e-07	-2.9717e-06	26063.1
100.032	7.00269	4.69826	8.43275	-33.8585	10.6027	0.278305	-0.00985154	338.645	105.119	1	10	0.00486481	0.000576895	0	3.38186e-05	0.0984751	0.0660691	0.118585	33.8585	105119	156678	188674	-56.1415	0.0000000E+000	0.0000000E+000	0.0000000E+000	56.1415	0.0000000E+000	0.0000000E+000	0.0000000E+000	-56.1415	0.0000000E+000	0.0000000E+000	0.0000000E+000	-33.8585	0.0000000E+000	0.0000000E+000	0.0000000E+000	33.8585	1.49049	56.1415	-1.02863e-06	-2.74173e-06	28249.9
46.4415	10.1619	5.9262	11.7637	-30.2499	11.5366	0.278306	-0.011752	578.278	146.759	1	10	0.00485632	0.000412824	0	3.19347e-05	0.0734327	0.0428245	0.0850076	30.2499	146759	251653	291321	-59.7501	0.0000000E+000	0.0000000E+000	0.0000000E+000	59.7501	0.0000000E+000	0.0000000E+000	0.0000000E+000	-59.7501	0.0000000E+000	0.0000000E+000	0.0000000E+000	-30.2499	0.0000000E+000	0.0000000E+000	0.0000000E+000	30.2499	1.71474	59.7501	-1.09469e-06	-3.27065e-06	23681.5
[...]
1.00006	20.054	1.96931	20.1505	-5.60847	20.8792	0.278358	-0.00317405	80812.5	771.853	1	12	0.00486151	0.00024126	0	2.38885e-05	0.049389	0.00485001	0.0496266	5.60847	771854	7.86e+06	7.89781e+06	-84.3915	0.0000000E+000	0.0000000E+000	0.0000000E+000	84.3915	0.0000000E+000	0.0000000E+000	0.0000000E+000	-84.3915	0.0000000E+000	0.0000000E+000	0.0000000E+000	-5.60847	0.0000000E+000	0.0000000E+000	0.0000000E+000	5.60847	10.1833	84.3915	-3.91402e-06	-8.83524e-07	87698
0.464091	20.895	1.95483	20.9862	-5.34475	28.5639	0.278361	-0.00271938	175432	1522.15	1	12	0.00485898	0.000231532	0	-6.69285e-06	0.0474431	0.00443854	0.0476503	5.34475	1.52215e+06	1.62701e+07	1.63412e+07	-84.6553	0.0000000E+000	0.0000000E+000	0.0000000E+000	84.6553	0.0000000E+000	0.0000000E+000	0.0000000E+000	-84.6553	0.0000000E+000	0.0000000E+000	0.0000000E+000	-5.34475	0.0000000E+000	0.0000000E+000	0.0000000E+000	5.34475	10.6889	84.6553	-1.81367e-05	-7.5697e-07	102362
0.215268	21.8006	2.10072	21.9016	-5.50406	45.0439	0.278363	-0.00394827	351943	3237.86	1	12	0.00485993	0.000221898	0	-2.48364e-05	0.0454483	0.00437942	0.0456588	5.50406	3.23786e+06	3.36015e+07	3.37571e+07	-84.4959	0.0000000E+000	0.0000000E+000	0.0000000E+000	84.4959	0.0000000E+000	0.0000000E+000	0.0000000E+000	-84.4959	0.0000000E+000	0.0000000E+000	0.0000000E+000	-5.50406	0.0000000E+000	0.0000000E+000	0.0000000E+000	5.50406	10.3777	84.4959	-2.51031e-06	-1.09905e-06	70502.6
0.0999041	22.6264	2.4634	22.7601	-6.21347	80.4495	0.278366	-0.00307178	646699	7575.69	1	12	0.0048603	0.000213545	0	3.52688e-05	0.0436784	0.00475538	0.0439365	6.21347	7.57569e+06	6.9583e+07	6.99942e+07	-83.7865	0.0000000E+000	0.0000000E+000	0.0000000E+000	83.7865	0.0000000E+000	0.0000000E+000	0.0000000E+000	-83.7865	0.0000000E+000	0.0000000E+000	0.0000000E+000	-6.21347	0.0000000E+000	0.0000000E+000	0.0000000E+000	6.21347	9.18504	83.7865	4.10174e-05	-8.55079e-07	90620.6
0.0464052	23.5963	3.48115	23.8517	-8.3923	156.686	0.278365	-0.000374664	985213	20986.5	1	12	0.00486105	0.000203803	0	0.000111695	0.0414768	0.00611907	0.0419258	8.3923	2.09865e+07	1.42252e+08	1.43792e+08	-81.6077	0.0000000E+000	0.0000000E+000	0.0000000E+000	81.6077	0.0000000E+000	0.0000000E+000	0.0000000E+000	-81.6077	0.0000000E+000	0.0000000E+000	0.0000000E+000	-8.3923	0.0000000E+000	0.0000000E+000	0.0000000E+000	8.3923	6.77829	81.6077	2.63396e-05	-1.04293e-07	742971
0.0215268	24.6769	5.72189	25.3316	-13.0546	320.915	0.278364	-0.000255242	1.29212e+06	65926	1	12	0.0048616	0.000191919	0	-0.000180479	0.0384562	0.00891694	0.0394765	13.0546	6.5926e+07	2.8432e+08	2.91863e+08	-76.9454	0.0000000E+000	0.0000000E+000	0.0000000E+000	76.9454	0.0000000E+000	0.0000000E+000	0.0000000E+000	-76.9454	0.0000000E+000	0.0000000E+000	0.0000000E+000	-13.0546	0.0000000E+000	0.0000000E+000	0.0000000E+000	13.0546	4.31271	76.9454	-0.000227167	-7.10503e-08	1.09059e+06
0.0100092	26.8695	9.83475	28.6128	-20.1036	674.133	0.27837	-0.00191512	1.61681e+06	191013	1	12	0.00485781	0.000169778	0	-0.000987818	0.03282	0.0120127	0.0349494	20.1036	1.91013e+08	5.21868e+08	5.55727e+08	-69.8964	0.0000000E+000	0.0000000E+000	0.0000000E+000	69.8964	0.0000000E+000	0.0000000E+000	0.0000000E+000	-69.8964	0.0000000E+000	0.0000000E+000	0.0000000E+000	-20.1036	0.0000000E+000	0.0000000E+000	0.0000000E+000	20.1036	2.7321	69.8964	-0.000419482	-5.33113e-07	145354