Folder: EIS/txt (part 149)

File: 19002_R309_UA707_SOC00_C01.mpt
EC-Lab ASCII FILE
Nb header lines : 65

Potentio Electrochemical Impedance Spectroscopy

Run on channel : 1 (SN 66354)
User :
CE vs. WE compliance from -10 V to 10 V
Electrode connection : standard
Potential control : Ewe
Ewe ctrl range : min = -10.00 V, max = 10.00 V
Safety Limits :
	Do not start on E overload
Acquisition started on : 11/04/2025 16:08:08.928
Technique started on : 11/04/2025 16:08:10.840
Loaded Setting File :  C:\Users\Celltest\OneDrive - store-dot.com\Documents\EC-Lab\Data\@Biologic Test Protocols\anode half cell EIS SOC00.mps
Saved on :
	File : 19002_R309_UA707_SOC00_C01.mpr
	Directory : C:\Users\Celltest\OneDrive - store-dot.com\Documents\EC-Lab\Data\Charmaine\
	Host : 169.254.61.224
Device : VMP-3e (SN .003165)
Address : USB
EC-LAB for windows v11.62 (software)
Internet server v27.00 (firmware)
Command interpretor v12.03 (firmware)
Electrode material :
Initial state :
Electrolyte :
Comments :
Electrode surface area : 0.001 cm²
Characteristic mass : 0.001 g
Equivalent Weight : 0.000 g/eq.
Density : 0.000 g/cm3
Volume (V) : 0.001 cm³
Record Ece
Cycle Definition : Charge/Discharge alternance
Mode                Single sine
E (V)               0.0000
vs.                 Eoc
tE (h:m:s)          0:00:0.0000
record              0
dI                  0.000
unit dI             mA
dt (s)              0.000
fi                  100.000
unit fi             kHz
ff                  10.000
unit ff             mHz
Nd                  6
Points              per decade
spacing             Logarithmic
Va (mV)             5.0
pw                  0.10
Na                  2
corr                0
E range min (V)     -10.000
E range max (V)     10.000
I Range             Auto
Bandwidth           5
nc cycles           0
goto Ns'            0
nr cycles           0
inc. cycle          0

freq/Hz	Re(Z)/Ohm	-Im(Z)/Ohm	|Z|/Ohm	Phase(Z)/deg	time/s	<Ewe>/V	<I>/mA	Cs/µF	Cp/µF	cycle number	I Range	|Ewe|/V	|I|/A	Ns	(Q-Qo)/mA.h	<Ece>/V	|Ece|/V	Phase(Zce)/deg	|Zce|/Ohm	Re(Zce)/Ohm	-Im(Zce)/Ohm	Phase(Zwe-ce)/deg	|Zwe-ce|/Ohm	Re(Zwe-ce)/Ohm	-Im(Zwe-ce)/Ohm	Re(Y)/Ohm-1	Im(Y)/Ohm-1	|Y|/Ohm-1	Phase(Y)/deg	Re(C)/nF	Im(C)/nF	|C|/nF	Phase(C)/deg	Re(M)	Im(M)	|M|	Phase(M)/deg	Re(Permittivity)	Im(Permittivity)	|Permittivity|	Phase(Permittivity)/deg	Re(Resistivity)/Ohm.cm	Im(Resistivity)/Ohm.cm	|Resistivity|/Ohm.cm	Phase(Resistivity)/deg	Re(Conductivity)/mS/cm	Im(Conductivity)/mS/cm	|Conductivity|/mS/cm	Phase(Conductivity)/deg	Tan(Delta)	Loss Angle(Delta)/deg	dq/mA.h	Pwe/W	Pce/W	Pwe-ce/W	<Ewe-Ece>/V	Rwe/Ohm	Rce/Ohm	Rwe-ce/Ohm		Ewe-Ece/V
100004	1.3921	0.493831	1.47709	-19.5316	1.91152	0.242419	0.0759943	3.22274	0.36022	1	9	0.00471635	0.003193	0	1.00629e-05	-5.7682e-06	4.06693e-05	98.6299	0.012737	-0.0019112	-0.0125928	-19.0942	1.47112	1.39018	0.481238	0.638049	0.226341	0.677006	19.5316	360.22	1015.45	1077.45	-70.4684	0.0000000E+000	0.0000000E+000	0.0000000E+000	70.4684	0.0000000E+000	0.0000000E+000	0.0000000E+000	-70.4684	0.0000000E+000	0.0000000E+000	0.0000000E+000	-19.5316	0.0000000E+000	0.0000000E+000	0.0000000E+000	19.5316	2.81897	70.4684	1.00629e-05	1.84224e-05	-4.3835e-10	1.84229e-05	0.242424	3189.96	0.075903	3190.03
31621.1	1.82703	0.633008	1.93358	-19.1096	3.43452	0.242423	0.0766276	7.95121	0.852175	1	9	0.00508107	0.0026278	0	4.7339e-05	0.000471164	1.17067e-05	41.1878	0.00445493	0.00335258	-0.0029337	-18.9951	1.93579	1.83038	0.630074	0.488676	0.169311	0.517176	19.1096	852.174	2459.6	2603.04	-70.8904	0.0000000E+000	0.0000000E+000	0.0000000E+000	70.8904	0.0000000E+000	0.0000000E+000	0.0000000E+000	-70.8904	0.0000000E+000	0.0000000E+000	0.0000000E+000	-19.1096	0.0000000E+000	0.0000000E+000	0.0000000E+000	19.1096	2.88626	70.8904	1.08178e-05	1.85763e-05	3.61042e-08	1.85402e-05	0.241952	3163.65	6.14876	3157.5
10002.2	2.29704	0.776368	2.42469	-18.6745	4.45954	0.242418	0.0724551	20.4954	2.10125	1	9	0.00500892	0.0020658	0	7.10845e-05	-0.000139309	4.85449e-06	17.8322	0.00234994	0.00223704	-0.00071962	-18.6415	2.42658	2.29928	0.775648	0.39071	0.132055	0.412423	18.6745	2101.25	6216.96	6562.46	-71.3255	0.0000000E+000	0.0000000E+000	0.0000000E+000	71.3255	0.0000000E+000	0.0000000E+000	0.0000000E+000	-71.3255	0.0000000E+000	0.0000000E+000	0.0000000E+000	-18.6745	0.0000000E+000	0.0000000E+000	0.0000000E+000	18.6745	2.9587	71.3255	7.62785e-06	1.75644e-05	-1.00937e-08	1.75745e-05	0.242558	3345.77	1.9227	3347.69
3163.08	2.88423	1.08717	3.08233	-20.6532	5.35967	0.242208	0.0404909	46.2821	5.7577	1	9	0.00462946	0.00150194	0	8.49099e-05	0.000223159	3.53544e-06	-110.336	0.00235392	-0.00081803	0.00220721	-20.6969	3.08234	2.88342	1.08938	0.30358	0.11443	0.32443	20.6532	5757.7	15275.1	16324.2	-69.3468	0.0000000E+000	0.0000000E+000	0.0000000E+000	69.3468	0.0000000E+000	0.0000000E+000	0.0000000E+000	-69.3468	0.0000000E+000	0.0000000E+000	0.0000000E+000	-20.6532	0.0000000E+000	0.0000000E+000	0.0000000E+000	20.6532	2.65298	69.3468	5.16516e-06	9.80721e-06	9.03592e-09	9.79818e-06	0.241985	5981.79	5.51135	5976.28
1000.32	3.71647	1.64037	4.06238	-23.8156	6.95877	0.242337	-0.0113937	96.9929	15.8147	1	10	0.00464633	0.00114375	0	0.000110331	-0.000120232	7.26e-06	139.228	0.00634756	-0.00480707	-0.00414531	-23.7895	4.05631	3.71166	1.63622	0.2252	0.0993986	0.246161	23.8156	15814.7	35830.3	39165.2	-66.1844	0.0000000E+000	0.0000000E+000	0.0000000E+000	66.1844	0.0000000E+000	0.0000000E+000	0.0000000E+000	-66.1844	0.0000000E+000	0.0000000E+000	0.0000000E+000	-23.8156	0.0000000E+000	0.0000000E+000	0.0000000E+000	23.8156	2.26563	66.1844	-9.45081e-07	-2.76111e-06	1.36989e-09	-2.76248e-06	0.242458	21269.4	10.5525	21280
316.316	5.1002	2.68554	5.76404	-27.7693	8.308	0.242341	-0.0107899	187.356	40.6702	1	10	0.00459139	0.000796558	0	0.00010578	0.000318546	5.369e-06	52.175	0.00674025	0.00413347	-0.00532404	-27.7033	5.76522	5.10433	2.68021	0.153509	0.0808309	0.173489	27.7693	40670.2	77238.2	87291.5	-62.2307	0.0000000E+000	0.0000000E+000	0.0000000E+000	62.2307	0.0000000E+000	0.0000000E+000	0.0000000E+000	-62.2307	0.0000000E+000	0.0000000E+000	0.0000000E+000	-27.7693	0.0000000E+000	0.0000000E+000	0.0000000E+000	27.7693	1.89914	62.2307	-1.28363e-06	-2.61484e-06	-3.43709e-09	-2.6114e-06	0.242022	22459.9	29.5225	22430.4
100.032	7.91213	3.63576	8.7075	-24.6796	9.65477	0.242355	-0.0101899	437.609	76.2938	1	10	0.00457166	0.000525026	0	0.000102933	0.000127773	1.12979e-05	-65.4217	0.0215187	0.00895041	0.0195689	-24.7718	8.72381	7.92108	3.65533	0.104353	0.0479522	0.114844	24.6796	76293.8	166030	182721	-65.3204	0.0000000E+000	0.0000000E+000	0.0000000E+000	65.3204	0.0000000E+000	0.0000000E+000	0.0000000E+000	-65.3204	0.0000000E+000	0.0000000E+000	0.0000000E+000	-24.6796	0.0000000E+000	0.0000000E+000	0.0000000E+000	24.6796	2.1762	65.3204	-1.67362e-06	-2.46957e-06	-1.30199e-09	-2.46827e-06	0.242227	23783.8	12.5392	23771.3
[...]
1.00006	14.0086	0.862531	14.0352	-3.52333	18.6699	0.242399	-0.00179711	184509	696.837	1	11	0.00456483	0.000325242	0	0.000103733	0.000394855	4.33701e-06	15.2136	0.0133347	0.0128674	-0.00349927	-3.50586	14.0478	14.0215	0.859031	0.0711149	0.00437864	0.0712496	3.52333	696838	1.13176e+07	1.1339e+07	-86.4767	0.0000000E+000	0.0000000E+000	0.0000000E+000	86.4767	0.0000000E+000	0.0000000E+000	0.0000000E+000	-86.4767	0.0000000E+000	0.0000000E+000	0.0000000E+000	-3.52333	0.0000000E+000	0.0000000E+000	0.0000000E+000	3.52333	16.2413	86.4767	9.34441e-06	-4.35616e-07	-7.09597e-10	-4.34907e-07	0.242004	134883	219.717	134663
0.316193	14.3902	1.22361	14.4422	-4.86022	33.0137	0.242398	0.00242794	411361	2952.89	1	11	0.00456778	0.000316281	0	0.000100183	8.96183e-05	3.06759e-06	-15.1871	0.00969894	0.00936021	0.00254085	-4.86711	14.4517	14.3996	1.22616	0.0689927	0.00586651	0.0692417	4.86022	2.95289e+06	3.47273e+07	3.48526e+07	-85.1398	0.0000000E+000	0.0000000E+000	0.0000000E+000	85.1398	0.0000000E+000	0.0000000E+000	0.0000000E+000	-85.1398	0.0000000E+000	0.0000000E+000	0.0000000E+000	-4.86022	0.0000000E+000	0.0000000E+000	0.0000000E+000	4.86022	11.7604	85.1398	-1.45922e-05	5.88526e-07	2.17588e-10	5.88308e-07	0.242308	99836.9	36.9113	99799.9
0.0999041	15.0495	2.63294	15.2781	-9.92355	78.2216	0.242391	-0.00263856	605057	17969.6	1	11	0.00456394	0.000298724	0	-3.37946e-05	1.33091e-05	2.86612e-06	-7.22642	0.00959453	0.00951832	0.0012069	-9.92186	15.2877	15.059	2.63414	0.0644739	0.0112798	0.0654531	9.92355	1.79696e+07	1.02712e+08	1.04272e+08	-80.0765	0.0000000E+000	0.0000000E+000	0.0000000E+000	80.0765	0.0000000E+000	0.0000000E+000	0.0000000E+000	-80.0765	0.0000000E+000	0.0000000E+000	0.0000000E+000	-9.92355	0.0000000E+000	0.0000000E+000	0.0000000E+000	9.92355	5.71587	80.0765	-4.49765e-05	-6.39564e-07	-3.5117e-11	-6.39528e-07	0.242377	91864.6	5.04407	91859.6
0.0315922	16.4997	6.35124	17.6799	-21.0533	242.746	0.242393	-0.00191951	793198	102363	1	12	0.00456623	0.000258273	0	0.000271726	-0.000158387	2.50026e-06	-20.146	0.00968067	0.00908839	0.00333415	-21.0528	17.6895	16.5088	6.35458	0.0527858	0.0203189	0.0565615	21.0533	1.02363e+08	2.65924e+08	2.84945e+08	-68.9467	0.0000000E+000	0.0000000E+000	0.0000000E+000	68.9467	0.0000000E+000	0.0000000E+000	0.0000000E+000	-68.9467	0.0000000E+000	0.0000000E+000	0.0000000E+000	-21.0533	0.0000000E+000	0.0000000E+000	0.0000000E+000	21.0533	2.59787	68.9467	0.000207867	-4.65276e-07	3.04025e-10	-4.6558e-07	0.242551	126278	82.514	126361
0.0100092	20.6144	15.6681	25.8929	-37.2368	693.968	0.242386	-0.00176024	1.01486e+06	371600	1	12	0.00456298	0.000176225	0	-0.000184204	1.33091e-05	2.99075e-06	75.718	0.0169712	0.00418671	-0.0164466	-37.2022	25.8863	20.6186	15.6516	0.0307475	0.0233697	0.0386206	37.2368	3.716e+08	4.88913e+08	6.14103e+08	-52.7632	0.0000000E+000	0.0000000E+000	0.0000000E+000	52.7632	0.0000000E+000	0.0000000E+000	0.0000000E+000	-52.7632	0.0000000E+000	0.0000000E+000	0.0000000E+000	-37.2368	0.0000000E+000	0.0000000E+000	0.0000000E+000	37.2368	1.3157	52.7632	-0.00051403	-4.26657e-07	-2.34272e-11	-4.26634e-07	0.242372	137700	7.56096	137693

File: 19003_R309_UA708_SOC00_C02.mpt
EC-Lab ASCII FILE
Nb header lines : 66

Potentio Electrochemical Impedance Spectroscopy

Run on channel : 2 (SN 66139)
Grouped channel(s) : 2, 3, 4, 5, 6
User :
CE vs. WE compliance from -10 V to 10 V
Electrode connection : standard
Potential control : Ewe
Ewe ctrl range : min = -10.00 V, max = 10.00 V
Safety Limits :
	Do not start on E overload
Acquisition started on : 11/04/2025 16:08:38.802
Loaded Setting File :  C:\Users\Celltest\OneDrive - store-dot.com\Documents\EC-Lab\Data\@Biologic Test Protocols\anode half cell EIS SOC00.mps
Saved on :
	File : 19003_R309_UA708_SOC00_C02.mpr
	Directory : C:\Users\Celltest\OneDrive - store-dot.com\Documents\EC-Lab\Data\Charmaine\
	Host : 169.254.61.224
Device : VMP-3e (SN .003165)
Address : USB
EC-LAB for windows v11.62 (software)
Internet server v27.00 (firmware)
Command interpretor v12.03 (firmware)
Electrode material :
Initial state :
Electrolyte :
Comments :
Electrode surface area : 0.001 cm²
Characteristic mass : 0.001 g
Equivalent Weight : 0.000 g/eq.
Density : 0.000 g/cm3
Volume (V) : 0.001 cm³
Record Ece
Cycle Definition : Charge/Discharge alternance
Mode                Single sine
E (V)               0.0000
vs.                 Eoc
tE (h:m:s)          0:00:0.0000
record              0
dI                  0.000
unit dI             mA
dt (s)              0.000
fi                  100.000
unit fi             kHz
ff                  10.000
unit ff             mHz
Nd                  6
Points              per decade
spacing             Logarithmic
Va (mV)             5.0
pw                  0.10
Na                  2
corr                0
E range min (V)     -10.000
E range max (V)     10.000
I Range             Auto
Bandwidth           5
nc cycles           0
goto Ns'            0
nr cycles           0
inc. cycle          0

freq/Hz	Re(Z)/Ohm	-Im(Z)/Ohm	|Z|/Ohm	Phase(Z)/deg	time/s	<Ewe>/V	<I>/mA	Cs/µF	Cp/µF	cycle number	I Range	|Ewe|/V	|I|/A	Ns	(Q-Qo)/mA.h	<Ece>/V	|Ece|/V	Phase(Zce)/deg	|Zce|/Ohm	Re(Zce)/Ohm	-Im(Zce)/Ohm	Phase(Zwe-ce)/deg	|Zwe-ce|/Ohm	Re(Zwe-ce)/Ohm	-Im(Zwe-ce)/Ohm	Re(Y)/Ohm-1	Im(Y)/Ohm-1	|Y|/Ohm-1	Phase(Y)/deg	Re(C)/nF	Im(C)/nF	|C|/nF	Phase(C)/deg	Re(M)	Im(M)	|M|	Phase(M)/deg	Re(Permittivity)	Im(Permittivity)	|Permittivity|	Phase(Permittivity)/deg	Re(Resistivity)/Ohm.cm	Im(Resistivity)/Ohm.cm	|Resistivity|/Ohm.cm	Phase(Resistivity)/deg	Re(Conductivity)/mS/cm	Im(Conductivity)/mS/cm	|Conductivity|/mS/cm	Phase(Conductivity)/deg	Tan(Delta)	Loss Angle(Delta)/deg	dq/mA.h	Pwe/W	Pce/W	Pwe-ce/W	<Ewe-Ece>/V	Rwe/Ohm	Rce/Ohm	Rwe-ce/Ohm		Ewe-Ece/V
100004	1.96544	0.686037	2.08173	-19.2416	1.86755	0.250425	-0.0379885	2.31983	0.251943	1	9	0.00497053	0.00238769	0	-8.75617e-06	-1.72211e-05	2.32527e-05	77.3634	0.00973856	0.00213048	-0.00950266	-18.9752	2.08063	1.96757	0.676535	0.453535	0.158307	0.48037	19.2416	251.943	721.797	764.504	-70.7584	0.0000000E+000	0.0000000E+000	0.0000000E+000	70.7584	0.0000000E+000	0.0000000E+000	0.0000000E+000	-70.7584	0.0000000E+000	0.0000000E+000	0.0000000E+000	-19.2416	0.0000000E+000	0.0000000E+000	0.0000000E+000	19.2416	2.86492	70.7584	-8.75617e-06	-9.51327e-06	6.54203e-10	-9.51392e-06	0.250442	6592.11	0.453322	6592.56
31621.1	2.58773	0.866131	2.72883	-18.5057	3.14254	0.250387	-0.0550472	5.81111	0.585426	1	9	0.00541081	0.00198283	0	-1.48223e-05	-0.000131766	1.19048e-05	-4.22786	0.00600395	0.00598761	0.00044263	-18.4747	2.73465	2.59372	0.866573	0.347508	0.116313	0.366457	18.5057	585.426	1749.07	1844.44	-71.4943	0.0000000E+000	0.0000000E+000	0.0000000E+000	71.4943	0.0000000E+000	0.0000000E+000	0.0000000E+000	-71.4943	0.0000000E+000	0.0000000E+000	0.0000000E+000	-18.5057	0.0000000E+000	0.0000000E+000	0.0000000E+000	18.5057	2.98769	71.4943	-2.30456e-06	-1.37831e-05	7.25336e-09	-1.37904e-05	0.250519	4548.6	2.39369	4550.99
10002.2	3.21043	1.00723	3.36472	-17.4186	4.16756	0.250428	-0.00320089	15.7977	1.41565	1	9	0.0053755	0.00159761	0	-2.76039e-05	-7.44936e-05	9.06141e-06	-145.459	0.00567187	-0.00467201	0.00321596	-17.4948	3.36123	3.20575	1.01045	0.283573	0.0889675	0.297201	17.4186	1415.65	4512.19	4729.05	-72.5814	0.0000000E+000	0.0000000E+000	0.0000000E+000	72.5814	0.0000000E+000	0.0000000E+000	0.0000000E+000	-72.5814	0.0000000E+000	0.0000000E+000	0.0000000E+000	-17.4186	0.0000000E+000	0.0000000E+000	0.0000000E+000	17.4186	3.18737	72.5814	-2.22434e-06	-8.01593e-07	2.38445e-10	-8.01831e-07	0.250503	78237.2	23.2728	78260.5
3163.08	3.95623	1.33072	4.17404	-18.5909	5.27767	0.250373	-0.0339141	37.8114	3.84313	1	10	0.00537042	0.00128662	0	-3.62245e-05	0.000192778	5.15465e-06	-14.7949	0.00400634	0.00387351	0.00102306	-18.5873	4.17804	3.9601	1.33175	0.227075	0.0763792	0.239576	18.5909	3843.13	11425.6	12054.6	-71.4091	0.0000000E+000	0.0000000E+000	0.0000000E+000	71.4091	0.0000000E+000	0.0000000E+000	0.0000000E+000	-71.4091	0.0000000E+000	0.0000000E+000	0.0000000E+000	-18.5909	0.0000000E+000	0.0000000E+000	0.0000000E+000	18.5909	2.97299	71.4091	-3.9449e-06	-8.49118e-06	-6.5379e-09	-8.48464e-06	0.25018	7382.56	5.68431	7376.88
1000.32	4.96067	1.94402	5.32799	-21.3995	6.62982	0.250381	-0.0269778	81.8429	10.8957	1	10	0.0052497	0.000985307	0	-4.67329e-05	0.000250051	5.1598e-06	21.2184	0.00523674	0.00488173	-0.0018953	-21.3614	5.33184	4.96555	1.94212	0.174749	0.0684816	0.187688	21.3995	10895.7	27803.2	29861.9	-68.6005	0.0000000E+000	0.0000000E+000	0.0000000E+000	68.6005	0.0000000E+000	0.0000000E+000	0.0000000E+000	-68.6005	0.0000000E+000	0.0000000E+000	0.0000000E+000	-21.3995	0.0000000E+000	0.0000000E+000	0.0000000E+000	21.3995	2.55176	68.6005	-4.1249e-06	-6.75473e-06	-6.74581e-09	-6.74798e-06	0.250131	9281.02	9.26877	9271.75
316.316	6.55125	3.09324	7.24479	-25.2748	7.97908	0.250374	-0.0267021	162.662	29.6525	1	10	0.00518094	0.000715126	0	-5.62784e-05	-1.72211e-05	6.08999e-06	-12.554	0.00851596	0.00831236	0.00185102	-25.26	7.2531	6.55956	3.09509	0.124817	0.0589335	0.13803	25.2748	29652.5	62801.7	69450.1	-64.7252	0.0000000E+000	0.0000000E+000	0.0000000E+000	64.7252	0.0000000E+000	0.0000000E+000	0.0000000E+000	-64.7252	0.0000000E+000	0.0000000E+000	0.0000000E+000	-25.2748	0.0000000E+000	0.0000000E+000	0.0000000E+000	25.2748	2.11792	64.7252	-3.7755e-06	-6.68551e-06	4.59839e-10	-6.68597e-06	0.250391	9376.54	0.644932	9377.19
100.032	9.69081	4.39911	10.6426	-24.4155	9.32677	0.250364	-0.025674	361.673	61.7951	1	10	0.00516336	0.000485161	0	-6.56136e-05	9.7324e-05	9.19811e-06	-131.157	0.0189589	-0.0124772	0.0142744	-24.5133	10.6371	9.67833	4.41339	0.0855595	0.0388395	0.0939624	24.4155	61795.1	136129	149498	-65.5845	0.0000000E+000	0.0000000E+000	0.0000000E+000	65.5845	0.0000000E+000	0.0000000E+000	0.0000000E+000	-65.5845	0.0000000E+000	0.0000000E+000	0.0000000E+000	-24.4155	0.0000000E+000	0.0000000E+000	0.0000000E+000	24.4155	2.2029	65.5845	-3.57916e-06	-6.42784e-06	-2.49869e-09	-6.42534e-06	0.250267	9751.67	3.79077	9747.88
[...]
0.316193	18.0582	1.33035	18.1071	-4.21337	33.733	0.250418	-0.00853461	378358	2042.37	1	12	0.00515881	0.000284906	0	-0.000184959	-5.54027e-05	2.94631e-06	-0.479968	0.0103414	0.010341	8.66288e-05	-4.21124	18.1174	18.0685	1.33043	0.0550777	0.00405758	0.055227	4.21337	2.04237e+06	2.77232e+07	2.77983e+07	-85.7866	0.0000000E+000	0.0000000E+000	0.0000000E+000	85.7866	0.0000000E+000	0.0000000E+000	0.0000000E+000	-85.7866	0.0000000E+000	0.0000000E+000	0.0000000E+000	-4.21337	0.0000000E+000	0.0000000E+000	0.0000000E+000	4.21337	13.574	85.7866	-3.53234e-05	-2.13722e-06	4.72841e-10	-2.13769e-06	0.250473	29341.4	6.49154	29347.9
0.0999041	18.7208	2.92041	18.9472	-8.86658	78.9422	0.25042	-0.00637124	545497	12959.6	1	12	0.00515834	0.000272248	0	-0.000204343	-9.35844e-05	2.56643e-06	-23.671	0.00942684	0.00863372	0.00378472	-8.87386	18.9563	18.7294	2.9242	0.0521475	0.00813492	0.0527782	8.86658	1.29595e+07	8.3075e+07	8.40797e+07	-81.1334	0.0000000E+000	0.0000000E+000	0.0000000E+000	81.1334	0.0000000E+000	0.0000000E+000	0.0000000E+000	-81.1334	0.0000000E+000	0.0000000E+000	0.0000000E+000	-8.86658	0.0000000E+000	0.0000000E+000	0.0000000E+000	8.86658	6.41033	81.1334	3.25552e-05	-1.59549e-06	5.96249e-10	-1.59608e-06	0.250513	39304.7	14.6886	39319.4
0.0315922	20.4672	7.01034	21.6345	-18.9071	221.826	0.250416	-0.00186468	718623	75454.7	1	12	0.00515852	0.00023844	0	-0.000139337	9.7324e-05	2.43258e-06	2.85908	0.0102021	0.0101894	-0.000508877	-18.8971	21.644	20.4774	7.00983	0.0437286	0.0149777	0.0462225	18.9071	7.54547e+07	2.20295e+08	2.32859e+08	-71.0928	0.0000000E+000	0.0000000E+000	0.0000000E+000	71.0928	0.0000000E+000	0.0000000E+000	0.0000000E+000	-71.0928	0.0000000E+000	0.0000000E+000	0.0000000E+000	-18.9071	0.0000000E+000	0.0000000E+000	0.0000000E+000	18.9071	2.91957	71.0928	-5.41541e-05	-4.66947e-07	-1.81478e-10	-4.66765e-07	0.250319	134294	52.1934	134242
0.0146812	22.7363	12.4317	25.913	-28.669	462.866	0.250406	-0.00261823	872022	200703	1	12	0.00515977	0.000199119	0	-0.000941615	0.000116415	1.25741e-06	-14.1186	0.00631486	0.0061241	0.00154038	-28.6655	25.9192	22.7424	12.4333	0.0338596	0.0185138	0.0385906	28.669	2.00703e+08	3.67064e+08	4.18351e+08	-61.331	0.0000000E+000	0.0000000E+000	0.0000000E+000	61.331	0.0000000E+000	0.0000000E+000	0.0000000E+000	-61.331	0.0000000E+000	0.0000000E+000	0.0000000E+000	-28.669	0.0000000E+000	0.0000000E+000	0.0000000E+000	28.669	1.82889	61.331	-0.00051684	-6.55623e-07	-3.04801e-10	-6.55318e-07	0.25029	95639.4	44.4631	95595

0.0100092	24.9894	16.782	30.1016	-33.8839	673.049	0.250402	-0.00318409	947500	294501	1	12	0.00515827	0.000171362	0	-0.0014914	0.000250051	2.42383e-06	64.9893	0.0141445	0.00598011	-0.0128181	-33.8573	30.0994	24.9954	16.7691	0.0275789	0.018521	0.0332209	33.8839	2.94501e+08	4.3853e+08	5.28242e+08	-56.1161	0.0000000E+000	0.0000000E+000	0.0000000E+000	56.1161	0.0000000E+000	0.0000000E+000	0.0000000E+000	-56.1161	0.0000000E+000	0.0000000E+000	0.0000000E+000	-33.8839	0.0000000E+000	0.0000000E+000	0.0000000E+000	33.8839	1.48906	56.1161	-0.000549783	-7.97302e-07	-7.96184e-10	-7.96506e-07	0.250152	78641.7	78.5314	78563.1